rownames,STUDYID,STUDYIDN,USUBJID,TRTA,TRTAN,ITTFL,RANDFL,SCRFREAS,AGE,AAGEGR1,SEX,ETHNIC,BLBMI,EVNTFL
1,GT01,4001,GT1000,,3,N,N,WITHDRAWAL BY SUBJECT,37,<40,Male,Hispanic or Latino,33.76723202317953,
2,GT01,4001,GT1001,Placebo,1,Y,Y,,41,>=40,Male,Not Hispanic or Latino,33.35073200636543,Y
3,GT01,4001,GT1002,Placebo,1,Y,Y,,39,<40,Female,Not Hispanic or Latino,30.458616281161085,Y
4,GT01,4001,GT1003,Placebo,1,Y,Y,,38,<40,Male,Not Hispanic or Latino,22.859855459770188,N
5,GT01,4001,GT1004,Placebo,1,Y,Y,,45,>=40,Male,Not Hispanic or Latino,23.897127968259156,Y
6,GT01,4001,GT1005,Placebo,1,Y,Y,,35,<40,Female,Hispanic or Latino,29.09855688433163,Y
7,GT01,4001,GT1006,Placebo,1,Y,Y,,42,>=40,Female,Not Hispanic or Latino,28.84763437602669,N
8,GT01,4001,GT1007,Placebo,1,Y,Y,,35,<40,Male,Not Hispanic or Latino,32.553408357314765,N
9,GT01,4001,GT1008,Placebo,1,Y,Y,,42,>=40,Male,Not Hispanic or Latino,32.62040519854054,N
10,GT01,4001,GT1009,Placebo,1,Y,Y,,38,<40,Female,Hispanic or Latino,34.48886313615367,N
11,GT01,4001,GT1010,Placebo,1,Y,Y,,48,>=40,Undifferentiated,Not Hispanic or Latino,24.766166526824236,N
12,GT01,4001,GT1011,Placebo,1,Y,Y,,36,<40,Male,Hispanic or Latino,19.192916340660304,N
13,GT01,4001,GT1012,Placebo,1,Y,Y,,46,>=40,Female,Not Hispanic or Latino,19.488987024873495,Y
14,GT01,4001,GT1013,Placebo,1,Y,Y,,34,<40,Male,Missing,18.796173411188647,Y
15,GT01,4001,GT1014,Placebo,1,Y,Y,,44,>=40,Male,Hispanic or Latino,32.85837743175216,N
16,GT01,4001,GT1015,Placebo,1,Y,Y,,42,>=40,Male,Not Hispanic or Latino,24.312377048656344,Y
17,GT01,4001,GT1016,Placebo,1,Y,Y,,38,<40,Male,Hispanic or Latino,30.393632876686752,N
18,GT01,4001,GT1017,Placebo,1,Y,Y,,36,<40,Female,Missing,19.63564668642357,N
19,GT01,4001,GT1018,Placebo,1,Y,Y,,43,>=40,Male,Hispanic or Latino,34.420741262380034,N
20,GT01,4001,GT1019,Placebo,1,Y,Y,,32,<40,Male,Hispanic or Latino,21.904480966040865,Y
21,GT01,4001,GT1020,Placebo,1,Y,Y,,45,>=40,Undifferentiated,Not Hispanic or Latino,18.489033897174522,N
22,GT01,4001,GT1021,Placebo,1,Y,Y,,33,<40,Male,Hispanic or Latino,18.933538862504065,N
23,GT01,4001,GT1022,Placebo,1,Y,Y,,40,>=40,Male,Not Hispanic or Latino,29.42292630067095,N
24,GT01,4001,GT1023,Placebo,1,Y,Y,,52,>=40,Female,Not Hispanic or Latino,24.521370936417952,N
25,GT01,4001,GT1024,Placebo,1,Y,Y,,29,<40,Male,Hispanic or Latino,32.40230497671291,Y
26,GT01,4001,GT1025,Placebo,1,Y,Y,,33,<40,Male,Not Hispanic or Latino,18.823255777126178,Y
27,GT01,4001,GT1026,Placebo,1,Y,Y,,46,>=40,Male,Not Hispanic or Latino,21.13808612548746,Y
28,GT01,4001,GT1027,Placebo,1,Y,Y,,27,<40,Undifferentiated,Not Hispanic or Latino,21.24623486935161,N
29,GT01,4001,GT1028,Placebo,1,Y,Y,,48,>=40,Female,Not Hispanic or Latino,27.349449845729396,Y
30,GT01,4001,GT1029,Placebo,1,Y,Y,,40,>=40,Male,Missing,25.50985466851853,N
31,GT01,4001,GT1030,Placebo,1,Y,Y,,45,>=40,Male,Hispanic or Latino,22.941492824349552,N
32,GT01,4001,GT1031,Placebo,1,Y,Y,,46,>=40,Female,Hispanic or Latino,23.053933521034196,Y
33,GT01,4001,GT1032,Placebo,1,Y,Y,,47,>=40,Male,Not Hispanic or Latino,28.1998059428297,Y
34,GT01,4001,GT1033,Placebo,1,Y,Y,,45,>=40,Male,Hispanic or Latino,26.124425382353365,N
35,GT01,4001,GT1034,Placebo,1,Y,Y,,40,>=40,Male,Not Hispanic or Latino,20.485749071929604,Y
36,GT01,4001,GT1035,Placebo,1,Y,Y,,34,<40,Male,Hispanic or Latino,29.86632857704535,N
37,GT01,4001,GT1036,Placebo,1,Y,Y,,39,<40,Female,Hispanic or Latino,28.499085099669173,N
38,GT01,4001,GT1037,Placebo,1,Y,Y,,46,>=40,Male,Not Hispanic or Latino,26.08359008585103,N
39,GT01,4001,GT1038,Placebo,1,Y,Y,,35,<40,Male,Hispanic or Latino,31.089691235218197,N
40,GT01,4001,GT1039,Placebo,1,Y,Y,,49,>=40,Male,Not Hispanic or Latino,29.429577396484092,N
41,GT01,4001,GT1040,Placebo,1,Y,Y,,36,<40,Male,Not Hispanic or Latino,25.38858536328189,Y
42,GT01,4001,GT1041,Placebo,1,Y,Y,,35,<40,Male,Not Hispanic or Latino,29.10249394015409,Y
43,GT01,4001,GT1042,Placebo,1,Y,Y,,55,>=40,Male,Missing,23.515249267220497,N
44,GT01,4001,GT1043,Placebo,1,Y,Y,,50,>=40,Female,Not Hispanic or Latino,30.473219285486266,N
45,GT01,4001,GT1044,Placebo,1,Y,Y,,40,>=40,Male,Hispanic or Latino,33.17406538268551,N
46,GT01,4001,GT1045,Placebo,1,Y,Y,,45,>=40,Male,Not Hispanic or Latino,28.82220724481158,N
47,GT01,4001,GT1046,Placebo,1,Y,Y,,36,<40,Female,Not Hispanic or Latino,25.956163769122213,N
48,GT01,4001,GT1047,Placebo,1,Y,Y,,47,>=40,Female,Not Hispanic or Latino,30.302895131055266,Y
49,GT01,4001,GT1048,Placebo,1,Y,Y,,31,<40,Male,Not Hispanic or Latino,21.150497656781226,N
50,GT01,4001,GT1049,Placebo,1,Y,Y,,41,>=40,Female,Hispanic or Latino,32.811172624118626,N
51,GT01,4001,GT1050,Placebo,1,Y,Y,,35,<40,Male,Not Hispanic or Latino,27.050994575722143,N
52,GT01,4001,GT1051,Placebo,1,Y,Y,,46,>=40,Male,Hispanic or Latino,20.069796178257093,N
53,GT01,4001,GT1052,Placebo,1,Y,Y,,35,<40,Male,Not Hispanic or Latino,19.213148263981566,N
54,GT01,4001,GT1053,Placebo,1,Y,Y,,43,>=40,Female,Hispanic or Latino,18.988665730459616,Y
55,GT01,4001,GT1054,Placebo,1,Y,Y,,35,<40,Male,Not Hispanic or Latino,20.89045705087483,Y
56,GT01,4001,GT1055,Placebo,1,Y,Y,,31,<40,Female,Missing,34.22501303674653,N
57,GT01,4001,GT1056,Placebo,1,Y,Y,,40,>=40,Male,Not Hispanic or Latino,20.37796170846559,Y
58,GT01,4001,GT1057,Placebo,1,Y,Y,,32,<40,Male,Not Hispanic or Latino,23.59420043323189,Y
59,GT01,4001,GT1058,Placebo,1,Y,Y,,40,>=40,Undifferentiated,Not Hispanic or Latino,32.74818712868728,Y
60,GT01,4001,GT1059,Placebo,1,Y,Y,,48,>=40,Female,Hispanic or Latino,33.086699861101806,Y
61,GT01,4001,GT1060,Placebo,1,Y,Y,,38,<40,Male,Not Hispanic or Latino,32.80658245063387,N
62,GT01,4001,GT1061,Placebo,1,Y,Y,,43,>=40,Male,Not Hispanic or Latino,29.001441992353648,N
63,GT01,4001,GT1062,Placebo,1,Y,Y,,43,>=40,Male,Not Hispanic or Latino,25.972108093556017,Y
64,GT01,4001,GT1063,Placebo,1,Y,Y,,52,>=40,Female,Hispanic or Latino,26.002119476906955,Y
65,GT01,4001,GT1064,Placebo,1,Y,Y,,42,>=40,Male,Hispanic or Latino,23.01467194966972,N
66,GT01,4001,GT1065,Placebo,1,Y,Y,,39,<40,Male,Hispanic or Latino,27.618125468492508,Y
67,GT01,4001,GT1066,Placebo,1,Y,Y,,40,>=40,Male,Missing,24.022018926450983,N
68,GT01,4001,GT1067,Placebo,1,Y,Y,,41,>=40,Male,Hispanic or Latino,18.088612210936844,N
69,GT01,4001,GT1068,Placebo,1,Y,Y,,43,>=40,Male,Hispanic or Latino,33.87885166704655,Y
70,GT01,4001,GT1069,Placebo,1,Y,Y,,37,<40,Female,Not Hispanic or Latino,19.92238554242067,N
71,GT01,4001,GT1070,Placebo,1,Y,Y,,36,<40,Female,Not Hispanic or Latino,24.37328666402027,Y
72,GT01,4001,GT1071,Placebo,1,Y,Y,,40,>=40,Female,Not Hispanic or Latino,26.575365053024143,N
73,GT01,4001,GT1072,Placebo,1,Y,Y,,39,<40,Male,Hispanic or Latino,25.180946922162548,Y
74,GT01,4001,GT1073,Placebo,1,Y,Y,,37,<40,Male,Hispanic or Latino,24.70786605332978,N
75,GT01,4001,GT1074,Placebo,1,Y,Y,,46,>=40,Male,Hispanic or Latino,30.52053642855026,Y
76,GT01,4001,GT1075,Placebo,1,Y,Y,,48,>=40,Male,Hispanic or Latino,32.406210945453495,Y
77,GT01,4001,GT1076,Placebo,1,Y,Y,,35,<40,Female,Hispanic or Latino,19.52806364116259,Y
78,GT01,4001,GT1077,Placebo,1,Y,Y,,56,>=40,Male,Not Hispanic or Latino,29.098101106705144,N
79,GT01,4001,GT1078,Placebo,1,Y,Y,,47,>=40,Male,Hispanic or Latino,31.12438975018449,N
80,GT01,4001,GT1079,Placebo,1,Y,Y,,52,>=40,Male,Hispanic or Latino,20.170549968723208,N
81,GT01,4001,GT1080,Placebo,1,Y,Y,,47,>=40,Male,Hispanic or Latino,29.77605304098688,Y
82,GT01,4001,GT1081,Placebo,1,Y,Y,,43,>=40,Male,Not Hispanic or Latino,21.170475104590878,N
83,GT01,4001,GT1082,Placebo,1,Y,Y,,37,<40,Undifferentiated,Hispanic or Latino,22.498639630386606,Y
84,GT01,4001,GT1083,Placebo,1,Y,Y,,45,>=40,Male,Not Hispanic or Latino,30.24091801047325,Y
85,GT01,4001,GT1084,Placebo,1,Y,Y,,48,>=40,Female,Hispanic or Latino,21.447240172652528,N
86,GT01,4001,GT1085,Placebo,1,Y,Y,,44,>=40,Female,Hispanic or Latino,19.925387994851917,N
87,GT01,4001,GT1086,Placebo,1,Y,Y,,45,>=40,Female,Hispanic or Latino,29.684860182693228,Y
88,GT01,4001,GT1087,Placebo,1,Y,Y,,51,>=40,Male,Hispanic or Latino,21.23783934651874,N
89,GT01,4001,GT1088,Placebo,1,Y,Y,,49,>=40,Male,Not Hispanic or Latino,26.948972389567643,Y
90,GT01,4001,GT1089,Placebo,1,Y,Y,,37,<40,Undifferentiated,Not Hispanic or Latino,30.580567048164085,Y
91,GT01,4001,GT1090,Placebo,1,Y,Y,,31,<40,Male,Not Hispanic or Latino,29.425769288325682,Y
92,GT01,4001,GT1091,Drug 1,2,Y,Y,,35,<40,Male,Missing,31.24266710388474,N
93,GT01,4001,GT1092,Drug 1,2,Y,Y,,52,>=40,Male,Hispanic or Latino,24.19246087456122,Y
94,GT01,4001,GT1093,Drug 1,2,Y,Y,,46,>=40,Female,Not Hispanic or Latino,18.766140590654686,N
95,GT01,4001,GT1094,Drug 1,2,Y,Y,,34,<40,Male,Not Hispanic or Latino,34.26888849865645,Y
96,GT01,4001,GT1095,Drug 1,2,Y,Y,,42,>=40,Male,Not Hispanic or Latino,19.39661523234099,N
97,GT01,4001,GT1096,Drug 1,2,Y,Y,,47,>=40,Female,Hispanic or Latino,23.730819549178705,Y
98,GT01,4001,GT1097,Drug 1,2,Y,Y,,40,>=40,Male,Not Hispanic or Latino,27.73193965689279,N
99,GT01,4001,GT1098,Drug 1,2,Y,Y,,40,>=40,Female,Not Hispanic or Latino,27.3150247419253,Y
100,GT01,4001,GT1099,Drug 1,2,Y,Y,,39,<40,Male,Not Hispanic or Latino,20.96473428956233,Y
101,GT01,4001,GT1100,Drug 1,2,Y,Y,,35,<40,Female,Hispanic or Latino,29.96993721765466,N
102,GT01,4001,GT1101,Drug 1,2,Y,Y,,38,<40,Male,Not Hispanic or Latino,32.82149203121662,N
103,GT01,4001,GT1102,Drug 1,2,Y,Y,,39,<40,Male,Not Hispanic or Latino,25.05295527097769,N
104,GT01,4001,GT1103,Drug 1,2,Y,Y,,40,>=40,Female,Not Hispanic or Latino,22.353125124471262,Y
105,GT01,4001,GT1104,Drug 1,2,Y,Y,,47,>=40,Female,Missing,29.479342174250633,N
106,GT01,4001,GT1105,Drug 1,2,Y,Y,,43,>=40,Female,Hispanic or Latino,34.07822738820687,N
107,GT01,4001,GT1106,Drug 1,2,Y,Y,,41,>=40,Male,Not Hispanic or Latino,19.773690595291555,Y
108,GT01,4001,GT1107,Drug 1,2,Y,Y,,36,<40,Male,Not Hispanic or Latino,25.27153260074556,Y
109,GT01,4001,GT1108,Drug 1,2,Y,Y,,51,>=40,Male,Hispanic or Latino,33.0538144109305,N
110,GT01,4001,GT1109,Drug 1,2,Y,Y,,38,<40,Undifferentiated,Not Hispanic or Latino,22.85006254608743,Y
111,GT01,4001,GT1110,Drug 1,2,Y,Y,,36,<40,Female,Not Hispanic or Latino,26.40098763233982,Y
112,GT01,4001,GT1111,Drug 1,2,Y,Y,,36,<40,Male,Hispanic or Latino,20.800376262282953,Y
113,GT01,4001,GT1112,Drug 1,2,Y,Y,,35,<40,Male,Missing,31.815776777919382,Y
114,GT01,4001,GT1113,Drug 1,2,Y,Y,,44,>=40,Female,Hispanic or Latino,33.67323106015101,Y
115,GT01,4001,GT1114,Drug 1,2,Y,Y,,47,>=40,Female,Not Hispanic or Latino,33.78724450431764,N
116,GT01,4001,GT1115,Drug 1,2,Y,Y,,43,>=40,Male,Hispanic or Latino,22.05563490372151,Y
117,GT01,4001,GT1116,Drug 1,2,Y,Y,,41,>=40,Female,Hispanic or Latino,27.211454851320013,Y
118,GT01,4001,GT1117,Drug 1,2,Y,Y,,40,>=40,Male,Missing,31.37518055201508,Y
119,GT01,4001,GT1118,Drug 1,2,Y,Y,,37,<40,Male,Not Hispanic or Latino,34.6546474089846,Y
120,GT01,4001,GT1119,Drug 1,2,Y,Y,,50,>=40,Male,Not Hispanic or Latino,28.307290925644338,Y
121,GT01,4001,GT1120,Drug 1,2,Y,Y,,41,>=40,Female,Not Hispanic or Latino,24.103959791827947,Y
122,GT01,4001,GT1121,Drug 1,2,Y,Y,,36,<40,Female,Not Hispanic or Latino,23.102781645487994,N
123,GT01,4001,GT1122,Drug 1,2,Y,Y,,32,<40,Male,Not Hispanic or Latino,28.66538097942248,Y
124,GT01,4001,GT1123,Drug 1,2,Y,Y,,45,>=40,Female,Hispanic or Latino,34.75215067178942,Y
125,GT01,4001,GT1124,Drug 1,2,Y,Y,,49,>=40,Male,Hispanic or Latino,25.96773466281593,N
126,GT01,4001,GT1125,Drug 1,2,Y,Y,,32,<40,Female,Missing,32.8073036915157,N
127,GT01,4001,GT1126,Drug 1,2,Y,Y,,35,<40,Male,Not Hispanic or Latino,31.711675572907552,Y
128,GT01,4001,GT1127,Drug 1,2,Y,Y,,33,<40,Female,Hispanic or Latino,23.03165432298556,Y
129,GT01,4001,GT1128,Drug 1,2,Y,Y,,31,<40,Male,Hispanic or Latino,30.806253982475027,Y
130,GT01,4001,GT1129,Drug 1,2,Y,Y,,33,<40,Male,Hispanic or Latino,22.86097922967747,N
131,GT01,4001,GT1130,Drug 1,2,Y,Y,,36,<40,Male,Not Hispanic or Latino,19.20741538098082,N
132,GT01,4001,GT1131,Drug 1,2,Y,Y,,45,>=40,Female,Not Hispanic or Latino,25.465839789714664,Y
133,GT01,4001,GT1132,Drug 1,2,Y,Y,,41,>=40,Male,Not Hispanic or Latino,25.674703696742654,Y
134,GT01,4001,GT1133,Drug 1,2,Y,Y,,33,<40,Female,Hispanic or Latino,24.459742462961003,Y
135,GT01,4001,GT1134,Drug 1,2,Y,Y,,43,>=40,Male,Hispanic or Latino,31.85556439938955,Y
136,GT01,4001,GT1135,Drug 1,2,Y,Y,,46,>=40,Male,Not Hispanic or Latino,25.263489085482433,N
137,GT01,4001,GT1136,Drug 1,2,Y,Y,,39,<40,Female,Hispanic or Latino,30.08362858556211,Y
138,GT01,4001,GT1137,Drug 1,2,Y,Y,,35,<40,Male,Not Hispanic or Latino,22.918170724762604,Y
139,GT01,4001,GT1138,Drug 1,2,Y,Y,,36,<40,Male,Missing,21.40095393010415,N
140,GT01,4001,GT1139,Drug 1,2,Y,Y,,51,>=40,Male,Hispanic or Latino,34.08182278298773,Y
141,GT01,4001,GT1140,Drug 1,2,Y,Y,,55,>=40,Female,Not Hispanic or Latino,20.156447029439732,N
142,GT01,4001,GT1141,Drug 1,2,Y,Y,,42,>=40,Male,Missing,26.46188394841738,N
143,GT01,4001,GT1142,Drug 1,2,Y,Y,,35,<40,Male,Hispanic or Latino,33.0182559506502,Y
144,GT01,4001,GT1143,Drug 1,2,Y,Y,,34,<40,Male,Hispanic or Latino,32.23918441636488,N
145,GT01,4001,GT1144,Drug 1,2,Y,Y,,36,<40,Male,Not Hispanic or Latino,34.80552755948156,Y
146,GT01,4001,GT1145,Drug 1,2,Y,Y,,36,<40,Male,Not Hispanic or Latino,26.533028924139217,Y
147,GT01,4001,GT1146,Drug 1,2,Y,Y,,29,<40,Male,Missing,23.358656950527802,Y
148,GT01,4001,GT1147,Drug 1,2,Y,Y,,31,<40,Female,Not Hispanic or Latino,27.317194540286437,N
149,GT01,4001,GT1148,Drug 1,2,Y,Y,,37,<40,Male,Not Hispanic or Latino,18.62253822130151,N
150,GT01,4001,GT1149,Drug 1,2,Y,Y,,42,>=40,Male,Hispanic or Latino,20.399978190194815,Y
151,GT01,4001,GT1150,Drug 1,2,Y,Y,,43,>=40,Male,Not Hispanic or Latino,33.47293244767934,Y
152,GT01,4001,GT1151,Drug 1,2,Y,Y,,40,>=40,Male,Not Hispanic or Latino,30.281005875207484,Y
153,GT01,4001,GT1152,Drug 1,2,Y,Y,,48,>=40,Male,Not Hispanic or Latino,24.81643446884118,Y
154,GT01,4001,GT1153,Drug 1,2,Y,Y,,36,<40,Female,Hispanic or Latino,29.702947600046173,Y
155,GT01,4001,GT1154,Drug 1,2,Y,Y,,36,<40,Male,Not Hispanic or Latino,32.77154739247635,Y
156,GT01,4001,GT1155,Drug 1,2,Y,Y,,34,<40,Female,Hispanic or Latino,26.00070642773062,Y
157,GT01,4001,GT1156,Drug 1,2,Y,Y,,42,>=40,Male,Missing,29.102539450628683,Y
158,GT01,4001,GT1157,Drug 1,2,Y,Y,,38,<40,Male,Missing,28.64327775943093,Y
159,GT01,4001,GT1158,Drug 1,2,Y,Y,,34,<40,Female,Not Hispanic or Latino,21.149938968010247,Y
160,GT01,4001,GT1159,Drug 1,2,Y,Y,,50,>=40,Male,Not Hispanic or Latino,22.567523212870583,Y
161,GT01,4001,GT1160,Drug 1,2,Y,Y,,31,<40,Male,Not Hispanic or Latino,29.938170886598527,Y
162,GT01,4001,GT1161,Drug 1,2,Y,Y,,38,<40,Female,Hispanic or Latino,26.9839669323992,Y
163,GT01,4001,GT1162,Drug 1,2,Y,Y,,33,<40,Male,Not Hispanic or Latino,21.29550842451863,Y
164,GT01,4001,GT1163,Drug 1,2,Y,Y,,42,>=40,Male,Not Hispanic or Latino,28.769891462055966,Y
165,GT01,4001,GT1164,Drug 1,2,Y,Y,,47,>=40,Male,Not Hispanic or Latino,28.15352276386693,Y
166,GT01,4001,GT1165,Drug 1,2,Y,Y,,33,<40,Female,Hispanic or Latino,33.94462034688331,N
167,GT01,4001,GT1166,Drug 1,2,Y,Y,,44,>=40,Male,Hispanic or Latino,21.779316869797185,Y
168,GT01,4001,GT1167,Drug 1,2,Y,Y,,32,<40,Female,Hispanic or Latino,19.313716082135215,Y
169,GT01,4001,GT1168,Drug 1,2,Y,Y,,35,<40,Male,Not Hispanic or Latino,34.07467929297127,Y
170,GT01,4001,GT1169,Drug 1,2,Y,Y,,40,>=40,Female,Not Hispanic or Latino,20.672302717575803,Y
171,GT01,4001,GT1170,Drug 1,2,Y,Y,,31,<40,Male,Not Hispanic or Latino,25.11344603006728,Y
172,GT01,4001,GT1171,Drug 1,2,Y,Y,,40,>=40,Male,Hispanic or Latino,18.027483529411256,Y
173,GT01,4001,GT1172,Drug 1,2,Y,Y,,38,<40,Female,Not Hispanic or Latino,34.19865837134421,N
174,GT01,4001,GT1173,Drug 1,2,Y,Y,,35,<40,Male,Not Hispanic or Latino,34.38011485966854,Y
175,GT01,4001,GT1174,Drug 1,2,Y,Y,,40,>=40,Female,Missing,23.65800212486647,N
176,GT01,4001,GT1175,Drug 1,2,Y,Y,,39,<40,Male,Hispanic or Latino,34.75563183519989,Y
177,GT01,4001,GT1176,Drug 1,2,Y,Y,,35,<40,Female,Not Hispanic or Latino,22.41685244697146,Y
178,GT01,4001,GT1177,Drug 1,2,Y,Y,,40,>=40,Male,Not Hispanic or Latino,25.333523582667112,Y
179,GT01,4001,GT1178,Drug 1,2,Y,Y,,36,<40,Male,Not Hispanic or Latino,33.45436458173208,N
180,GT01,4001,GT1179,Drug 1,2,Y,Y,,41,>=40,Male,Not Hispanic or Latino,30.09534011525102,Y
181,GT01,4001,GT1180,Drug 1,2,Y,Y,,34,<40,Female,Not Hispanic or Latino,26.81013040873222,N
182,GT01,4001,GT1181,,3,N,N,OTHER,40,>=40,Female,Hispanic or Latino,25.827849487541243,
