rownames,STUDYID,USUBJID,DOMAIN,TRT01P,TRT01A,TRTSDT,TRTEDT,ADT,ADY,AVISIT,AVISITN,ATPT,ATPTN,PARAM,PARAMCD,AVAL,AVALC,AVALU,AVALCAT1,AVALCA1N,BASE,BASEC,BASETYPE,CHG,PCHG,CRIT1,CRIT1FL,CRIT2,CRIT2FL,CRIT3,CRIT3FL,CRIT4,CRIT4FL,CRIT5,CRIT5FL,CRIT6,CRIT6FL,CRIT7,CRIT7FL,CRIT8,CRIT8FL,DTYPE,ABLFL,ANL01FL,ANL02FL,ONTRTFL,OESEQ,OECAT,OESCAT,OEDTC,VISIT,VISITNUM,VISITDY,OESTRESN,OESTRESC,OEORRES,OETEST,OETESTCD,OETSTDTL,OELAT,OELOC,OEDY,OEMETHOD,OEORRESU,OESTRESU,OESTAT,OETPT,OETPTNUM,STUDYEYE,AFEYE,WORS01FL
1,CDISCPILOT01,01-701-1015,OE,Placebo,Placebo,2014-01-02,2014-07-02,2014-05-21,140,Week 20,11,PRE-DOSE,-0.5,Fellow Eye Visual Acuity Score (letters),FBCVA,2,2,letters,< 20/800,1000,77,77,LAST,-75,-97.40259740259741,0 <= CHG <= 5,N,-5 <= CHG <= -1,N,10 <= CHG <= 15,N,CHG <= -20,Y,CHG <= 5,Y,CHG <= 10,Y,CHG >= -15,N,CHG >= 15,N,,,Y,,Y,63,BEST CORRECTED VISUAL ACUITY,OVERALL EVALUATION,2014-05-21,WEEK 20,11,140,2,2,2,Visual Acuity Score,VACSCORE,,LEFT,EYE,140,ETDRS EYE CHART,,,,PRE-DOSE,-0.5,RIGHT,Fellow Eye,Y
2,CDISCPILOT01,01-701-1015,OE,Placebo,Placebo,2014-01-02,2014-07-02,2014-03-26,84,Week 12,9,PRE-DOSE,-0.5,Fellow Eye Visual Acuity Score (letters),FBCVA,41,41,letters,20/160,160,77,77,LAST,-36,-46.75324675324675,0 <= CHG <= 5,N,-5 <= CHG <= -1,N,10 <= CHG <= 15,N,CHG <= -20,Y,CHG <= 5,Y,CHG <= 10,Y,CHG >= -15,N,CHG >= 15,N,,,Y,,Y,47,BEST CORRECTED VISUAL ACUITY,OVERALL EVALUATION,2014-03-26,WEEK 12,9,84,41,41,41,Visual Acuity Score,VACSCORE,,LEFT,EYE,84,ETDRS EYE CHART,,,,PRE-DOSE,-0.5,RIGHT,Fellow Eye,
3,CDISCPILOT01,01-701-1015,OE,Placebo,Placebo,2014-01-02,2014-07-02,2014-06-18,168,Week 24,12,PRE-DOSE,-0.5,Fellow Eye Visual Acuity Score (letters),FBCVA,44,44,letters,20/125,125,77,77,LAST,-33,-42.857142857142854,0 <= CHG <= 5,N,-5 <= CHG <= -1,N,10 <= CHG <= 15,N,CHG <= -20,Y,CHG <= 5,Y,CHG <= 10,Y,CHG >= -15,N,CHG >= 15,N,,,Y,Y,Y,71,BEST CORRECTED VISUAL ACUITY,OVERALL EVALUATION,2014-06-18,WEEK 24,12,168,44,44,44,Visual Acuity Score,VACSCORE,,LEFT,EYE,168,ETDRS EYE CHART,,,,PRE-DOSE,-0.5,RIGHT,Fellow Eye,
4,CDISCPILOT01,01-701-1015,OE,Placebo,Placebo,2014-01-02,2014-07-02,2014-05-07,126,Week 16,10,PRE-DOSE,-0.5,Fellow Eye Visual Acuity Score (letters),FBCVA,52,52,letters,20/100,100,77,77,LAST,-25,-32.467532467532465,0 <= CHG <= 5,N,-5 <= CHG <= -1,N,10 <= CHG <= 15,N,CHG <= -20,Y,CHG <= 5,Y,CHG <= 10,Y,CHG >= -15,N,CHG >= 15,N,,,Y,,Y,55,BEST CORRECTED VISUAL ACUITY,OVERALL EVALUATION,2014-05-07,WEEK 16,10,112,52,52,52,Visual Acuity Score,VACSCORE,,LEFT,EYE,126,ETDRS EYE CHART,,,,PRE-DOSE,-0.5,RIGHT,Fellow Eye,
5,CDISCPILOT01,01-701-1015,OE,Placebo,Placebo,2014-01-02,2014-07-02,2014-02-12,42,Week 6,7,PRE-DOSE,-0.5,Fellow Eye Visual Acuity Score (letters),FBCVA,64,64,letters,20/50,50,77,77,LAST,-13,-16.883116883116884,0 <= CHG <= 5,N,-5 <= CHG <= -1,N,10 <= CHG <= 15,N,CHG <= -20,N,CHG <= 5,Y,CHG <= 10,Y,CHG >= -15,Y,CHG >= 15,N,,,Y,,Y,31,BEST CORRECTED VISUAL ACUITY,OVERALL EVALUATION,2014-02-12,WEEK 6,7,42,64,64,64,Visual Acuity Score,VACSCORE,,LEFT,EYE,42,ETDRS EYE CHART,,,,PRE-DOSE,-0.5,RIGHT,Fellow Eye,
6,CDISCPILOT01,01-701-1015,OE,Placebo,Placebo,2014-01-02,2014-07-02,2014-01-02,1,Baseline,3,PRE-DOSE,-0.5,Fellow Eye Visual Acuity Score (letters),FBCVA,77,77,letters,20/32,32,77,77,LAST,0,0,0 <= CHG <= 5,Y,-5 <= CHG <= -1,N,10 <= CHG <= 15,N,CHG <= -20,N,CHG <= 5,Y,CHG <= 10,Y,CHG >= -15,Y,CHG >= 15,N,,Y,Y,Y,,15,BEST CORRECTED VISUAL ACUITY,OVERALL EVALUATION,2014-01-02,BASELINE,3,1,77,77,77,Visual Acuity Score,VACSCORE,,LEFT,EYE,1,ETDRS EYE CHART,,,,PRE-DOSE,-0.5,RIGHT,Fellow Eye,
7,CDISCPILOT01,01-701-1015,OE,Placebo,Placebo,2014-01-02,2014-07-02,2014-01-30,29,Week 4,5,PRE-DOSE,-0.5,Fellow Eye Visual Acuity Score (letters),FBCVA,77,77,letters,20/32,32,77,77,LAST,0,0,0 <= CHG <= 5,Y,-5 <= CHG <= -1,N,10 <= CHG <= 15,N,CHG <= -20,N,CHG <= 5,Y,CHG <= 10,Y,CHG >= -15,Y,CHG >= 15,N,,,Y,,Y,23,BEST CORRECTED VISUAL ACUITY,OVERALL EVALUATION,2014-01-30,WEEK 4,5,28,77,77,77,Visual Acuity Score,VACSCORE,,LEFT,EYE,29,ETDRS EYE CHART,,,,PRE-DOSE,-0.5,RIGHT,Fellow Eye,
8,CDISCPILOT01,01-701-1015,OE,Placebo,Placebo,2014-01-02,2014-07-02,2014-03-05,63,Week 8,8,PRE-DOSE,-0.5,Fellow Eye Visual Acuity Score (letters),FBCVA,92,92,letters,20/16,16,77,77,LAST,15,19.480519480519483,0 <= CHG <= 5,N,-5 <= CHG <= -1,N,10 <= CHG <= 15,Y,CHG <= -20,N,CHG <= 5,N,CHG <= 10,N,CHG >= -15,Y,CHG >= 15,Y,,,Y,,Y,39,BEST CORRECTED VISUAL ACUITY,OVERALL EVALUATION,2014-03-05,WEEK 8,8,56,92,92,92,Visual Acuity Score,VACSCORE,,LEFT,EYE,63,ETDRS EYE CHART,,,,PRE-DOSE,-0.5,RIGHT,Fellow Eye,
9,CDISCPILOT01,01-701-1015,OE,Placebo,Placebo,2014-01-02,2014-07-02,2014-01-30,29,Week 4,5,PRE-DOSE,-0.5,Study Eye Visual Acuity Score (letters),SBCVA,24,24,letters,20/320,320,35,35,LAST,-11,-31.428571428571427,0 <= CHG <= 5,N,-5 <= CHG <= -1,N,10 <= CHG <= 15,N,CHG <= -20,N,CHG <= 5,Y,CHG <= 10,Y,CHG >= -15,Y,CHG >= 15,N,,,Y,,Y,24,BEST CORRECTED VISUAL ACUITY,OVERALL EVALUATION,2014-01-30,WEEK 4,5,28,24,24,24,Visual Acuity Score,VACSCORE,,RIGHT,EYE,29,ETDRS EYE CHART,,,,PRE-DOSE,-0.5,RIGHT,Study Eye,Y
10,CDISCPILOT01,01-701-1015,OE,Placebo,Placebo,2014-01-02,2014-07-02,2014-03-05,63,Week 8,8,PRE-DOSE,-0.5,Study Eye Visual Acuity Score (letters),SBCVA,31,31,letters,20/250,250,35,35,LAST,-4,-11.428571428571429,0 <= CHG <= 5,N,-5 <= CHG <= -1,Y,10 <= CHG <= 15,N,CHG <= -20,N,CHG <= 5,Y,CHG <= 10,Y,CHG >= -15,Y,CHG >= 15,N,,,Y,,Y,40,BEST CORRECTED VISUAL ACUITY,OVERALL EVALUATION,2014-03-05,WEEK 8,8,56,31,31,31,Visual Acuity Score,VACSCORE,,RIGHT,EYE,63,ETDRS EYE CHART,,,,PRE-DOSE,-0.5,RIGHT,Study Eye,
11,CDISCPILOT01,01-701-1015,OE,Placebo,Placebo,2014-01-02,2014-07-02,2014-01-02,1,Baseline,3,PRE-DOSE,-0.5,Study Eye Visual Acuity Score (letters),SBCVA,35,35,letters,20/200,200,35,35,LAST,0,0,0 <= CHG <= 5,Y,-5 <= CHG <= -1,N,10 <= CHG <= 15,N,CHG <= -20,N,CHG <= 5,Y,CHG <= 10,Y,CHG >= -15,Y,CHG >= 15,N,,Y,Y,Y,,16,BEST CORRECTED VISUAL ACUITY,OVERALL EVALUATION,2014-01-02,BASELINE,3,1,35,35,35,Visual Acuity Score,VACSCORE,,RIGHT,EYE,1,ETDRS EYE CHART,,,,PRE-DOSE,-0.5,RIGHT,Study Eye,
12,CDISCPILOT01,01-701-1015,OE,Placebo,Placebo,2014-01-02,2014-07-02,2014-05-07,126,Week 16,10,PRE-DOSE,-0.5,Study Eye Visual Acuity Score (letters),SBCVA,35,35,letters,20/200,200,35,35,LAST,0,0,0 <= CHG <= 5,Y,-5 <= CHG <= -1,N,10 <= CHG <= 15,N,CHG <= -20,N,CHG <= 5,Y,CHG <= 10,Y,CHG >= -15,Y,CHG >= 15,N,,,Y,,Y,56,BEST CORRECTED VISUAL ACUITY,OVERALL EVALUATION,2014-05-07,WEEK 16,10,112,35,35,35,Visual Acuity Score,VACSCORE,,RIGHT,EYE,126,ETDRS EYE CHART,,,,PRE-DOSE,-0.5,RIGHT,Study Eye,
13,CDISCPILOT01,01-701-1015,OE,Placebo,Placebo,2014-01-02,2014-07-02,2014-02-12,42,Week 6,7,PRE-DOSE,-0.5,Study Eye Visual Acuity Score (letters),SBCVA,62,62,letters,20/63,63,35,35,LAST,27,77.14285714285715,0 <= CHG <= 5,N,-5 <= CHG <= -1,N,10 <= CHG <= 15,N,CHG <= -20,N,CHG <= 5,N,CHG <= 10,N,CHG >= -15,Y,CHG >= 15,Y,,,Y,,Y,32,BEST CORRECTED VISUAL ACUITY,OVERALL EVALUATION,2014-02-12,WEEK 6,7,42,62,62,62,Visual Acuity Score,VACSCORE,,RIGHT,EYE,42,ETDRS EYE CHART,,,,PRE-DOSE,-0.5,RIGHT,Study Eye,
14,CDISCPILOT01,01-701-1015,OE,Placebo,Placebo,2014-01-02,2014-07-02,2014-05-21,140,Week 20,11,PRE-DOSE,-0.5,Study Eye Visual Acuity Score (letters),SBCVA,69,69,letters,20/40,40,35,35,LAST,34,97.14285714285714,0 <= CHG <= 5,N,-5 <= CHG <= -1,N,10 <= CHG <= 15,N,CHG <= -20,N,CHG <= 5,N,CHG <= 10,N,CHG >= -15,Y,CHG >= 15,Y,,,Y,,Y,64,BEST CORRECTED VISUAL ACUITY,OVERALL EVALUATION,2014-05-21,WEEK 20,11,140,69,69,69,Visual Acuity Score,VACSCORE,,RIGHT,EYE,140,ETDRS EYE CHART,,,,PRE-DOSE,-0.5,RIGHT,Study Eye,
15,CDISCPILOT01,01-701-1015,OE,Placebo,Placebo,2014-01-02,2014-07-02,2014-03-26,84,Week 12,9,PRE-DOSE,-0.5,Study Eye Visual Acuity Score (letters),SBCVA,84,84,letters,20/20,20,35,35,LAST,49,140,0 <= CHG <= 5,N,-5 <= CHG <= -1,N,10 <= CHG <= 15,N,CHG <= -20,N,CHG <= 5,N,CHG <= 10,N,CHG >= -15,Y,CHG >= 15,Y,,,Y,,Y,48,BEST CORRECTED VISUAL ACUITY,OVERALL EVALUATION,2014-03-26,WEEK 12,9,84,84,84,84,Visual Acuity Score,VACSCORE,,RIGHT,EYE,84,ETDRS EYE CHART,,,,PRE-DOSE,-0.5,RIGHT,Study Eye,
16,CDISCPILOT01,01-701-1015,OE,Placebo,Placebo,2014-01-02,2014-07-02,2014-06-18,168,Week 24,12,PRE-DOSE,-0.5,Study Eye Visual Acuity Score (letters),SBCVA,88,88,letters,20/20,20,35,35,LAST,53,151.42857142857142,0 <= CHG <= 5,N,-5 <= CHG <= -1,N,10 <= CHG <= 15,N,CHG <= -20,N,CHG <= 5,N,CHG <= 10,N,CHG >= -15,Y,CHG >= 15,Y,,,Y,Y,Y,72,BEST CORRECTED VISUAL ACUITY,OVERALL EVALUATION,2014-06-18,WEEK 24,12,168,88,88,88,Visual Acuity Score,VACSCORE,,RIGHT,EYE,168,ETDRS EYE CHART,,,,PRE-DOSE,-0.5,RIGHT,Study Eye,
17,CDISCPILOT01,01-701-1023,OE,Placebo,Placebo,2012-08-05,2012-09-01,2012-08-05,1,Baseline,3,PRE-DOSE,-0.5,Fellow Eye Visual Acuity Score (letters),FBCVA,57,57,letters,20/80,80,57,57,LAST,0,0,0 <= CHG <= 5,Y,-5 <= CHG <= -1,N,10 <= CHG <= 15,N,CHG <= -20,N,CHG <= 5,Y,CHG <= 10,Y,CHG >= -15,Y,CHG >= 15,N,,Y,Y,Y,,16,BEST CORRECTED VISUAL ACUITY,OVERALL EVALUATION,2012-08-05,BASELINE,3,1,57,57,57,Visual Acuity Score,VACSCORE,,RIGHT,EYE,1,ETDRS EYE CHART,,,,PRE-DOSE,-0.5,LEFT,Fellow Eye,Y
18,CDISCPILOT01,01-701-1023,OE,Placebo,Placebo,2012-08-05,2012-09-01,2012-08-05,1,Baseline,3,PRE-DOSE,-0.5,Study Eye Visual Acuity Score (letters),SBCVA,38,38,letters,20/200,200,38,38,LAST,0,0,0 <= CHG <= 5,Y,-5 <= CHG <= -1,N,10 <= CHG <= 15,N,CHG <= -20,N,CHG <= 5,Y,CHG <= 10,Y,CHG >= -15,Y,CHG >= 15,N,,Y,Y,Y,,15,BEST CORRECTED VISUAL ACUITY,OVERALL EVALUATION,2012-08-05,BASELINE,3,1,38,38,38,Visual Acuity Score,VACSCORE,,LEFT,EYE,1,ETDRS EYE CHART,,,,PRE-DOSE,-0.5,LEFT,Study Eye,Y
19,CDISCPILOT01,01-701-1028,OE,Xanomeline High Dose,Xanomeline High Dose,2013-07-19,2014-01-14,2014-01-06,172,Week 24,12,PRE-DOSE,-0.5,Fellow Eye Visual Acuity Score (letters),FBCVA,2,2,letters,< 20/800,1000,63,63,LAST,-61,-96.82539682539682,0 <= CHG <= 5,N,-5 <= CHG <= -1,N,10 <= CHG <= 15,N,CHG <= -20,Y,CHG <= 5,Y,CHG <= 10,Y,CHG >= -15,N,CHG >= 15,N,,,Y,Y,Y,80,BEST CORRECTED VISUAL ACUITY,OVERALL EVALUATION,2014-01-06,WEEK 24,12,168,2,2,2,Visual Acuity Score,VACSCORE,,RIGHT,EYE,172,ETDRS EYE CHART,,,,PRE-DOSE,-0.5,LEFT,Fellow Eye,Y
20,CDISCPILOT01,01-701-1028,OE,Xanomeline High Dose,Xanomeline High Dose,2013-07-19,2014-01-14,2013-11-06,111,Week 16,10,PRE-DOSE,-0.5,Fellow Eye Visual Acuity Score (letters),FBCVA,24,24,letters,20/320,320,63,63,LAST,-39,-61.904761904761905,0 <= CHG <= 5,N,-5 <= CHG <= -1,N,10 <= CHG <= 15,N,CHG <= -20,Y,CHG <= 5,Y,CHG <= 10,Y,CHG >= -15,N,CHG >= 15,N,,,Y,,Y,64,BEST CORRECTED VISUAL ACUITY,OVERALL EVALUATION,2013-11-06,WEEK 16,10,112,24,24,24,Visual Acuity Score,VACSCORE,,RIGHT,EYE,111,ETDRS EYE CHART,,,,PRE-DOSE,-0.5,LEFT,Fellow Eye,
21,CDISCPILOT01,01-701-1028,OE,Xanomeline High Dose,Xanomeline High Dose,2013-07-19,2014-01-14,2013-12-04,139,Week 20,11,PRE-DOSE,-0.5,Fellow Eye Visual Acuity Score (letters),FBCVA,29,29,letters,20/250,250,63,63,LAST,-34,-53.96825396825397,0 <= CHG <= 5,N,-5 <= CHG <= -1,N,10 <= CHG <= 15,N,CHG <= -20,Y,CHG <= 5,Y,CHG <= 10,Y,CHG >= -15,N,CHG >= 15,N,,,Y,,Y,72,BEST CORRECTED VISUAL ACUITY,OVERALL EVALUATION,2013-12-04,WEEK 20,11,140,29,29,29,Visual Acuity Score,VACSCORE,,RIGHT,EYE,139,ETDRS EYE CHART,,,,PRE-DOSE,-0.5,LEFT,Fellow Eye,
22,CDISCPILOT01,01-701-1028,OE,Xanomeline High Dose,Xanomeline High Dose,2013-07-19,2014-01-14,2013-08-14,27,Week 4,5,PRE-DOSE,-0.5,Fellow Eye Visual Acuity Score (letters),FBCVA,34,34,letters,20/200,200,63,63,LAST,-29,-46.03174603174603,0 <= CHG <= 5,N,-5 <= CHG <= -1,N,10 <= CHG <= 15,N,CHG <= -20,Y,CHG <= 5,Y,CHG <= 10,Y,CHG >= -15,N,CHG >= 15,N,,,Y,,Y,24,BEST CORRECTED VISUAL ACUITY,OVERALL EVALUATION,2013-08-14,WEEK 4,5,28,34,34,34,Visual Acuity Score,VACSCORE,,RIGHT,EYE,27,ETDRS EYE CHART,,,,PRE-DOSE,-0.5,LEFT,Fellow Eye,
23,CDISCPILOT01,01-701-1028,OE,Xanomeline High Dose,Xanomeline High Dose,2013-07-19,2014-01-14,2013-09-10,54,Week 8,8,PRE-DOSE,-0.5,Fellow Eye Visual Acuity Score (letters),FBCVA,54,54,letters,20/80,80,63,63,LAST,-9,-14.285714285714285,0 <= CHG <= 5,N,-5 <= CHG <= -1,N,10 <= CHG <= 15,N,CHG <= -20,N,CHG <= 5,Y,CHG <= 10,Y,CHG >= -15,Y,CHG >= 15,N,,,Y,,Y,40,BEST CORRECTED VISUAL ACUITY,OVERALL EVALUATION,2013-09-10,WEEK 8,8,56,54,54,54,Visual Acuity Score,VACSCORE,,RIGHT,EYE,54,ETDRS EYE CHART,,,,PRE-DOSE,-0.5,LEFT,Fellow Eye,
24,CDISCPILOT01,01-701-1028,OE,Xanomeline High Dose,Xanomeline High Dose,2013-07-19,2014-01-14,2013-10-09,83,Week 12,9,PRE-DOSE,-0.5,Fellow Eye Visual Acuity Score (letters),FBCVA,58,58,letters,20/80,80,63,63,LAST,-5,-7.936507936507936,0 <= CHG <= 5,N,-5 <= CHG <= -1,Y,10 <= CHG <= 15,N,CHG <= -20,N,CHG <= 5,Y,CHG <= 10,Y,CHG >= -15,Y,CHG >= 15,N,,,Y,,Y,56,BEST CORRECTED VISUAL ACUITY,OVERALL EVALUATION,2013-10-09,WEEK 12,9,84,58,58,58,Visual Acuity Score,VACSCORE,,RIGHT,EYE,83,ETDRS EYE CHART,,,,PRE-DOSE,-0.5,LEFT,Fellow Eye,
25,CDISCPILOT01,01-701-1028,OE,Xanomeline High Dose,Xanomeline High Dose,2013-07-19,2014-01-14,2013-07-19,1,Baseline,3,PRE-DOSE,-0.5,Fellow Eye Visual Acuity Score (letters),FBCVA,63,63,letters,20/63,63,63,63,LAST,0,0,0 <= CHG <= 5,Y,-5 <= CHG <= -1,N,10 <= CHG <= 15,N,CHG <= -20,N,CHG <= 5,Y,CHG <= 10,Y,CHG >= -15,Y,CHG >= 15,N,,Y,Y,Y,,16,BEST CORRECTED VISUAL ACUITY,OVERALL EVALUATION,2013-07-19,BASELINE,3,1,63,63,63,Visual Acuity Score,VACSCORE,,RIGHT,EYE,1,ETDRS EYE CHART,,,,PRE-DOSE,-0.5,LEFT,Fellow Eye,
26,CDISCPILOT01,01-701-1028,OE,Xanomeline High Dose,Xanomeline High Dose,2013-07-19,2014-01-14,2013-08-29,42,Week 6,7,PRE-DOSE,-0.5,Fellow Eye Visual Acuity Score (letters),FBCVA,66,66,letters,20/50,50,63,63,LAST,3,4.761904761904762,0 <= CHG <= 5,Y,-5 <= CHG <= -1,N,10 <= CHG <= 15,N,CHG <= -20,N,CHG <= 5,Y,CHG <= 10,Y,CHG >= -15,Y,CHG >= 15,N,,,Y,,Y,32,BEST CORRECTED VISUAL ACUITY,OVERALL EVALUATION,2013-08-29,WEEK 6,7,42,66,66,66,Visual Acuity Score,VACSCORE,,RIGHT,EYE,42,ETDRS EYE CHART,,,,PRE-DOSE,-0.5,LEFT,Fellow Eye,
27,CDISCPILOT01,01-701-1028,OE,Xanomeline High Dose,Xanomeline High Dose,2013-07-19,2014-01-14,2013-09-24,68,Week 10 (T),8,PRE-DOSE,-0.5,Fellow Eye Visual Acuity Score (letters),FBCVA,87,87,letters,20/20,20,63,63,LAST,24,38.095238095238095,0 <= CHG <= 5,N,-5 <= CHG <= -1,N,10 <= CHG <= 15,N,CHG <= -20,N,CHG <= 5,N,CHG <= 10,N,CHG >= -15,Y,CHG >= 15,Y,,,Y,,Y,48,BEST CORRECTED VISUAL ACUITY,OVERALL EVALUATION,2013-09-24,WEEK 10 (T),8.1,70,87,87,87,Visual Acuity Score,VACSCORE,,RIGHT,EYE,68,ETDRS EYE CHART,,,,PRE-DOSE,-0.5,LEFT,Fellow Eye,
28,CDISCPILOT01,01-701-1028,OE,Xanomeline High Dose,Xanomeline High Dose,2013-07-19,2014-01-14,2013-09-10,54,Week 8,8,PRE-DOSE,-0.5,Study Eye Visual Acuity Score (letters),SBCVA,13,13,letters,20/640,640,44,44,LAST,-31,-70.45454545454545,0 <= CHG <= 5,N,-5 <= CHG <= -1,N,10 <= CHG <= 15,N,CHG <= -20,Y,CHG <= 5,Y,CHG <= 10,Y,CHG >= -15,N,CHG >= 15,N,,,Y,,Y,39,BEST CORRECTED VISUAL ACUITY,OVERALL EVALUATION,2013-09-10,WEEK 8,8,56,13,13,13,Visual Acuity Score,VACSCORE,,LEFT,EYE,54,ETDRS EYE CHART,,,,PRE-DOSE,-0.5,LEFT,Study Eye,Y
29,CDISCPILOT01,01-701-1028,OE,Xanomeline High Dose,Xanomeline High Dose,2013-07-19,2014-01-14,2013-12-04,139,Week 20,11,PRE-DOSE,-0.5,Study Eye Visual Acuity Score (letters),SBCVA,40,40,letters,20/160,160,44,44,LAST,-4,-9.090909090909092,0 <= CHG <= 5,N,-5 <= CHG <= -1,Y,10 <= CHG <= 15,N,CHG <= -20,N,CHG <= 5,Y,CHG <= 10,Y,CHG >= -15,Y,CHG >= 15,N,,,Y,,Y,71,BEST CORRECTED VISUAL ACUITY,OVERALL EVALUATION,2013-12-04,WEEK 20,11,140,40,40,40,Visual Acuity Score,VACSCORE,,LEFT,EYE,139,ETDRS EYE CHART,,,,PRE-DOSE,-0.5,LEFT,Study Eye,
30,CDISCPILOT01,01-701-1028,OE,Xanomeline High Dose,Xanomeline High Dose,2013-07-19,2014-01-14,2013-07-19,1,Baseline,3,PRE-DOSE,-0.5,Study Eye Visual Acuity Score (letters),SBCVA,44,44,letters,20/125,125,44,44,LAST,0,0,0 <= CHG <= 5,Y,-5 <= CHG <= -1,N,10 <= CHG <= 15,N,CHG <= -20,N,CHG <= 5,Y,CHG <= 10,Y,CHG >= -15,Y,CHG >= 15,N,,Y,Y,Y,,15,BEST CORRECTED VISUAL ACUITY,OVERALL EVALUATION,2013-07-19,BASELINE,3,1,44,44,44,Visual Acuity Score,VACSCORE,,LEFT,EYE,1,ETDRS EYE CHART,,,,PRE-DOSE,-0.5,LEFT,Study Eye,
31,CDISCPILOT01,01-701-1028,OE,Xanomeline High Dose,Xanomeline High Dose,2013-07-19,2014-01-14,2013-09-24,68,Week 10 (T),8,PRE-DOSE,-0.5,Study Eye Visual Acuity Score (letters),SBCVA,46,46,letters,20/125,125,44,44,LAST,2,4.545454545454546,0 <= CHG <= 5,Y,-5 <= CHG <= -1,N,10 <= CHG <= 15,N,CHG <= -20,N,CHG <= 5,Y,CHG <= 10,Y,CHG >= -15,Y,CHG >= 15,N,,,Y,,Y,47,BEST CORRECTED VISUAL ACUITY,OVERALL EVALUATION,2013-09-24,WEEK 10 (T),8.1,70,46,46,46,Visual Acuity Score,VACSCORE,,LEFT,EYE,68,ETDRS EYE CHART,,,,PRE-DOSE,-0.5,LEFT,Study Eye,
32,CDISCPILOT01,01-701-1028,OE,Xanomeline High Dose,Xanomeline High Dose,2013-07-19,2014-01-14,2014-01-06,172,Week 24,12,PRE-DOSE,-0.5,Study Eye Visual Acuity Score (letters),SBCVA,47,47,letters,20/125,125,44,44,LAST,3,6.8181818181818175,0 <= CHG <= 5,Y,-5 <= CHG <= -1,N,10 <= CHG <= 15,N,CHG <= -20,N,CHG <= 5,Y,CHG <= 10,Y,CHG >= -15,Y,CHG >= 15,N,,,Y,Y,Y,79,BEST CORRECTED VISUAL ACUITY,OVERALL EVALUATION,2014-01-06,WEEK 24,12,168,47,47,47,Visual Acuity Score,VACSCORE,,LEFT,EYE,172,ETDRS EYE CHART,,,,PRE-DOSE,-0.5,LEFT,Study Eye,
33,CDISCPILOT01,01-701-1028,OE,Xanomeline High Dose,Xanomeline High Dose,2013-07-19,2014-01-14,2013-08-29,42,Week 6,7,PRE-DOSE,-0.5,Study Eye Visual Acuity Score (letters),SBCVA,49,49,letters,20/100,100,44,44,LAST,5,11.363636363636363,0 <= CHG <= 5,Y,-5 <= CHG <= -1,N,10 <= CHG <= 15,N,CHG <= -20,N,CHG <= 5,Y,CHG <= 10,Y,CHG >= -15,Y,CHG >= 15,N,,,Y,,Y,31,BEST CORRECTED VISUAL ACUITY,OVERALL EVALUATION,2013-08-29,WEEK 6,7,42,49,49,49,Visual Acuity Score,VACSCORE,,LEFT,EYE,42,ETDRS EYE CHART,,,,PRE-DOSE,-0.5,LEFT,Study Eye,
34,CDISCPILOT01,01-701-1028,OE,Xanomeline High Dose,Xanomeline High Dose,2013-07-19,2014-01-14,2013-10-09,83,Week 12,9,PRE-DOSE,-0.5,Study Eye Visual Acuity Score (letters),SBCVA,61,61,letters,20/63,63,44,44,LAST,17,38.63636363636363,0 <= CHG <= 5,N,-5 <= CHG <= -1,N,10 <= CHG <= 15,N,CHG <= -20,N,CHG <= 5,N,CHG <= 10,N,CHG >= -15,Y,CHG >= 15,Y,,,Y,,Y,55,BEST CORRECTED VISUAL ACUITY,OVERALL EVALUATION,2013-10-09,WEEK 12,9,84,61,61,61,Visual Acuity Score,VACSCORE,,LEFT,EYE,83,ETDRS EYE CHART,,,,PRE-DOSE,-0.5,LEFT,Study Eye,
35,CDISCPILOT01,01-701-1028,OE,Xanomeline High Dose,Xanomeline High Dose,2013-07-19,2014-01-14,2013-11-06,111,Week 16,10,PRE-DOSE,-0.5,Study Eye Visual Acuity Score (letters),SBCVA,75,75,letters,20/32,32,44,44,LAST,31,70.45454545454545,0 <= CHG <= 5,N,-5 <= CHG <= -1,N,10 <= CHG <= 15,N,CHG <= -20,N,CHG <= 5,N,CHG <= 10,N,CHG >= -15,Y,CHG >= 15,Y,,,Y,,Y,63,BEST CORRECTED VISUAL ACUITY,OVERALL EVALUATION,2013-11-06,WEEK 16,10,112,75,75,75,Visual Acuity Score,VACSCORE,,LEFT,EYE,111,ETDRS EYE CHART,,,,PRE-DOSE,-0.5,LEFT,Study Eye,
36,CDISCPILOT01,01-701-1028,OE,Xanomeline High Dose,Xanomeline High Dose,2013-07-19,2014-01-14,2013-08-14,27,Week 4,5,PRE-DOSE,-0.5,Study Eye Visual Acuity Score (letters),SBCVA,76,76,letters,20/32,32,44,44,LAST,32,72.72727272727273,0 <= CHG <= 5,N,-5 <= CHG <= -1,N,10 <= CHG <= 15,N,CHG <= -20,N,CHG <= 5,N,CHG <= 10,N,CHG >= -15,Y,CHG >= 15,Y,,,Y,,Y,23,BEST CORRECTED VISUAL ACUITY,OVERALL EVALUATION,2013-08-14,WEEK 4,5,28,76,76,76,Visual Acuity Score,VACSCORE,,LEFT,EYE,27,ETDRS EYE CHART,,,,PRE-DOSE,-0.5,LEFT,Study Eye,
37,CDISCPILOT01,01-701-1033,OE,Xanomeline Low Dose,Xanomeline Low Dose,2014-03-18,2014-03-31,2014-03-18,1,Baseline,3,PRE-DOSE,-0.5,Fellow Eye Visual Acuity Score (letters),FBCVA,18,18,letters,20/500,500,18,18,LAST,0,0,0 <= CHG <= 5,Y,-5 <= CHG <= -1,N,10 <= CHG <= 15,N,CHG <= -20,N,CHG <= 5,Y,CHG <= 10,Y,CHG >= -15,Y,CHG >= 15,N,,Y,Y,Y,,15,BEST CORRECTED VISUAL ACUITY,OVERALL EVALUATION,2014-03-18,BASELINE,3,1,18,18,18,Visual Acuity Score,VACSCORE,,LEFT,EYE,1,ETDRS EYE CHART,,,,PRE-DOSE,-0.5,RIGHT,Fellow Eye,Y
38,CDISCPILOT01,01-701-1033,OE,Xanomeline Low Dose,Xanomeline Low Dose,2014-03-18,2014-03-31,2014-03-18,1,Baseline,3,PRE-DOSE,-0.5,Study Eye Visual Acuity Score (letters),SBCVA,3,3,letters,< 20/800,1000,3,3,LAST,0,0,0 <= CHG <= 5,Y,-5 <= CHG <= -1,N,10 <= CHG <= 15,N,CHG <= -20,N,CHG <= 5,Y,CHG <= 10,Y,CHG >= -15,Y,CHG >= 15,N,,Y,Y,Y,,16,BEST CORRECTED VISUAL ACUITY,OVERALL EVALUATION,2014-03-18,BASELINE,3,1,3,3,3,Visual Acuity Score,VACSCORE,,RIGHT,EYE,1,ETDRS EYE CHART,,,,PRE-DOSE,-0.5,RIGHT,Study Eye,Y
39,CDISCPILOT01,01-701-1034,OE,Xanomeline High Dose,Xanomeline High Dose,2014-07-01,2014-12-30,2014-12-17,170,Week 24,12,PRE-DOSE,-0.5,Fellow Eye Visual Acuity Score (letters),FBCVA,12,12,letters,20/640,640,56,56,LAST,-44,-78.57142857142857,0 <= CHG <= 5,N,-5 <= CHG <= -1,N,10 <= CHG <= 15,N,CHG <= -20,Y,CHG <= 5,Y,CHG <= 10,Y,CHG >= -15,N,CHG >= 15,N,,,Y,Y,Y,80,BEST CORRECTED VISUAL ACUITY,OVERALL EVALUATION,2014-12-17,WEEK 24,12,168,12,12,12,Visual Acuity Score,VACSCORE,,RIGHT,EYE,170,ETDRS EYE CHART,,,,PRE-DOSE,-0.5,LEFT,Fellow Eye,Y
40,CDISCPILOT01,01-701-1034,OE,Xanomeline High Dose,Xanomeline High Dose,2014-07-01,2014-12-30,2014-07-01,1,Baseline,3,PRE-DOSE,-0.5,Fellow Eye Visual Acuity Score (letters),FBCVA,56,56,letters,20/80,80,56,56,LAST,0,0,0 <= CHG <= 5,Y,-5 <= CHG <= -1,N,10 <= CHG <= 15,N,CHG <= -20,N,CHG <= 5,Y,CHG <= 10,Y,CHG >= -15,Y,CHG >= 15,N,,Y,Y,Y,,16,BEST CORRECTED VISUAL ACUITY,OVERALL EVALUATION,2014-07-01,BASELINE,3,1,56,56,56,Visual Acuity Score,VACSCORE,,RIGHT,EYE,1,ETDRS EYE CHART,,,,PRE-DOSE,-0.5,LEFT,Fellow Eye,
41,CDISCPILOT01,01-701-1034,OE,Xanomeline High Dose,Xanomeline High Dose,2014-07-01,2014-12-30,2014-09-25,87,Week 12,9,PRE-DOSE,-0.5,Fellow Eye Visual Acuity Score (letters),FBCVA,58,58,letters,20/80,80,56,56,LAST,2,3.571428571428571,0 <= CHG <= 5,Y,-5 <= CHG <= -1,N,10 <= CHG <= 15,N,CHG <= -20,N,CHG <= 5,Y,CHG <= 10,Y,CHG >= -15,Y,CHG >= 15,N,,,Y,,Y,56,BEST CORRECTED VISUAL ACUITY,OVERALL EVALUATION,2014-09-25,WEEK 12,9,84,58,58,58,Visual Acuity Score,VACSCORE,,RIGHT,EYE,87,ETDRS EYE CHART,,,,PRE-DOSE,-0.5,LEFT,Fellow Eye,
42,CDISCPILOT01,01-701-1034,OE,Xanomeline High Dose,Xanomeline High Dose,2014-07-01,2014-12-30,2014-08-26,57,Week 8,8,PRE-DOSE,-0.5,Fellow Eye Visual Acuity Score (letters),FBCVA,61,61,letters,20/63,63,56,56,LAST,5,8.928571428571429,0 <= CHG <= 5,Y,-5 <= CHG <= -1,N,10 <= CHG <= 15,N,CHG <= -20,N,CHG <= 5,Y,CHG <= 10,Y,CHG >= -15,Y,CHG >= 15,N,,,Y,,Y,40,BEST CORRECTED VISUAL ACUITY,OVERALL EVALUATION,2014-08-26,WEEK 8,8,56,61,61,61,Visual Acuity Score,VACSCORE,,RIGHT,EYE,57,ETDRS EYE CHART,,,,PRE-DOSE,-0.5,LEFT,Fellow Eye,
43,CDISCPILOT01,01-701-1034,OE,Xanomeline High Dose,Xanomeline High Dose,2014-07-01,2014-12-30,2014-07-29,29,Week 4,5,PRE-DOSE,-0.5,Fellow Eye Visual Acuity Score (letters),FBCVA,65,65,letters,20/50,50,56,56,LAST,9,16.071428571428573,0 <= CHG <= 5,N,-5 <= CHG <= -1,N,10 <= CHG <= 15,N,CHG <= -20,N,CHG <= 5,N,CHG <= 10,Y,CHG >= -15,Y,CHG >= 15,N,,,Y,,Y,24,BEST CORRECTED VISUAL ACUITY,OVERALL EVALUATION,2014-07-29,WEEK 4,5,28,65,65,65,Visual Acuity Score,VACSCORE,,RIGHT,EYE,29,ETDRS EYE CHART,,,,PRE-DOSE,-0.5,LEFT,Fellow Eye,
44,CDISCPILOT01,01-701-1034,OE,Xanomeline High Dose,Xanomeline High Dose,2014-07-01,2014-12-30,2014-09-09,71,Week 10 (T),8,PRE-DOSE,-0.5,Fellow Eye Visual Acuity Score (letters),FBCVA,68,68,letters,20/50,50,56,56,LAST,12,21.428571428571427,0 <= CHG <= 5,N,-5 <= CHG <= -1,N,10 <= CHG <= 15,Y,CHG <= -20,N,CHG <= 5,N,CHG <= 10,N,CHG >= -15,Y,CHG >= 15,N,,,Y,,Y,48,BEST CORRECTED VISUAL ACUITY,OVERALL EVALUATION,2014-09-09,WEEK 10 (T),8.1,70,68,68,68,Visual Acuity Score,VACSCORE,,RIGHT,EYE,71,ETDRS EYE CHART,,,,PRE-DOSE,-0.5,LEFT,Fellow Eye,
45,CDISCPILOT01,01-701-1034,OE,Xanomeline High Dose,Xanomeline High Dose,2014-07-01,2014-12-30,2014-10-21,113,Week 16,10,PRE-DOSE,-0.5,Fellow Eye Visual Acuity Score (letters),FBCVA,79,79,letters,20/25,25,56,56,LAST,23,41.07142857142857,0 <= CHG <= 5,N,-5 <= CHG <= -1,N,10 <= CHG <= 15,N,CHG <= -20,N,CHG <= 5,N,CHG <= 10,N,CHG >= -15,Y,CHG >= 15,Y,,,Y,,Y,64,BEST CORRECTED VISUAL ACUITY,OVERALL EVALUATION,2014-10-21,WEEK 16,10,112,79,79,79,Visual Acuity Score,VACSCORE,,RIGHT,EYE,113,ETDRS EYE CHART,,,,PRE-DOSE,-0.5,LEFT,Fellow Eye,
46,CDISCPILOT01,01-701-1034,OE,Xanomeline High Dose,Xanomeline High Dose,2014-07-01,2014-12-30,2014-11-18,141,Week 20,11,PRE-DOSE,-0.5,Fellow Eye Visual Acuity Score (letters),FBCVA,91,91,letters,20/16,16,56,56,LAST,35,62.5,0 <= CHG <= 5,N,-5 <= CHG <= -1,N,10 <= CHG <= 15,N,CHG <= -20,N,CHG <= 5,N,CHG <= 10,N,CHG >= -15,Y,CHG >= 15,Y,,,Y,,Y,72,BEST CORRECTED VISUAL ACUITY,OVERALL EVALUATION,2014-11-18,WEEK 20,11,140,91,91,91,Visual Acuity Score,VACSCORE,,RIGHT,EYE,141,ETDRS EYE CHART,,,,PRE-DOSE,-0.5,LEFT,Fellow Eye,
47,CDISCPILOT01,01-701-1034,OE,Xanomeline High Dose,Xanomeline High Dose,2014-07-01,2014-12-30,2014-08-11,42,Week 6,7,PRE-DOSE,-0.5,Fellow Eye Visual Acuity Score (letters),FBCVA,93,93,letters,20/16,16,56,56,LAST,37,66.07142857142857,0 <= CHG <= 5,N,-5 <= CHG <= -1,N,10 <= CHG <= 15,N,CHG <= -20,N,CHG <= 5,N,CHG <= 10,N,CHG >= -15,Y,CHG >= 15,Y,,,Y,,Y,32,BEST CORRECTED VISUAL ACUITY,OVERALL EVALUATION,2014-08-11,WEEK 6,7,42,93,93,93,Visual Acuity Score,VACSCORE,,RIGHT,EYE,42,ETDRS EYE CHART,,,,PRE-DOSE,-0.5,LEFT,Fellow Eye,
48,CDISCPILOT01,01-701-1034,OE,Xanomeline High Dose,Xanomeline High Dose,2014-07-01,2014-12-30,2014-12-17,170,Week 24,12,PRE-DOSE,-0.5,Study Eye Visual Acuity Score (letters),SBCVA,9,9,letters,20/640,640,36,36,LAST,-27,-75,0 <= CHG <= 5,N,-5 <= CHG <= -1,N,10 <= CHG <= 15,N,CHG <= -20,Y,CHG <= 5,Y,CHG <= 10,Y,CHG >= -15,N,CHG >= 15,N,,,Y,Y,Y,79,BEST CORRECTED VISUAL ACUITY,OVERALL EVALUATION,2014-12-17,WEEK 24,12,168,9,9,9,Visual Acuity Score,VACSCORE,,LEFT,EYE,170,ETDRS EYE CHART,,,,PRE-DOSE,-0.5,LEFT,Study Eye,Y
49,CDISCPILOT01,01-701-1034,OE,Xanomeline High Dose,Xanomeline High Dose,2014-07-01,2014-12-30,2014-09-25,87,Week 12,9,PRE-DOSE,-0.5,Study Eye Visual Acuity Score (letters),SBCVA,10,10,letters,20/640,640,36,36,LAST,-26,-72.22222222222221,0 <= CHG <= 5,N,-5 <= CHG <= -1,N,10 <= CHG <= 15,N,CHG <= -20,Y,CHG <= 5,Y,CHG <= 10,Y,CHG >= -15,N,CHG >= 15,N,,,Y,,Y,55,BEST CORRECTED VISUAL ACUITY,OVERALL EVALUATION,2014-09-25,WEEK 12,9,84,10,10,10,Visual Acuity Score,VACSCORE,,LEFT,EYE,87,ETDRS EYE CHART,,,,PRE-DOSE,-0.5,LEFT,Study Eye,
50,CDISCPILOT01,01-701-1034,OE,Xanomeline High Dose,Xanomeline High Dose,2014-07-01,2014-12-30,2014-09-09,71,Week 10 (T),8,PRE-DOSE,-0.5,Study Eye Visual Acuity Score (letters),SBCVA,19,19,letters,20/400,400,36,36,LAST,-17,-47.22222222222222,0 <= CHG <= 5,N,-5 <= CHG <= -1,N,10 <= CHG <= 15,N,CHG <= -20,N,CHG <= 5,Y,CHG <= 10,Y,CHG >= -15,N,CHG >= 15,N,,,Y,,Y,47,BEST CORRECTED VISUAL ACUITY,OVERALL EVALUATION,2014-09-09,WEEK 10 (T),8.1,70,19,19,19,Visual Acuity Score,VACSCORE,,LEFT,EYE,71,ETDRS EYE CHART,,,,PRE-DOSE,-0.5,LEFT,Study Eye,
51,CDISCPILOT01,01-701-1034,OE,Xanomeline High Dose,Xanomeline High Dose,2014-07-01,2014-12-30,2014-07-01,1,Baseline,3,PRE-DOSE,-0.5,Study Eye Visual Acuity Score (letters),SBCVA,36,36,letters,20/200,200,36,36,LAST,0,0,0 <= CHG <= 5,Y,-5 <= CHG <= -1,N,10 <= CHG <= 15,N,CHG <= -20,N,CHG <= 5,Y,CHG <= 10,Y,CHG >= -15,Y,CHG >= 15,N,,Y,Y,Y,,15,BEST CORRECTED VISUAL ACUITY,OVERALL EVALUATION,2014-07-01,BASELINE,3,1,36,36,36,Visual Acuity Score,VACSCORE,,LEFT,EYE,1,ETDRS EYE CHART,,,,PRE-DOSE,-0.5,LEFT,Study Eye,
52,CDISCPILOT01,01-701-1034,OE,Xanomeline High Dose,Xanomeline High Dose,2014-07-01,2014-12-30,2014-08-11,42,Week 6,7,PRE-DOSE,-0.5,Study Eye Visual Acuity Score (letters),SBCVA,48,48,letters,20/125,125,36,36,LAST,12,33.33333333333333,0 <= CHG <= 5,N,-5 <= CHG <= -1,N,10 <= CHG <= 15,Y,CHG <= -20,N,CHG <= 5,N,CHG <= 10,N,CHG >= -15,Y,CHG >= 15,N,,,Y,,Y,31,BEST CORRECTED VISUAL ACUITY,OVERALL EVALUATION,2014-08-11,WEEK 6,7,42,48,48,48,Visual Acuity Score,VACSCORE,,LEFT,EYE,42,ETDRS EYE CHART,,,,PRE-DOSE,-0.5,LEFT,Study Eye,
53,CDISCPILOT01,01-701-1034,OE,Xanomeline High Dose,Xanomeline High Dose,2014-07-01,2014-12-30,2014-10-21,113,Week 16,10,PRE-DOSE,-0.5,Study Eye Visual Acuity Score (letters),SBCVA,82,82,letters,20/25,25,36,36,LAST,46,127.77777777777777,0 <= CHG <= 5,N,-5 <= CHG <= -1,N,10 <= CHG <= 15,N,CHG <= -20,N,CHG <= 5,N,CHG <= 10,N,CHG >= -15,Y,CHG >= 15,Y,,,Y,,Y,63,BEST CORRECTED VISUAL ACUITY,OVERALL EVALUATION,2014-10-21,WEEK 16,10,112,82,82,82,Visual Acuity Score,VACSCORE,,LEFT,EYE,113,ETDRS EYE CHART,,,,PRE-DOSE,-0.5,LEFT,Study Eye,
54,CDISCPILOT01,01-701-1034,OE,Xanomeline High Dose,Xanomeline High Dose,2014-07-01,2014-12-30,2014-07-29,29,Week 4,5,PRE-DOSE,-0.5,Study Eye Visual Acuity Score (letters),SBCVA,85,85,letters,20/20,20,36,36,LAST,49,136.11111111111111,0 <= CHG <= 5,N,-5 <= CHG <= -1,N,10 <= CHG <= 15,N,CHG <= -20,N,CHG <= 5,N,CHG <= 10,N,CHG >= -15,Y,CHG >= 15,Y,,,Y,,Y,23,BEST CORRECTED VISUAL ACUITY,OVERALL EVALUATION,2014-07-29,WEEK 4,5,28,85,85,85,Visual Acuity Score,VACSCORE,,LEFT,EYE,29,ETDRS EYE CHART,,,,PRE-DOSE,-0.5,LEFT,Study Eye,
55,CDISCPILOT01,01-701-1034,OE,Xanomeline High Dose,Xanomeline High Dose,2014-07-01,2014-12-30,2014-08-26,57,Week 8,8,PRE-DOSE,-0.5,Study Eye Visual Acuity Score (letters),SBCVA,96,96,letters,20/12,12,36,36,LAST,60,166.66666666666669,0 <= CHG <= 5,N,-5 <= CHG <= -1,N,10 <= CHG <= 15,N,CHG <= -20,N,CHG <= 5,N,CHG <= 10,N,CHG >= -15,Y,CHG >= 15,Y,,,Y,,Y,39,BEST CORRECTED VISUAL ACUITY,OVERALL EVALUATION,2014-08-26,WEEK 8,8,56,96,96,96,Visual Acuity Score,VACSCORE,,LEFT,EYE,57,ETDRS EYE CHART,,,,PRE-DOSE,-0.5,LEFT,Study Eye,
56,CDISCPILOT01,01-701-1034,OE,Xanomeline High Dose,Xanomeline High Dose,2014-07-01,2014-12-30,2014-11-18,141,Week 20,11,PRE-DOSE,-0.5,Study Eye Visual Acuity Score (letters),SBCVA,99,99,letters,> 20/12,1,36,36,LAST,63,175,0 <= CHG <= 5,N,-5 <= CHG <= -1,N,10 <= CHG <= 15,N,CHG <= -20,N,CHG <= 5,N,CHG <= 10,N,CHG >= -15,Y,CHG >= 15,Y,,,Y,,Y,71,BEST CORRECTED VISUAL ACUITY,OVERALL EVALUATION,2014-11-18,WEEK 20,11,140,99,99,99,Visual Acuity Score,VACSCORE,,LEFT,EYE,141,ETDRS EYE CHART,,,,PRE-DOSE,-0.5,LEFT,Study Eye,
57,CDISCPILOT01,01-701-1047,OE,Placebo,Placebo,2013-02-12,2013-03-09,2013-02-12,1,Baseline,3,PRE-DOSE,-0.5,Fellow Eye Visual Acuity Score (letters),FBCVA,5,5,letters,20/800,800,5,5,LAST,0,0,0 <= CHG <= 5,Y,-5 <= CHG <= -1,N,10 <= CHG <= 15,N,CHG <= -20,N,CHG <= 5,Y,CHG <= 10,Y,CHG >= -15,Y,CHG >= 15,N,,Y,Y,Y,,16,BEST CORRECTED VISUAL ACUITY,OVERALL EVALUATION,2013-02-12,BASELINE,3,1,5,5,5,Visual Acuity Score,VACSCORE,,RIGHT,EYE,1,ETDRS EYE CHART,,,,PRE-DOSE,-0.5,LEFT,Fellow Eye,Y
58,CDISCPILOT01,01-701-1047,OE,Placebo,Placebo,2013-02-12,2013-03-09,2013-02-12,1,Baseline,3,PRE-DOSE,-0.5,Study Eye Visual Acuity Score (letters),SBCVA,58,58,letters,20/80,80,58,58,LAST,0,0,0 <= CHG <= 5,Y,-5 <= CHG <= -1,N,10 <= CHG <= 15,N,CHG <= -20,N,CHG <= 5,Y,CHG <= 10,Y,CHG >= -15,Y,CHG >= 15,N,,Y,Y,Y,,15,BEST CORRECTED VISUAL ACUITY,OVERALL EVALUATION,2013-02-12,BASELINE,3,1,58,58,58,Visual Acuity Score,VACSCORE,,LEFT,EYE,1,ETDRS EYE CHART,,,,PRE-DOSE,-0.5,LEFT,Study Eye,Y
59,CDISCPILOT01,01-701-1097,OE,Xanomeline Low Dose,Xanomeline Low Dose,2014-01-01,2014-07-09,2014-05-21,141,Week 20,11,PRE-DOSE,-0.5,Fellow Eye Visual Acuity Score (letters),FBCVA,6,6,letters,20/800,800,98,98,LAST,-92,-93.87755102040816,0 <= CHG <= 5,N,-5 <= CHG <= -1,N,10 <= CHG <= 15,N,CHG <= -20,Y,CHG <= 5,Y,CHG <= 10,Y,CHG >= -15,N,CHG >= 15,N,,,Y,,Y,64,BEST CORRECTED VISUAL ACUITY,OVERALL EVALUATION,2014-05-21,WEEK 20,11,140,6,6,6,Visual Acuity Score,VACSCORE,,RIGHT,EYE,141,ETDRS EYE CHART,,,,PRE-DOSE,-0.5,LEFT,Fellow Eye,Y
60,CDISCPILOT01,01-701-1097,OE,Xanomeline Low Dose,Xanomeline Low Dose,2014-01-01,2014-07-09,2014-04-23,113,Week 16,10,PRE-DOSE,-0.5,Fellow Eye Visual Acuity Score (letters),FBCVA,24,24,letters,20/320,320,98,98,LAST,-74,-75.51020408163265,0 <= CHG <= 5,N,-5 <= CHG <= -1,N,10 <= CHG <= 15,N,CHG <= -20,Y,CHG <= 5,Y,CHG <= 10,Y,CHG >= -15,N,CHG >= 15,N,,,Y,,Y,56,BEST CORRECTED VISUAL ACUITY,OVERALL EVALUATION,2014-04-23,WEEK 16,10,112,24,24,24,Visual Acuity Score,VACSCORE,,RIGHT,EYE,113,ETDRS EYE CHART,,,,PRE-DOSE,-0.5,LEFT,Fellow Eye,
61,CDISCPILOT01,01-701-1097,OE,Xanomeline Low Dose,Xanomeline Low Dose,2014-01-01,2014-07-09,2014-03-26,85,Week 12,9,PRE-DOSE,-0.5,Fellow Eye Visual Acuity Score (letters),FBCVA,56,56,letters,20/80,80,98,98,LAST,-42,-42.857142857142854,0 <= CHG <= 5,N,-5 <= CHG <= -1,N,10 <= CHG <= 15,N,CHG <= -20,Y,CHG <= 5,Y,CHG <= 10,Y,CHG >= -15,N,CHG >= 15,N,,,Y,,Y,48,BEST CORRECTED VISUAL ACUITY,OVERALL EVALUATION,2014-03-26,WEEK 12,9,84,56,56,56,Visual Acuity Score,VACSCORE,,RIGHT,EYE,85,ETDRS EYE CHART,,,,PRE-DOSE,-0.5,LEFT,Fellow Eye,
62,CDISCPILOT01,01-701-1097,OE,Xanomeline Low Dose,Xanomeline Low Dose,2014-01-01,2014-07-09,2014-02-11,42,Week 6,7,PRE-DOSE,-0.5,Fellow Eye Visual Acuity Score (letters),FBCVA,57,57,letters,20/80,80,98,98,LAST,-41,-41.83673469387755,0 <= CHG <= 5,N,-5 <= CHG <= -1,N,10 <= CHG <= 15,N,CHG <= -20,Y,CHG <= 5,Y,CHG <= 10,Y,CHG >= -15,N,CHG >= 15,N,,,Y,,Y,32,BEST CORRECTED VISUAL ACUITY,OVERALL EVALUATION,2014-02-11,WEEK 6,7,42,57,57,57,Visual Acuity Score,VACSCORE,,RIGHT,EYE,42,ETDRS EYE CHART,,,,PRE-DOSE,-0.5,LEFT,Fellow Eye,
63,CDISCPILOT01,01-701-1097,OE,Xanomeline Low Dose,Xanomeline Low Dose,2014-01-01,2014-07-09,2014-02-26,57,Week 8,8,PRE-DOSE,-0.5,Fellow Eye Visual Acuity Score (letters),FBCVA,59,59,letters,20/63,63,98,98,LAST,-39,-39.795918367346935,0 <= CHG <= 5,N,-5 <= CHG <= -1,N,10 <= CHG <= 15,N,CHG <= -20,Y,CHG <= 5,Y,CHG <= 10,Y,CHG >= -15,N,CHG >= 15,N,,,Y,,Y,40,BEST CORRECTED VISUAL ACUITY,OVERALL EVALUATION,2014-02-26,WEEK 8,8,56,59,59,59,Visual Acuity Score,VACSCORE,,RIGHT,EYE,57,ETDRS EYE CHART,,,,PRE-DOSE,-0.5,LEFT,Fellow Eye,
64,CDISCPILOT01,01-701-1097,OE,Xanomeline Low Dose,Xanomeline Low Dose,2014-01-01,2014-07-09,2014-01-29,29,Week 4,5,PRE-DOSE,-0.5,Fellow Eye Visual Acuity Score (letters),FBCVA,66,66,letters,20/50,50,98,98,LAST,-32,-32.6530612244898,0 <= CHG <= 5,N,-5 <= CHG <= -1,N,10 <= CHG <= 15,N,CHG <= -20,Y,CHG <= 5,Y,CHG <= 10,Y,CHG >= -15,N,CHG >= 15,N,,,Y,,Y,24,BEST CORRECTED VISUAL ACUITY,OVERALL EVALUATION,2014-01-29,WEEK 4,5,28,66,66,66,Visual Acuity Score,VACSCORE,,RIGHT,EYE,29,ETDRS EYE CHART,,,,PRE-DOSE,-0.5,LEFT,Fellow Eye,
65,CDISCPILOT01,01-701-1097,OE,Xanomeline Low Dose,Xanomeline Low Dose,2014-01-01,2014-07-09,2014-06-18,169,Week 24,12,PRE-DOSE,-0.5,Fellow Eye Visual Acuity Score (letters),FBCVA,73,73,letters,20/40,40,98,98,LAST,-25,-25.510204081632654,0 <= CHG <= 5,N,-5 <= CHG <= -1,N,10 <= CHG <= 15,N,CHG <= -20,Y,CHG <= 5,Y,CHG <= 10,Y,CHG >= -15,N,CHG >= 15,N,,,Y,Y,Y,72,BEST CORRECTED VISUAL ACUITY,OVERALL EVALUATION,2014-06-18,WEEK 24,12,168,73,73,73,Visual Acuity Score,VACSCORE,,RIGHT,EYE,169,ETDRS EYE CHART,,,,PRE-DOSE,-0.5,LEFT,Fellow Eye,
66,CDISCPILOT01,01-701-1097,OE,Xanomeline Low Dose,Xanomeline Low Dose,2014-01-01,2014-07-09,2014-01-01,1,Baseline,3,PRE-DOSE,-0.5,Fellow Eye Visual Acuity Score (letters),FBCVA,98,98,letters,> 20/12,1,98,98,LAST,0,0,0 <= CHG <= 5,Y,-5 <= CHG <= -1,N,10 <= CHG <= 15,N,CHG <= -20,N,CHG <= 5,Y,CHG <= 10,Y,CHG >= -15,Y,CHG >= 15,N,,Y,Y,Y,,16,BEST CORRECTED VISUAL ACUITY,OVERALL EVALUATION,2014-01-01,BASELINE,3,1,98,98,98,Visual Acuity Score,VACSCORE,,RIGHT,EYE,1,ETDRS EYE CHART,,,,PRE-DOSE,-0.5,LEFT,Fellow Eye,
67,CDISCPILOT01,01-701-1097,OE,Xanomeline Low Dose,Xanomeline Low Dose,2014-01-01,2014-07-09,2014-02-26,57,Week 8,8,PRE-DOSE,-0.5,Study Eye Visual Acuity Score (letters),SBCVA,23,23,letters,20/400,400,46,46,LAST,-23,-50,0 <= CHG <= 5,N,-5 <= CHG <= -1,N,10 <= CHG <= 15,N,CHG <= -20,Y,CHG <= 5,Y,CHG <= 10,Y,CHG >= -15,N,CHG >= 15,N,,,Y,,Y,39,BEST CORRECTED VISUAL ACUITY,OVERALL EVALUATION,2014-02-26,WEEK 8,8,56,23,23,23,Visual Acuity Score,VACSCORE,,LEFT,EYE,57,ETDRS EYE CHART,,,,PRE-DOSE,-0.5,LEFT,Study Eye,Y
68,CDISCPILOT01,01-701-1097,OE,Xanomeline Low Dose,Xanomeline Low Dose,2014-01-01,2014-07-09,2014-01-29,29,Week 4,5,PRE-DOSE,-0.5,Study Eye Visual Acuity Score (letters),SBCVA,26,26,letters,20/320,320,46,46,LAST,-20,-43.47826086956522,0 <= CHG <= 5,N,-5 <= CHG <= -1,N,10 <= CHG <= 15,N,CHG <= -20,Y,CHG <= 5,Y,CHG <= 10,Y,CHG >= -15,N,CHG >= 15,N,,,Y,,Y,23,BEST CORRECTED VISUAL ACUITY,OVERALL EVALUATION,2014-01-29,WEEK 4,5,28,26,26,26,Visual Acuity Score,VACSCORE,,LEFT,EYE,29,ETDRS EYE CHART,,,,PRE-DOSE,-0.5,LEFT,Study Eye,
69,CDISCPILOT01,01-701-1097,OE,Xanomeline Low Dose,Xanomeline Low Dose,2014-01-01,2014-07-09,2014-04-23,113,Week 16,10,PRE-DOSE,-0.5,Study Eye Visual Acuity Score (letters),SBCVA,29,29,letters,20/250,250,46,46,LAST,-17,-36.95652173913043,0 <= CHG <= 5,N,-5 <= CHG <= -1,N,10 <= CHG <= 15,N,CHG <= -20,N,CHG <= 5,Y,CHG <= 10,Y,CHG >= -15,N,CHG >= 15,N,,,Y,,Y,55,BEST CORRECTED VISUAL ACUITY,OVERALL EVALUATION,2014-04-23,WEEK 16,10,112,29,29,29,Visual Acuity Score,VACSCORE,,LEFT,EYE,113,ETDRS EYE CHART,,,,PRE-DOSE,-0.5,LEFT,Study Eye,
70,CDISCPILOT01,01-701-1097,OE,Xanomeline Low Dose,Xanomeline Low Dose,2014-01-01,2014-07-09,2014-01-01,1,Baseline,3,PRE-DOSE,-0.5,Study Eye Visual Acuity Score (letters),SBCVA,46,46,letters,20/125,125,46,46,LAST,0,0,0 <= CHG <= 5,Y,-5 <= CHG <= -1,N,10 <= CHG <= 15,N,CHG <= -20,N,CHG <= 5,Y,CHG <= 10,Y,CHG >= -15,Y,CHG >= 15,N,,Y,Y,Y,,15,BEST CORRECTED VISUAL ACUITY,OVERALL EVALUATION,2014-01-01,BASELINE,3,1,46,46,46,Visual Acuity Score,VACSCORE,,LEFT,EYE,1,ETDRS EYE CHART,,,,PRE-DOSE,-0.5,LEFT,Study Eye,
71,CDISCPILOT01,01-701-1097,OE,Xanomeline Low Dose,Xanomeline Low Dose,2014-01-01,2014-07-09,2014-05-21,141,Week 20,11,PRE-DOSE,-0.5,Study Eye Visual Acuity Score (letters),SBCVA,54,54,letters,20/80,80,46,46,LAST,8,17.391304347826086,0 <= CHG <= 5,N,-5 <= CHG <= -1,N,10 <= CHG <= 15,N,CHG <= -20,N,CHG <= 5,N,CHG <= 10,Y,CHG >= -15,Y,CHG >= 15,N,,,Y,,Y,63,BEST CORRECTED VISUAL ACUITY,OVERALL EVALUATION,2014-05-21,WEEK 20,11,140,54,54,54,Visual Acuity Score,VACSCORE,,LEFT,EYE,141,ETDRS EYE CHART,,,,PRE-DOSE,-0.5,LEFT,Study Eye,
72,CDISCPILOT01,01-701-1097,OE,Xanomeline Low Dose,Xanomeline Low Dose,2014-01-01,2014-07-09,2014-06-18,169,Week 24,12,PRE-DOSE,-0.5,Study Eye Visual Acuity Score (letters),SBCVA,69,69,letters,20/40,40,46,46,LAST,23,50,0 <= CHG <= 5,N,-5 <= CHG <= -1,N,10 <= CHG <= 15,N,CHG <= -20,N,CHG <= 5,N,CHG <= 10,N,CHG >= -15,Y,CHG >= 15,Y,,,Y,Y,Y,71,BEST CORRECTED VISUAL ACUITY,OVERALL EVALUATION,2014-06-18,WEEK 24,12,168,69,69,69,Visual Acuity Score,VACSCORE,,LEFT,EYE,169,ETDRS EYE CHART,,,,PRE-DOSE,-0.5,LEFT,Study Eye,
73,CDISCPILOT01,01-701-1097,OE,Xanomeline Low Dose,Xanomeline Low Dose,2014-01-01,2014-07-09,2014-02-11,42,Week 6,7,PRE-DOSE,-0.5,Study Eye Visual Acuity Score (letters),SBCVA,75,75,letters,20/32,32,46,46,LAST,29,63.04347826086957,0 <= CHG <= 5,N,-5 <= CHG <= -1,N,10 <= CHG <= 15,N,CHG <= -20,N,CHG <= 5,N,CHG <= 10,N,CHG >= -15,Y,CHG >= 15,Y,,,Y,,Y,31,BEST CORRECTED VISUAL ACUITY,OVERALL EVALUATION,2014-02-11,WEEK 6,7,42,75,75,75,Visual Acuity Score,VACSCORE,,LEFT,EYE,42,ETDRS EYE CHART,,,,PRE-DOSE,-0.5,LEFT,Study Eye,
74,CDISCPILOT01,01-701-1097,OE,Xanomeline Low Dose,Xanomeline Low Dose,2014-01-01,2014-07-09,2014-03-26,85,Week 12,9,PRE-DOSE,-0.5,Study Eye Visual Acuity Score (letters),SBCVA,94,94,letters,20/12,12,46,46,LAST,48,104.34782608695652,0 <= CHG <= 5,N,-5 <= CHG <= -1,N,10 <= CHG <= 15,N,CHG <= -20,N,CHG <= 5,N,CHG <= 10,N,CHG >= -15,Y,CHG >= 15,Y,,,Y,,Y,47,BEST CORRECTED VISUAL ACUITY,OVERALL EVALUATION,2014-03-26,WEEK 12,9,84,94,94,94,Visual Acuity Score,VACSCORE,,LEFT,EYE,85,ETDRS EYE CHART,,,,PRE-DOSE,-0.5,LEFT,Study Eye,
75,CDISCPILOT01,01-701-1111,OE,Xanomeline Low Dose,Xanomeline Low Dose,2012-09-07,2012-09-16,2012-09-07,1,Baseline,3,PRE-DOSE,-0.5,Fellow Eye Visual Acuity Score (letters),FBCVA,65,65,letters,20/50,50,65,65,LAST,0,0,0 <= CHG <= 5,Y,-5 <= CHG <= -1,N,10 <= CHG <= 15,N,CHG <= -20,N,CHG <= 5,Y,CHG <= 10,Y,CHG >= -15,Y,CHG >= 15,N,,Y,Y,Y,,15,BEST CORRECTED VISUAL ACUITY,OVERALL EVALUATION,2012-09-07,BASELINE,3,1,65,65,65,Visual Acuity Score,VACSCORE,,LEFT,EYE,1,ETDRS EYE CHART,,,,PRE-DOSE,-0.5,RIGHT,Fellow Eye,Y
76,CDISCPILOT01,01-701-1111,OE,Xanomeline Low Dose,Xanomeline Low Dose,2012-09-07,2012-09-16,2012-09-07,1,Baseline,3,PRE-DOSE,-0.5,Study Eye Visual Acuity Score (letters),SBCVA,74,74,letters,20/32,32,74,74,LAST,0,0,0 <= CHG <= 5,Y,-5 <= CHG <= -1,N,10 <= CHG <= 15,N,CHG <= -20,N,CHG <= 5,Y,CHG <= 10,Y,CHG >= -15,Y,CHG >= 15,N,,Y,Y,Y,,16,BEST CORRECTED VISUAL ACUITY,OVERALL EVALUATION,2012-09-07,BASELINE,3,1,74,74,74,Visual Acuity Score,VACSCORE,,RIGHT,EYE,1,ETDRS EYE CHART,,,,PRE-DOSE,-0.5,RIGHT,Study Eye,Y
77,CDISCPILOT01,01-701-1115,OE,Xanomeline Low Dose,Xanomeline Low Dose,2012-11-30,2013-01-23,2013-01-10,42,Week 6,7,PRE-DOSE,-0.5,Fellow Eye Visual Acuity Score (letters),FBCVA,8,8,letters,20/800,800,91,91,LAST,-83,-91.20879120879121,0 <= CHG <= 5,N,-5 <= CHG <= -1,N,10 <= CHG <= 15,N,CHG <= -20,Y,CHG <= 5,Y,CHG <= 10,Y,CHG >= -15,N,CHG >= 15,N,,,Y,,Y,32,BEST CORRECTED VISUAL ACUITY,OVERALL EVALUATION,2013-01-10,WEEK 6,7,42,8,8,8,Visual Acuity Score,VACSCORE,,RIGHT,EYE,42,ETDRS EYE CHART,,,,PRE-DOSE,-0.5,LEFT,Fellow Eye,Y
78,CDISCPILOT01,01-701-1115,OE,Xanomeline Low Dose,Xanomeline Low Dose,2012-11-30,2013-01-23,2012-12-26,27,Week 4,5,PRE-DOSE,-0.5,Fellow Eye Visual Acuity Score (letters),FBCVA,33,33,letters,20/250,250,91,91,LAST,-58,-63.73626373626373,0 <= CHG <= 5,N,-5 <= CHG <= -1,N,10 <= CHG <= 15,N,CHG <= -20,Y,CHG <= 5,Y,CHG <= 10,Y,CHG >= -15,N,CHG >= 15,N,,,Y,,Y,24,BEST CORRECTED VISUAL ACUITY,OVERALL EVALUATION,2012-12-26,WEEK 4,5,28,33,33,33,Visual Acuity Score,VACSCORE,,RIGHT,EYE,27,ETDRS EYE CHART,,,,PRE-DOSE,-0.5,LEFT,Fellow Eye,
79,CDISCPILOT01,01-701-1115,OE,Xanomeline Low Dose,Xanomeline Low Dose,2012-11-30,2013-01-23,2013-01-23,55,Week 8,8,PRE-DOSE,-0.5,Fellow Eye Visual Acuity Score (letters),FBCVA,55,55,letters,20/80,80,91,91,LAST,-36,-39.56043956043956,0 <= CHG <= 5,N,-5 <= CHG <= -1,N,10 <= CHG <= 15,N,CHG <= -20,Y,CHG <= 5,Y,CHG <= 10,Y,CHG >= -15,N,CHG >= 15,N,,,Y,Y,Y,40,BEST CORRECTED VISUAL ACUITY,OVERALL EVALUATION,2013-01-23,WEEK 8,8,56,55,55,55,Visual Acuity Score,VACSCORE,,RIGHT,EYE,55,ETDRS EYE CHART,,,,PRE-DOSE,-0.5,LEFT,Fellow Eye,
80,CDISCPILOT01,01-701-1115,OE,Xanomeline Low Dose,Xanomeline Low Dose,2012-11-30,2013-01-23,2012-11-30,1,Baseline,3,PRE-DOSE,-0.5,Fellow Eye Visual Acuity Score (letters),FBCVA,91,91,letters,20/16,16,91,91,LAST,0,0,0 <= CHG <= 5,Y,-5 <= CHG <= -1,N,10 <= CHG <= 15,N,CHG <= -20,N,CHG <= 5,Y,CHG <= 10,Y,CHG >= -15,Y,CHG >= 15,N,,Y,Y,Y,,16,BEST CORRECTED VISUAL ACUITY,OVERALL EVALUATION,2012-11-30,BASELINE,3,1,91,91,91,Visual Acuity Score,VACSCORE,,RIGHT,EYE,1,ETDRS EYE CHART,,,,PRE-DOSE,-0.5,LEFT,Fellow Eye,
81,CDISCPILOT01,01-701-1115,OE,Xanomeline Low Dose,Xanomeline Low Dose,2012-11-30,2013-01-23,2013-01-10,42,Week 6,7,PRE-DOSE,-0.5,Study Eye Visual Acuity Score (letters),SBCVA,21,21,letters,20/400,400,81,81,LAST,-60,-74.07407407407408,0 <= CHG <= 5,N,-5 <= CHG <= -1,N,10 <= CHG <= 15,N,CHG <= -20,Y,CHG <= 5,Y,CHG <= 10,Y,CHG >= -15,N,CHG >= 15,N,,,Y,,Y,31,BEST CORRECTED VISUAL ACUITY,OVERALL EVALUATION,2013-01-10,WEEK 6,7,42,21,21,21,Visual Acuity Score,VACSCORE,,LEFT,EYE,42,ETDRS EYE CHART,,,,PRE-DOSE,-0.5,LEFT,Study Eye,Y
82,CDISCPILOT01,01-701-1115,OE,Xanomeline Low Dose,Xanomeline Low Dose,2012-11-30,2013-01-23,2012-12-26,27,Week 4,5,PRE-DOSE,-0.5,Study Eye Visual Acuity Score (letters),SBCVA,36,36,letters,20/200,200,81,81,LAST,-45,-55.55555555555556,0 <= CHG <= 5,N,-5 <= CHG <= -1,N,10 <= CHG <= 15,N,CHG <= -20,Y,CHG <= 5,Y,CHG <= 10,Y,CHG >= -15,N,CHG >= 15,N,,,Y,,Y,23,BEST CORRECTED VISUAL ACUITY,OVERALL EVALUATION,2012-12-26,WEEK 4,5,28,36,36,36,Visual Acuity Score,VACSCORE,,LEFT,EYE,27,ETDRS EYE CHART,,,,PRE-DOSE,-0.5,LEFT,Study Eye,
83,CDISCPILOT01,01-701-1115,OE,Xanomeline Low Dose,Xanomeline Low Dose,2012-11-30,2013-01-23,2013-01-23,55,Week 8,8,PRE-DOSE,-0.5,Study Eye Visual Acuity Score (letters),SBCVA,57,57,letters,20/80,80,81,81,LAST,-24,-29.629629629629626,0 <= CHG <= 5,N,-5 <= CHG <= -1,N,10 <= CHG <= 15,N,CHG <= -20,Y,CHG <= 5,Y,CHG <= 10,Y,CHG >= -15,N,CHG >= 15,N,,,Y,Y,Y,39,BEST CORRECTED VISUAL ACUITY,OVERALL EVALUATION,2013-01-23,WEEK 8,8,56,57,57,57,Visual Acuity Score,VACSCORE,,LEFT,EYE,55,ETDRS EYE CHART,,,,PRE-DOSE,-0.5,LEFT,Study Eye,
84,CDISCPILOT01,01-701-1115,OE,Xanomeline Low Dose,Xanomeline Low Dose,2012-11-30,2013-01-23,2012-11-30,1,Baseline,3,PRE-DOSE,-0.5,Study Eye Visual Acuity Score (letters),SBCVA,81,81,letters,20/25,25,81,81,LAST,0,0,0 <= CHG <= 5,Y,-5 <= CHG <= -1,N,10 <= CHG <= 15,N,CHG <= -20,N,CHG <= 5,Y,CHG <= 10,Y,CHG >= -15,Y,CHG >= 15,N,,Y,Y,Y,,15,BEST CORRECTED VISUAL ACUITY,OVERALL EVALUATION,2012-11-30,BASELINE,3,1,81,81,81,Visual Acuity Score,VACSCORE,,LEFT,EYE,1,ETDRS EYE CHART,,,,PRE-DOSE,-0.5,LEFT,Study Eye,
85,CDISCPILOT01,01-701-1118,OE,Placebo,Placebo,2014-03-12,2014-09-09,2014-05-08,58,Week 8,8,PRE-DOSE,-0.5,Fellow Eye Visual Acuity Score (letters),FBCVA,5,5,letters,20/800,800,40,40,LAST,-35,-87.5,0 <= CHG <= 5,N,-5 <= CHG <= -1,N,10 <= CHG <= 15,N,CHG <= -20,Y,CHG <= 5,Y,CHG <= 10,Y,CHG >= -15,N,CHG >= 15,N,,,Y,,Y,39,BEST CORRECTED VISUAL ACUITY,OVERALL EVALUATION,2014-05-08,WEEK 8,8,56,5,5,5,Visual Acuity Score,VACSCORE,,LEFT,EYE,58,ETDRS EYE CHART,,,,PRE-DOSE,-0.5,RIGHT,Fellow Eye,Y
86,CDISCPILOT01,01-701-1118,OE,Placebo,Placebo,2014-03-12,2014-09-09,2014-07-30,141,Week 20,11,PRE-DOSE,-0.5,Fellow Eye Visual Acuity Score (letters),FBCVA,14,14,letters,20/500,500,40,40,LAST,-26,-65,0 <= CHG <= 5,N,-5 <= CHG <= -1,N,10 <= CHG <= 15,N,CHG <= -20,Y,CHG <= 5,Y,CHG <= 10,Y,CHG >= -15,N,CHG >= 15,N,,,Y,,Y,71,BEST CORRECTED VISUAL ACUITY,OVERALL EVALUATION,2014-07-30,WEEK 20,11,140,14,14,14,Visual Acuity Score,VACSCORE,,LEFT,EYE,141,ETDRS EYE CHART,,,,PRE-DOSE,-0.5,RIGHT,Fellow Eye,
87,CDISCPILOT01,01-701-1118,OE,Placebo,Placebo,2014-03-12,2014-09-09,2014-06-05,86,Week 12,9,PRE-DOSE,-0.5,Fellow Eye Visual Acuity Score (letters),FBCVA,28,28,letters,20/320,320,40,40,LAST,-12,-30,0 <= CHG <= 5,N,-5 <= CHG <= -1,N,10 <= CHG <= 15,N,CHG <= -20,N,CHG <= 5,Y,CHG <= 10,Y,CHG >= -15,Y,CHG >= 15,N,,,Y,,Y,55,BEST CORRECTED VISUAL ACUITY,OVERALL EVALUATION,2014-06-05,WEEK 12,9,84,28,28,28,Visual Acuity Score,VACSCORE,,LEFT,EYE,86,ETDRS EYE CHART,,,,PRE-DOSE,-0.5,RIGHT,Fellow Eye,
88,CDISCPILOT01,01-701-1118,OE,Placebo,Placebo,2014-03-12,2014-09-09,2014-03-12,1,Baseline,3,PRE-DOSE,-0.5,Fellow Eye Visual Acuity Score (letters),FBCVA,40,40,letters,20/160,160,40,40,LAST,0,0,0 <= CHG <= 5,Y,-5 <= CHG <= -1,N,10 <= CHG <= 15,N,CHG <= -20,N,CHG <= 5,Y,CHG <= 10,Y,CHG >= -15,Y,CHG >= 15,N,,Y,Y,Y,,15,BEST CORRECTED VISUAL ACUITY,OVERALL EVALUATION,2014-03-12,BASELINE,3,1,40,40,40,Visual Acuity Score,VACSCORE,,LEFT,EYE,1,ETDRS EYE CHART,,,,PRE-DOSE,-0.5,RIGHT,Fellow Eye,
89,CDISCPILOT01,01-701-1118,OE,Placebo,Placebo,2014-03-12,2014-09-09,2014-04-09,29,Week 4,5,PRE-DOSE,-0.5,Fellow Eye Visual Acuity Score (letters),FBCVA,54,54,letters,20/80,80,40,40,LAST,14,35,0 <= CHG <= 5,N,-5 <= CHG <= -1,N,10 <= CHG <= 15,Y,CHG <= -20,N,CHG <= 5,N,CHG <= 10,N,CHG >= -15,Y,CHG >= 15,N,,,Y,,Y,23,BEST CORRECTED VISUAL ACUITY,OVERALL EVALUATION,2014-04-09,WEEK 4,5,28,54,54,54,Visual Acuity Score,VACSCORE,,LEFT,EYE,29,ETDRS EYE CHART,,,,PRE-DOSE,-0.5,RIGHT,Fellow Eye,
90,CDISCPILOT01,01-701-1118,OE,Placebo,Placebo,2014-03-12,2014-09-09,2014-05-21,71,Week 10 (T),8,PRE-DOSE,-0.5,Fellow Eye Visual Acuity Score (letters),FBCVA,79,79,letters,20/25,25,40,40,LAST,39,97.5,0 <= CHG <= 5,N,-5 <= CHG <= -1,N,10 <= CHG <= 15,N,CHG <= -20,N,CHG <= 5,N,CHG <= 10,N,CHG >= -15,Y,CHG >= 15,Y,,,Y,,Y,47,BEST CORRECTED VISUAL ACUITY,OVERALL EVALUATION,2014-05-21,WEEK 10 (T),8.1,70,79,79,79,Visual Acuity Score,VACSCORE,,LEFT,EYE,71,ETDRS EYE CHART,,,,PRE-DOSE,-0.5,RIGHT,Fellow Eye,
91,CDISCPILOT01,01-701-1118,OE,Placebo,Placebo,2014-03-12,2014-09-09,2014-08-27,169,Week 24,12,PRE-DOSE,-0.5,Fellow Eye Visual Acuity Score (letters),FBCVA,85,85,letters,20/20,20,40,40,LAST,45,112.5,0 <= CHG <= 5,N,-5 <= CHG <= -1,N,10 <= CHG <= 15,N,CHG <= -20,N,CHG <= 5,N,CHG <= 10,N,CHG >= -15,Y,CHG >= 15,Y,,,Y,Y,Y,79,BEST CORRECTED VISUAL ACUITY,OVERALL EVALUATION,2014-08-27,WEEK 24,12,168,85,85,85,Visual Acuity Score,VACSCORE,,LEFT,EYE,169,ETDRS EYE CHART,,,,PRE-DOSE,-0.5,RIGHT,Fellow Eye,
92,CDISCPILOT01,01-701-1118,OE,Placebo,Placebo,2014-03-12,2014-09-09,2014-07-02,113,Week 16,10,PRE-DOSE,-0.5,Fellow Eye Visual Acuity Score (letters),FBCVA,95,95,letters,20/12,12,40,40,LAST,55,137.5,0 <= CHG <= 5,N,-5 <= CHG <= -1,N,10 <= CHG <= 15,N,CHG <= -20,N,CHG <= 5,N,CHG <= 10,N,CHG >= -15,Y,CHG >= 15,Y,,,Y,,Y,63,BEST CORRECTED VISUAL ACUITY,OVERALL EVALUATION,2014-07-02,WEEK 16,10,112,95,95,95,Visual Acuity Score,VACSCORE,,LEFT,EYE,113,ETDRS EYE CHART,,,,PRE-DOSE,-0.5,RIGHT,Fellow Eye,
93,CDISCPILOT01,01-701-1118,OE,Placebo,Placebo,2014-03-12,2014-09-09,2014-04-23,43,Week 6,7,PRE-DOSE,-0.5,Fellow Eye Visual Acuity Score (letters),FBCVA,98,98,letters,> 20/12,1,40,40,LAST,58,145,0 <= CHG <= 5,N,-5 <= CHG <= -1,N,10 <= CHG <= 15,N,CHG <= -20,N,CHG <= 5,N,CHG <= 10,N,CHG >= -15,Y,CHG >= 15,Y,,,Y,,Y,31,BEST CORRECTED VISUAL ACUITY,OVERALL EVALUATION,2014-04-23,WEEK 6,7,42,98,98,98,Visual Acuity Score,VACSCORE,,LEFT,EYE,43,ETDRS EYE CHART,,,,PRE-DOSE,-0.5,RIGHT,Fellow Eye,
94,CDISCPILOT01,01-701-1118,OE,Placebo,Placebo,2014-03-12,2014-09-09,2014-06-05,86,Week 12,9,PRE-DOSE,-0.5,Study Eye Visual Acuity Score (letters),SBCVA,2,2,letters,< 20/800,1000,22,22,LAST,-20,-90.9090909090909,0 <= CHG <= 5,N,-5 <= CHG <= -1,N,10 <= CHG <= 15,N,CHG <= -20,Y,CHG <= 5,Y,CHG <= 10,Y,CHG >= -15,N,CHG >= 15,N,,,Y,,Y,56,BEST CORRECTED VISUAL ACUITY,OVERALL EVALUATION,2014-06-05,WEEK 12,9,84,2,2,2,Visual Acuity Score,VACSCORE,,RIGHT,EYE,86,ETDRS EYE CHART,,,,PRE-DOSE,-0.5,RIGHT,Study Eye,Y
95,CDISCPILOT01,01-701-1118,OE,Placebo,Placebo,2014-03-12,2014-09-09,2014-04-09,29,Week 4,5,PRE-DOSE,-0.5,Study Eye Visual Acuity Score (letters),SBCVA,21,21,letters,20/400,400,22,22,LAST,-1,-4.545454545454546,0 <= CHG <= 5,N,-5 <= CHG <= -1,Y,10 <= CHG <= 15,N,CHG <= -20,N,CHG <= 5,Y,CHG <= 10,Y,CHG >= -15,Y,CHG >= 15,N,,,Y,,Y,24,BEST CORRECTED VISUAL ACUITY,OVERALL EVALUATION,2014-04-09,WEEK 4,5,28,21,21,21,Visual Acuity Score,VACSCORE,,RIGHT,EYE,29,ETDRS EYE CHART,,,,PRE-DOSE,-0.5,RIGHT,Study Eye,
96,CDISCPILOT01,01-701-1118,OE,Placebo,Placebo,2014-03-12,2014-09-09,2014-03-12,1,Baseline,3,PRE-DOSE,-0.5,Study Eye Visual Acuity Score (letters),SBCVA,22,22,letters,20/400,400,22,22,LAST,0,0,0 <= CHG <= 5,Y,-5 <= CHG <= -1,N,10 <= CHG <= 15,N,CHG <= -20,N,CHG <= 5,Y,CHG <= 10,Y,CHG >= -15,Y,CHG >= 15,N,,Y,Y,Y,,16,BEST CORRECTED VISUAL ACUITY,OVERALL EVALUATION,2014-03-12,BASELINE,3,1,22,22,22,Visual Acuity Score,VACSCORE,,RIGHT,EYE,1,ETDRS EYE CHART,,,,PRE-DOSE,-0.5,RIGHT,Study Eye,
97,CDISCPILOT01,01-701-1118,OE,Placebo,Placebo,2014-03-12,2014-09-09,2014-04-23,43,Week 6,7,PRE-DOSE,-0.5,Study Eye Visual Acuity Score (letters),SBCVA,39,39,letters,20/160,160,22,22,LAST,17,77.27272727272727,0 <= CHG <= 5,N,-5 <= CHG <= -1,N,10 <= CHG <= 15,N,CHG <= -20,N,CHG <= 5,N,CHG <= 10,N,CHG >= -15,Y,CHG >= 15,Y,,,Y,,Y,32,BEST CORRECTED VISUAL ACUITY,OVERALL EVALUATION,2014-04-23,WEEK 6,7,42,39,39,39,Visual Acuity Score,VACSCORE,,RIGHT,EYE,43,ETDRS EYE CHART,,,,PRE-DOSE,-0.5,RIGHT,Study Eye,
98,CDISCPILOT01,01-701-1118,OE,Placebo,Placebo,2014-03-12,2014-09-09,2014-07-02,113,Week 16,10,PRE-DOSE,-0.5,Study Eye Visual Acuity Score (letters),SBCVA,44,44,letters,20/125,125,22,22,LAST,22,100,0 <= CHG <= 5,N,-5 <= CHG <= -1,N,10 <= CHG <= 15,N,CHG <= -20,N,CHG <= 5,N,CHG <= 10,N,CHG >= -15,Y,CHG >= 15,Y,,,Y,,Y,64,BEST CORRECTED VISUAL ACUITY,OVERALL EVALUATION,2014-07-02,WEEK 16,10,112,44,44,44,Visual Acuity Score,VACSCORE,,RIGHT,EYE,113,ETDRS EYE CHART,,,,PRE-DOSE,-0.5,RIGHT,Study Eye,
99,CDISCPILOT01,01-701-1118,OE,Placebo,Placebo,2014-03-12,2014-09-09,2014-08-27,169,Week 24,12,PRE-DOSE,-0.5,Study Eye Visual Acuity Score (letters),SBCVA,49,49,letters,20/100,100,22,22,LAST,27,122.72727272727273,0 <= CHG <= 5,N,-5 <= CHG <= -1,N,10 <= CHG <= 15,N,CHG <= -20,N,CHG <= 5,N,CHG <= 10,N,CHG >= -15,Y,CHG >= 15,Y,,,Y,Y,Y,80,BEST CORRECTED VISUAL ACUITY,OVERALL EVALUATION,2014-08-27,WEEK 24,12,168,49,49,49,Visual Acuity Score,VACSCORE,,RIGHT,EYE,169,ETDRS EYE CHART,,,,PRE-DOSE,-0.5,RIGHT,Study Eye,
100,CDISCPILOT01,01-701-1118,OE,Placebo,Placebo,2014-03-12,2014-09-09,2014-07-30,141,Week 20,11,PRE-DOSE,-0.5,Study Eye Visual Acuity Score (letters),SBCVA,59,59,letters,20/63,63,22,22,LAST,37,168.1818181818182,0 <= CHG <= 5,N,-5 <= CHG <= -1,N,10 <= CHG <= 15,N,CHG <= -20,N,CHG <= 5,N,CHG <= 10,N,CHG >= -15,Y,CHG >= 15,Y,,,Y,,Y,72,BEST CORRECTED VISUAL ACUITY,OVERALL EVALUATION,2014-07-30,WEEK 20,11,140,59,59,59,Visual Acuity Score,VACSCORE,,RIGHT,EYE,141,ETDRS EYE CHART,,,,PRE-DOSE,-0.5,RIGHT,Study Eye,
101,CDISCPILOT01,01-701-1118,OE,Placebo,Placebo,2014-03-12,2014-09-09,2014-05-08,58,Week 8,8,PRE-DOSE,-0.5,Study Eye Visual Acuity Score (letters),SBCVA,87,87,letters,20/20,20,22,22,LAST,65,295.45454545454544,0 <= CHG <= 5,N,-5 <= CHG <= -1,N,10 <= CHG <= 15,N,CHG <= -20,N,CHG <= 5,N,CHG <= 10,N,CHG >= -15,Y,CHG >= 15,Y,,,Y,,Y,40,BEST CORRECTED VISUAL ACUITY,OVERALL EVALUATION,2014-05-08,WEEK 8,8,56,87,87,87,Visual Acuity Score,VACSCORE,,RIGHT,EYE,58,ETDRS EYE CHART,,,,PRE-DOSE,-0.5,RIGHT,Study Eye,
102,CDISCPILOT01,01-701-1118,OE,Placebo,Placebo,2014-03-12,2014-09-09,2014-05-21,71,Week 10 (T),8,PRE-DOSE,-0.5,Study Eye Visual Acuity Score (letters),SBCVA,99,99,letters,> 20/12,1,22,22,LAST,77,350,0 <= CHG <= 5,N,-5 <= CHG <= -1,N,10 <= CHG <= 15,N,CHG <= -20,N,CHG <= 5,N,CHG <= 10,N,CHG >= -15,Y,CHG >= 15,Y,,,Y,,Y,48,BEST CORRECTED VISUAL ACUITY,OVERALL EVALUATION,2014-05-21,WEEK 10 (T),8.1,70,99,99,99,Visual Acuity Score,VACSCORE,,RIGHT,EYE,71,ETDRS EYE CHART,,,,PRE-DOSE,-0.5,RIGHT,Study Eye,
103,CDISCPILOT01,01-701-1130,OE,Placebo,Placebo,2014-02-15,2014-08-16,2014-03-15,29,Week 4,5,PRE-DOSE,-0.5,Fellow Eye Visual Acuity Score (letters),FBCVA,14,14,letters,20/500,500,24,24,LAST,-10,-41.66666666666667,0 <= CHG <= 5,N,-5 <= CHG <= -1,N,10 <= CHG <= 15,N,CHG <= -20,N,CHG <= 5,Y,CHG <= 10,Y,CHG >= -15,Y,CHG >= 15,N,,,Y,,Y,23,BEST CORRECTED VISUAL ACUITY,OVERALL EVALUATION,2014-03-15,WEEK 4,5,28,14,14,14,Visual Acuity Score,VACSCORE,,LEFT,EYE,29,ETDRS EYE CHART,,,,PRE-DOSE,-0.5,RIGHT,Fellow Eye,Y
104,CDISCPILOT01,01-701-1130,OE,Placebo,Placebo,2014-02-15,2014-08-16,2014-02-15,1,Baseline,3,PRE-DOSE,-0.5,Fellow Eye Visual Acuity Score (letters),FBCVA,24,24,letters,20/320,320,24,24,LAST,0,0,0 <= CHG <= 5,Y,-5 <= CHG <= -1,N,10 <= CHG <= 15,N,CHG <= -20,N,CHG <= 5,Y,CHG <= 10,Y,CHG >= -15,Y,CHG >= 15,N,,Y,Y,Y,,15,BEST CORRECTED VISUAL ACUITY,OVERALL EVALUATION,2014-02-15,BASELINE,3,1,24,24,24,Visual Acuity Score,VACSCORE,,LEFT,EYE,1,ETDRS EYE CHART,,,,PRE-DOSE,-0.5,RIGHT,Fellow Eye,
105,CDISCPILOT01,01-701-1130,OE,Placebo,Placebo,2014-02-15,2014-08-16,2014-06-07,113,Week 16,10,PRE-DOSE,-0.5,Fellow Eye Visual Acuity Score (letters),FBCVA,25,25,letters,20/320,320,24,24,LAST,1,4.166666666666666,0 <= CHG <= 5,Y,-5 <= CHG <= -1,N,10 <= CHG <= 15,N,CHG <= -20,N,CHG <= 5,Y,CHG <= 10,Y,CHG >= -15,Y,CHG >= 15,N,,,Y,,Y,63,BEST CORRECTED VISUAL ACUITY,OVERALL EVALUATION,2014-06-07,WEEK 16,10,112,25,25,25,Visual Acuity Score,VACSCORE,,LEFT,EYE,113,ETDRS EYE CHART,,,,PRE-DOSE,-0.5,RIGHT,Fellow Eye,
106,CDISCPILOT01,01-701-1130,OE,Placebo,Placebo,2014-02-15,2014-08-16,2014-04-12,57,Week 8,8,PRE-DOSE,-0.5,Fellow Eye Visual Acuity Score (letters),FBCVA,27,27,letters,20/320,320,24,24,LAST,3,12.5,0 <= CHG <= 5,Y,-5 <= CHG <= -1,N,10 <= CHG <= 15,N,CHG <= -20,N,CHG <= 5,Y,CHG <= 10,Y,CHG >= -15,Y,CHG >= 15,N,,,Y,,Y,39,BEST CORRECTED VISUAL ACUITY,OVERALL EVALUATION,2014-04-12,WEEK 8,8,56,27,27,27,Visual Acuity Score,VACSCORE,,LEFT,EYE,57,ETDRS EYE CHART,,,,PRE-DOSE,-0.5,RIGHT,Fellow Eye,
107,CDISCPILOT01,01-701-1130,OE,Placebo,Placebo,2014-02-15,2014-08-16,2014-08-02,169,Week 24,12,PRE-DOSE,-0.5,Fellow Eye Visual Acuity Score (letters),FBCVA,38,38,letters,20/200,200,24,24,LAST,14,58.333333333333336,0 <= CHG <= 5,N,-5 <= CHG <= -1,N,10 <= CHG <= 15,Y,CHG <= -20,N,CHG <= 5,N,CHG <= 10,N,CHG >= -15,Y,CHG >= 15,N,,,Y,Y,Y,79,BEST CORRECTED VISUAL ACUITY,OVERALL EVALUATION,2014-08-02,WEEK 24,12,168,38,38,38,Visual Acuity Score,VACSCORE,,LEFT,EYE,169,ETDRS EYE CHART,,,,PRE-DOSE,-0.5,RIGHT,Fellow Eye,
108,CDISCPILOT01,01-701-1130,OE,Placebo,Placebo,2014-02-15,2014-08-16,2014-05-16,91,Week 12,9,PRE-DOSE,-0.5,Fellow Eye Visual Acuity Score (letters),FBCVA,56,56,letters,20/80,80,24,24,LAST,32,133.33333333333331,0 <= CHG <= 5,N,-5 <= CHG <= -1,N,10 <= CHG <= 15,N,CHG <= -20,N,CHG <= 5,N,CHG <= 10,N,CHG >= -15,Y,CHG >= 15,Y,,,Y,,Y,55,BEST CORRECTED VISUAL ACUITY,OVERALL EVALUATION,2014-05-16,WEEK 12,9,84,56,56,56,Visual Acuity Score,VACSCORE,,LEFT,EYE,91,ETDRS EYE CHART,,,,PRE-DOSE,-0.5,RIGHT,Fellow Eye,
109,CDISCPILOT01,01-701-1130,OE,Placebo,Placebo,2014-02-15,2014-08-16,2014-07-02,138,Week 20,11,PRE-DOSE,-0.5,Fellow Eye Visual Acuity Score (letters),FBCVA,63,63,letters,20/63,63,24,24,LAST,39,162.5,0 <= CHG <= 5,N,-5 <= CHG <= -1,N,10 <= CHG <= 15,N,CHG <= -20,N,CHG <= 5,N,CHG <= 10,N,CHG >= -15,Y,CHG >= 15,Y,,,Y,,Y,71,BEST CORRECTED VISUAL ACUITY,OVERALL EVALUATION,2014-07-02,WEEK 20,11,140,63,63,63,Visual Acuity Score,VACSCORE,,LEFT,EYE,138,ETDRS EYE CHART,,,,PRE-DOSE,-0.5,RIGHT,Fellow Eye,
110,CDISCPILOT01,01-701-1130,OE,Placebo,Placebo,2014-02-15,2014-08-16,2014-04-26,71,Week 10 (T),8,PRE-DOSE,-0.5,Fellow Eye Visual Acuity Score (letters),FBCVA,77,77,letters,20/32,32,24,24,LAST,53,220.83333333333334,0 <= CHG <= 5,N,-5 <= CHG <= -1,N,10 <= CHG <= 15,N,CHG <= -20,N,CHG <= 5,N,CHG <= 10,N,CHG >= -15,Y,CHG >= 15,Y,,,Y,,Y,47,BEST CORRECTED VISUAL ACUITY,OVERALL EVALUATION,2014-04-26,WEEK 10 (T),8.1,70,77,77,77,Visual Acuity Score,VACSCORE,,LEFT,EYE,71,ETDRS EYE CHART,,,,PRE-DOSE,-0.5,RIGHT,Fellow Eye,
111,CDISCPILOT01,01-701-1130,OE,Placebo,Placebo,2014-02-15,2014-08-16,2014-03-29,43,Week 6,7,PRE-DOSE,-0.5,Fellow Eye Visual Acuity Score (letters),FBCVA,93,93,letters,20/16,16,24,24,LAST,69,287.5,0 <= CHG <= 5,N,-5 <= CHG <= -1,N,10 <= CHG <= 15,N,CHG <= -20,N,CHG <= 5,N,CHG <= 10,N,CHG >= -15,Y,CHG >= 15,Y,,,Y,,Y,31,BEST CORRECTED VISUAL ACUITY,OVERALL EVALUATION,2014-03-29,WEEK 6,7,42,93,93,93,Visual Acuity Score,VACSCORE,,LEFT,EYE,43,ETDRS EYE CHART,,,,PRE-DOSE,-0.5,RIGHT,Fellow Eye,
112,CDISCPILOT01,01-701-1130,OE,Placebo,Placebo,2014-02-15,2014-08-16,2014-03-29,43,Week 6,7,PRE-DOSE,-0.5,Study Eye Visual Acuity Score (letters),SBCVA,9,9,letters,20/640,640,18,18,LAST,-9,-50,0 <= CHG <= 5,N,-5 <= CHG <= -1,N,10 <= CHG <= 15,N,CHG <= -20,N,CHG <= 5,Y,CHG <= 10,Y,CHG >= -15,Y,CHG >= 15,N,,,Y,,Y,32,BEST CORRECTED VISUAL ACUITY,OVERALL EVALUATION,2014-03-29,WEEK 6,7,42,9,9,9,Visual Acuity Score,VACSCORE,,RIGHT,EYE,43,ETDRS EYE CHART,,,,PRE-DOSE,-0.5,RIGHT,Study Eye,Y
113,CDISCPILOT01,01-701-1130,OE,Placebo,Placebo,2014-02-15,2014-08-16,2014-02-15,1,Baseline,3,PRE-DOSE,-0.5,Study Eye Visual Acuity Score (letters),SBCVA,18,18,letters,20/500,500,18,18,LAST,0,0,0 <= CHG <= 5,Y,-5 <= CHG <= -1,N,10 <= CHG <= 15,N,CHG <= -20,N,CHG <= 5,Y,CHG <= 10,Y,CHG >= -15,Y,CHG >= 15,N,,Y,Y,Y,,16,BEST CORRECTED VISUAL ACUITY,OVERALL EVALUATION,2014-02-15,BASELINE,3,1,18,18,18,Visual Acuity Score,VACSCORE,,RIGHT,EYE,1,ETDRS EYE CHART,,,,PRE-DOSE,-0.5,RIGHT,Study Eye,
114,CDISCPILOT01,01-701-1130,OE,Placebo,Placebo,2014-02-15,2014-08-16,2014-04-26,71,Week 10 (T),8,PRE-DOSE,-0.5,Study Eye Visual Acuity Score (letters),SBCVA,19,19,letters,20/400,400,18,18,LAST,1,5.555555555555555,0 <= CHG <= 5,Y,-5 <= CHG <= -1,N,10 <= CHG <= 15,N,CHG <= -20,N,CHG <= 5,Y,CHG <= 10,Y,CHG >= -15,Y,CHG >= 15,N,,,Y,,Y,48,BEST CORRECTED VISUAL ACUITY,OVERALL EVALUATION,2014-04-26,WEEK 10 (T),8.1,70,19,19,19,Visual Acuity Score,VACSCORE,,RIGHT,EYE,71,ETDRS EYE CHART,,,,PRE-DOSE,-0.5,RIGHT,Study Eye,
115,CDISCPILOT01,01-701-1130,OE,Placebo,Placebo,2014-02-15,2014-08-16,2014-06-07,113,Week 16,10,PRE-DOSE,-0.5,Study Eye Visual Acuity Score (letters),SBCVA,42,42,letters,20/160,160,18,18,LAST,24,133.33333333333331,0 <= CHG <= 5,N,-5 <= CHG <= -1,N,10 <= CHG <= 15,N,CHG <= -20,N,CHG <= 5,N,CHG <= 10,N,CHG >= -15,Y,CHG >= 15,Y,,,Y,,Y,64,BEST CORRECTED VISUAL ACUITY,OVERALL EVALUATION,2014-06-07,WEEK 16,10,112,42,42,42,Visual Acuity Score,VACSCORE,,RIGHT,EYE,113,ETDRS EYE CHART,,,,PRE-DOSE,-0.5,RIGHT,Study Eye,
116,CDISCPILOT01,01-701-1130,OE,Placebo,Placebo,2014-02-15,2014-08-16,2014-03-15,29,Week 4,5,PRE-DOSE,-0.5,Study Eye Visual Acuity Score (letters),SBCVA,45,45,letters,20/125,125,18,18,LAST,27,150,0 <= CHG <= 5,N,-5 <= CHG <= -1,N,10 <= CHG <= 15,N,CHG <= -20,N,CHG <= 5,N,CHG <= 10,N,CHG >= -15,Y,CHG >= 15,Y,,,Y,,Y,24,BEST CORRECTED VISUAL ACUITY,OVERALL EVALUATION,2014-03-15,WEEK 4,5,28,45,45,45,Visual Acuity Score,VACSCORE,,RIGHT,EYE,29,ETDRS EYE CHART,,,,PRE-DOSE,-0.5,RIGHT,Study Eye,
117,CDISCPILOT01,01-701-1130,OE,Placebo,Placebo,2014-02-15,2014-08-16,2014-04-12,57,Week 8,8,PRE-DOSE,-0.5,Study Eye Visual Acuity Score (letters),SBCVA,70,70,letters,20/40,40,18,18,LAST,52,288.88888888888886,0 <= CHG <= 5,N,-5 <= CHG <= -1,N,10 <= CHG <= 15,N,CHG <= -20,N,CHG <= 5,N,CHG <= 10,N,CHG >= -15,Y,CHG >= 15,Y,,,Y,,Y,40,BEST CORRECTED VISUAL ACUITY,OVERALL EVALUATION,2014-04-12,WEEK 8,8,56,70,70,70,Visual Acuity Score,VACSCORE,,RIGHT,EYE,57,ETDRS EYE CHART,,,,PRE-DOSE,-0.5,RIGHT,Study Eye,
118,CDISCPILOT01,01-701-1130,OE,Placebo,Placebo,2014-02-15,2014-08-16,2014-05-16,91,Week 12,9,PRE-DOSE,-0.5,Study Eye Visual Acuity Score (letters),SBCVA,74,74,letters,20/32,32,18,18,LAST,56,311.11111111111114,0 <= CHG <= 5,N,-5 <= CHG <= -1,N,10 <= CHG <= 15,N,CHG <= -20,N,CHG <= 5,N,CHG <= 10,N,CHG >= -15,Y,CHG >= 15,Y,,,Y,,Y,56,BEST CORRECTED VISUAL ACUITY,OVERALL EVALUATION,2014-05-16,WEEK 12,9,84,74,74,74,Visual Acuity Score,VACSCORE,,RIGHT,EYE,91,ETDRS EYE CHART,,,,PRE-DOSE,-0.5,RIGHT,Study Eye,
119,CDISCPILOT01,01-701-1130,OE,Placebo,Placebo,2014-02-15,2014-08-16,2014-07-02,138,Week 20,11,PRE-DOSE,-0.5,Study Eye Visual Acuity Score (letters),SBCVA,76,76,letters,20/32,32,18,18,LAST,58,322.22222222222223,0 <= CHG <= 5,N,-5 <= CHG <= -1,N,10 <= CHG <= 15,N,CHG <= -20,N,CHG <= 5,N,CHG <= 10,N,CHG >= -15,Y,CHG >= 15,Y,,,Y,,Y,72,BEST CORRECTED VISUAL ACUITY,OVERALL EVALUATION,2014-07-02,WEEK 20,11,140,76,76,76,Visual Acuity Score,VACSCORE,,RIGHT,EYE,138,ETDRS EYE CHART,,,,PRE-DOSE,-0.5,RIGHT,Study Eye,
120,CDISCPILOT01,01-701-1130,OE,Placebo,Placebo,2014-02-15,2014-08-16,2014-08-02,169,Week 24,12,PRE-DOSE,-0.5,Study Eye Visual Acuity Score (letters),SBCVA,94,94,letters,20/12,12,18,18,LAST,76,422.22222222222223,0 <= CHG <= 5,N,-5 <= CHG <= -1,N,10 <= CHG <= 15,N,CHG <= -20,N,CHG <= 5,N,CHG <= 10,N,CHG >= -15,Y,CHG >= 15,Y,,,Y,Y,Y,80,BEST CORRECTED VISUAL ACUITY,OVERALL EVALUATION,2014-08-02,WEEK 24,12,168,94,94,94,Visual Acuity Score,VACSCORE,,RIGHT,EYE,169,ETDRS EYE CHART,,,,PRE-DOSE,-0.5,RIGHT,Study Eye,
121,CDISCPILOT01,01-701-1133,OE,Xanomeline High Dose,Xanomeline High Dose,2012-10-28,2013-04-28,2013-02-18,114,Week 16,10,PRE-DOSE,-0.5,Fellow Eye Visual Acuity Score (letters),FBCVA,17,17,letters,20/500,500,18,18,LAST,-1,-5.555555555555555,0 <= CHG <= 5,N,-5 <= CHG <= -1,Y,10 <= CHG <= 15,N,CHG <= -20,N,CHG <= 5,Y,CHG <= 10,Y,CHG >= -15,Y,CHG >= 15,N,,,Y,,Y,64,BEST CORRECTED VISUAL ACUITY,OVERALL EVALUATION,2013-02-18,WEEK 16,10,112,17,17,17,Visual Acuity Score,VACSCORE,,RIGHT,EYE,114,ETDRS EYE CHART,,,,PRE-DOSE,-0.5,LEFT,Fellow Eye,Y
122,CDISCPILOT01,01-701-1133,OE,Xanomeline High Dose,Xanomeline High Dose,2012-10-28,2013-04-28,2012-10-28,1,Baseline,3,PRE-DOSE,-0.5,Fellow Eye Visual Acuity Score (letters),FBCVA,18,18,letters,20/500,500,18,18,LAST,0,0,0 <= CHG <= 5,Y,-5 <= CHG <= -1,N,10 <= CHG <= 15,N,CHG <= -20,N,CHG <= 5,Y,CHG <= 10,Y,CHG >= -15,Y,CHG >= 15,N,,Y,Y,Y,,16,BEST CORRECTED VISUAL ACUITY,OVERALL EVALUATION,2012-10-28,BASELINE,3,1,18,18,18,Visual Acuity Score,VACSCORE,,RIGHT,EYE,1,ETDRS EYE CHART,,,,PRE-DOSE,-0.5,LEFT,Fellow Eye,
123,CDISCPILOT01,01-701-1133,OE,Xanomeline High Dose,Xanomeline High Dose,2012-10-28,2013-04-28,2013-01-07,72,Week 10 (T),8,PRE-DOSE,-0.5,Fellow Eye Visual Acuity Score (letters),FBCVA,18,18,letters,20/500,500,18,18,LAST,0,0,0 <= CHG <= 5,Y,-5 <= CHG <= -1,N,10 <= CHG <= 15,N,CHG <= -20,N,CHG <= 5,Y,CHG <= 10,Y,CHG >= -15,Y,CHG >= 15,N,,,Y,,Y,48,BEST CORRECTED VISUAL ACUITY,OVERALL EVALUATION,2013-01-07,WEEK 10 (T),8.1,70,18,18,18,Visual Acuity Score,VACSCORE,,RIGHT,EYE,72,ETDRS EYE CHART,,,,PRE-DOSE,-0.5,LEFT,Fellow Eye,
124,CDISCPILOT01,01-701-1133,OE,Xanomeline High Dose,Xanomeline High Dose,2012-10-28,2013-04-28,2013-04-18,173,Week 24,12,PRE-DOSE,-0.5,Fellow Eye Visual Acuity Score (letters),FBCVA,32,32,letters,20/250,250,18,18,LAST,14,77.77777777777779,0 <= CHG <= 5,N,-5 <= CHG <= -1,N,10 <= CHG <= 15,Y,CHG <= -20,N,CHG <= 5,N,CHG <= 10,N,CHG >= -15,Y,CHG >= 15,N,,,Y,Y,Y,80,BEST CORRECTED VISUAL ACUITY,OVERALL EVALUATION,2013-04-18,WEEK 24,12,168,32,32,32,Visual Acuity Score,VACSCORE,,RIGHT,EYE,173,ETDRS EYE CHART,,,,PRE-DOSE,-0.5,LEFT,Fellow Eye,
125,CDISCPILOT01,01-701-1133,OE,Xanomeline High Dose,Xanomeline High Dose,2012-10-28,2013-04-28,2012-11-26,30,Week 4,5,PRE-DOSE,-0.5,Fellow Eye Visual Acuity Score (letters),FBCVA,40,40,letters,20/160,160,18,18,LAST,22,122.22222222222223,0 <= CHG <= 5,N,-5 <= CHG <= -1,N,10 <= CHG <= 15,N,CHG <= -20,N,CHG <= 5,N,CHG <= 10,N,CHG >= -15,Y,CHG >= 15,Y,,,Y,,Y,24,BEST CORRECTED VISUAL ACUITY,OVERALL EVALUATION,2012-11-26,WEEK 4,5,28,40,40,40,Visual Acuity Score,VACSCORE,,RIGHT,EYE,30,ETDRS EYE CHART,,,,PRE-DOSE,-0.5,LEFT,Fellow Eye,
126,CDISCPILOT01,01-701-1133,OE,Xanomeline High Dose,Xanomeline High Dose,2012-10-28,2013-04-28,2012-12-11,45,Week 6,7,PRE-DOSE,-0.5,Fellow Eye Visual Acuity Score (letters),FBCVA,68,68,letters,20/50,50,18,18,LAST,50,277.77777777777777,0 <= CHG <= 5,N,-5 <= CHG <= -1,N,10 <= CHG <= 15,N,CHG <= -20,N,CHG <= 5,N,CHG <= 10,N,CHG >= -15,Y,CHG >= 15,Y,,,Y,,Y,32,BEST CORRECTED VISUAL ACUITY,OVERALL EVALUATION,2012-12-11,WEEK 6,7,42,68,68,68,Visual Acuity Score,VACSCORE,,RIGHT,EYE,45,ETDRS EYE CHART,,,,PRE-DOSE,-0.5,LEFT,Fellow Eye,
127,CDISCPILOT01,01-701-1133,OE,Xanomeline High Dose,Xanomeline High Dose,2012-10-28,2013-04-28,2013-03-18,142,Week 20,11,PRE-DOSE,-0.5,Fellow Eye Visual Acuity Score (letters),FBCVA,87,87,letters,20/20,20,18,18,LAST,69,383.33333333333337,0 <= CHG <= 5,N,-5 <= CHG <= -1,N,10 <= CHG <= 15,N,CHG <= -20,N,CHG <= 5,N,CHG <= 10,N,CHG >= -15,Y,CHG >= 15,Y,,,Y,,Y,72,BEST CORRECTED VISUAL ACUITY,OVERALL EVALUATION,2013-03-18,WEEK 20,11,140,87,87,87,Visual Acuity Score,VACSCORE,,RIGHT,EYE,142,ETDRS EYE CHART,,,,PRE-DOSE,-0.5,LEFT,Fellow Eye,
128,CDISCPILOT01,01-701-1133,OE,Xanomeline High Dose,Xanomeline High Dose,2012-10-28,2013-04-28,2013-01-22,87,Week 12,9,PRE-DOSE,-0.5,Fellow Eye Visual Acuity Score (letters),FBCVA,93,93,letters,20/16,16,18,18,LAST,75,416.6666666666667,0 <= CHG <= 5,N,-5 <= CHG <= -1,N,10 <= CHG <= 15,N,CHG <= -20,N,CHG <= 5,N,CHG <= 10,N,CHG >= -15,Y,CHG >= 15,Y,,,Y,,Y,56,BEST CORRECTED VISUAL ACUITY,OVERALL EVALUATION,2013-01-22,WEEK 12,9,84,93,93,93,Visual Acuity Score,VACSCORE,,RIGHT,EYE,87,ETDRS EYE CHART,,,,PRE-DOSE,-0.5,LEFT,Fellow Eye,
129,CDISCPILOT01,01-701-1133,OE,Xanomeline High Dose,Xanomeline High Dose,2012-10-28,2013-04-28,2012-12-24,58,Week 8,8,PRE-DOSE,-0.5,Fellow Eye Visual Acuity Score (letters),FBCVA,96,96,letters,20/12,12,18,18,LAST,78,433.3333333333333,0 <= CHG <= 5,N,-5 <= CHG <= -1,N,10 <= CHG <= 15,N,CHG <= -20,N,CHG <= 5,N,CHG <= 10,N,CHG >= -15,Y,CHG >= 15,Y,,,Y,,Y,40,BEST CORRECTED VISUAL ACUITY,OVERALL EVALUATION,2012-12-24,WEEK 8,8,56,96,96,96,Visual Acuity Score,VACSCORE,,RIGHT,EYE,58,ETDRS EYE CHART,,,,PRE-DOSE,-0.5,LEFT,Fellow Eye,
130,CDISCPILOT01,01-701-1133,OE,Xanomeline High Dose,Xanomeline High Dose,2012-10-28,2013-04-28,2013-02-18,114,Week 16,10,PRE-DOSE,-0.5,Study Eye Visual Acuity Score (letters),SBCVA,31,31,letters,20/250,250,64,64,LAST,-33,-51.5625,0 <= CHG <= 5,N,-5 <= CHG <= -1,N,10 <= CHG <= 15,N,CHG <= -20,Y,CHG <= 5,Y,CHG <= 10,Y,CHG >= -15,N,CHG >= 15,N,,,Y,,Y,63,BEST CORRECTED VISUAL ACUITY,OVERALL EVALUATION,2013-02-18,WEEK 16,10,112,31,31,31,Visual Acuity Score,VACSCORE,,LEFT,EYE,114,ETDRS EYE CHART,,,,PRE-DOSE,-0.5,LEFT,Study Eye,Y
131,CDISCPILOT01,01-701-1133,OE,Xanomeline High Dose,Xanomeline High Dose,2012-10-28,2013-04-28,2012-11-26,30,Week 4,5,PRE-DOSE,-0.5,Study Eye Visual Acuity Score (letters),SBCVA,32,32,letters,20/250,250,64,64,LAST,-32,-50,0 <= CHG <= 5,N,-5 <= CHG <= -1,N,10 <= CHG <= 15,N,CHG <= -20,Y,CHG <= 5,Y,CHG <= 10,Y,CHG >= -15,N,CHG >= 15,N,,,Y,,Y,23,BEST CORRECTED VISUAL ACUITY,OVERALL EVALUATION,2012-11-26,WEEK 4,5,28,32,32,32,Visual Acuity Score,VACSCORE,,LEFT,EYE,30,ETDRS EYE CHART,,,,PRE-DOSE,-0.5,LEFT,Study Eye,
132,CDISCPILOT01,01-701-1133,OE,Xanomeline High Dose,Xanomeline High Dose,2012-10-28,2013-04-28,2013-01-07,72,Week 10 (T),8,PRE-DOSE,-0.5,Study Eye Visual Acuity Score (letters),SBCVA,34,34,letters,20/200,200,64,64,LAST,-30,-46.875,0 <= CHG <= 5,N,-5 <= CHG <= -1,N,10 <= CHG <= 15,N,CHG <= -20,Y,CHG <= 5,Y,CHG <= 10,Y,CHG >= -15,N,CHG >= 15,N,,,Y,,Y,47,BEST CORRECTED VISUAL ACUITY,OVERALL EVALUATION,2013-01-07,WEEK 10 (T),8.1,70,34,34,34,Visual Acuity Score,VACSCORE,,LEFT,EYE,72,ETDRS EYE CHART,,,,PRE-DOSE,-0.5,LEFT,Study Eye,
133,CDISCPILOT01,01-701-1133,OE,Xanomeline High Dose,Xanomeline High Dose,2012-10-28,2013-04-28,2013-03-18,142,Week 20,11,PRE-DOSE,-0.5,Study Eye Visual Acuity Score (letters),SBCVA,39,39,letters,20/160,160,64,64,LAST,-25,-39.0625,0 <= CHG <= 5,N,-5 <= CHG <= -1,N,10 <= CHG <= 15,N,CHG <= -20,Y,CHG <= 5,Y,CHG <= 10,Y,CHG >= -15,N,CHG >= 15,N,,,Y,,Y,71,BEST CORRECTED VISUAL ACUITY,OVERALL EVALUATION,2013-03-18,WEEK 20,11,140,39,39,39,Visual Acuity Score,VACSCORE,,LEFT,EYE,142,ETDRS EYE CHART,,,,PRE-DOSE,-0.5,LEFT,Study Eye,
134,CDISCPILOT01,01-701-1133,OE,Xanomeline High Dose,Xanomeline High Dose,2012-10-28,2013-04-28,2013-01-22,87,Week 12,9,PRE-DOSE,-0.5,Study Eye Visual Acuity Score (letters),SBCVA,44,44,letters,20/125,125,64,64,LAST,-20,-31.25,0 <= CHG <= 5,N,-5 <= CHG <= -1,N,10 <= CHG <= 15,N,CHG <= -20,Y,CHG <= 5,Y,CHG <= 10,Y,CHG >= -15,N,CHG >= 15,N,,,Y,,Y,55,BEST CORRECTED VISUAL ACUITY,OVERALL EVALUATION,2013-01-22,WEEK 12,9,84,44,44,44,Visual Acuity Score,VACSCORE,,LEFT,EYE,87,ETDRS EYE CHART,,,,PRE-DOSE,-0.5,LEFT,Study Eye,
135,CDISCPILOT01,01-701-1133,OE,Xanomeline High Dose,Xanomeline High Dose,2012-10-28,2013-04-28,2013-04-18,173,Week 24,12,PRE-DOSE,-0.5,Study Eye Visual Acuity Score (letters),SBCVA,53,53,letters,20/100,100,64,64,LAST,-11,-17.1875,0 <= CHG <= 5,N,-5 <= CHG <= -1,N,10 <= CHG <= 15,N,CHG <= -20,N,CHG <= 5,Y,CHG <= 10,Y,CHG >= -15,Y,CHG >= 15,N,,,Y,Y,Y,79,BEST CORRECTED VISUAL ACUITY,OVERALL EVALUATION,2013-04-18,WEEK 24,12,168,53,53,53,Visual Acuity Score,VACSCORE,,LEFT,EYE,173,ETDRS EYE CHART,,,,PRE-DOSE,-0.5,LEFT,Study Eye,
136,CDISCPILOT01,01-701-1133,OE,Xanomeline High Dose,Xanomeline High Dose,2012-10-28,2013-04-28,2012-10-28,1,Baseline,3,PRE-DOSE,-0.5,Study Eye Visual Acuity Score (letters),SBCVA,64,64,letters,20/50,50,64,64,LAST,0,0,0 <= CHG <= 5,Y,-5 <= CHG <= -1,N,10 <= CHG <= 15,N,CHG <= -20,N,CHG <= 5,Y,CHG <= 10,Y,CHG >= -15,Y,CHG >= 15,N,,Y,Y,Y,,15,BEST CORRECTED VISUAL ACUITY,OVERALL EVALUATION,2012-10-28,BASELINE,3,1,64,64,64,Visual Acuity Score,VACSCORE,,LEFT,EYE,1,ETDRS EYE CHART,,,,PRE-DOSE,-0.5,LEFT,Study Eye,
137,CDISCPILOT01,01-701-1133,OE,Xanomeline High Dose,Xanomeline High Dose,2012-10-28,2013-04-28,2012-12-11,45,Week 6,7,PRE-DOSE,-0.5,Study Eye Visual Acuity Score (letters),SBCVA,74,74,letters,20/32,32,64,64,LAST,10,15.625,0 <= CHG <= 5,N,-5 <= CHG <= -1,N,10 <= CHG <= 15,Y,CHG <= -20,N,CHG <= 5,N,CHG <= 10,Y,CHG >= -15,Y,CHG >= 15,N,,,Y,,Y,31,BEST CORRECTED VISUAL ACUITY,OVERALL EVALUATION,2012-12-11,WEEK 6,7,42,74,74,74,Visual Acuity Score,VACSCORE,,LEFT,EYE,45,ETDRS EYE CHART,,,,PRE-DOSE,-0.5,LEFT,Study Eye,
138,CDISCPILOT01,01-701-1133,OE,Xanomeline High Dose,Xanomeline High Dose,2012-10-28,2013-04-28,2012-12-24,58,Week 8,8,PRE-DOSE,-0.5,Study Eye Visual Acuity Score (letters),SBCVA,94,94,letters,20/12,12,64,64,LAST,30,46.875,0 <= CHG <= 5,N,-5 <= CHG <= -1,N,10 <= CHG <= 15,N,CHG <= -20,N,CHG <= 5,N,CHG <= 10,N,CHG >= -15,Y,CHG >= 15,Y,,,Y,,Y,39,BEST CORRECTED VISUAL ACUITY,OVERALL EVALUATION,2012-12-24,WEEK 8,8,56,94,94,94,Visual Acuity Score,VACSCORE,,LEFT,EYE,58,ETDRS EYE CHART,,,,PRE-DOSE,-0.5,LEFT,Study Eye,
139,CDISCPILOT01,01-701-1146,OE,Xanomeline High Dose,Xanomeline High Dose,2013-05-20,2013-06-26,2013-05-20,1,Baseline,3,PRE-DOSE,-0.5,Fellow Eye Visual Acuity Score (letters),FBCVA,15,15,letters,20/500,500,15,15,LAST,0,0,0 <= CHG <= 5,Y,-5 <= CHG <= -1,N,10 <= CHG <= 15,N,CHG <= -20,N,CHG <= 5,Y,CHG <= 10,Y,CHG >= -15,Y,CHG >= 15,N,,Y,Y,Y,,15,BEST CORRECTED VISUAL ACUITY,OVERALL EVALUATION,2013-05-20,BASELINE,3,1,15,15,15,Visual Acuity Score,VACSCORE,,LEFT,EYE,1,ETDRS EYE CHART,,,,PRE-DOSE,-0.5,RIGHT,Fellow Eye,Y
140,CDISCPILOT01,01-701-1146,OE,Xanomeline High Dose,Xanomeline High Dose,2013-05-20,2013-06-26,2013-06-16,28,Week 4,5,PRE-DOSE,-0.5,Fellow Eye Visual Acuity Score (letters),FBCVA,56,56,letters,20/80,80,15,15,LAST,41,273.3333333333333,0 <= CHG <= 5,N,-5 <= CHG <= -1,N,10 <= CHG <= 15,N,CHG <= -20,N,CHG <= 5,N,CHG <= 10,N,CHG >= -15,Y,CHG >= 15,Y,,,Y,Y,Y,23,BEST CORRECTED VISUAL ACUITY,OVERALL EVALUATION,2013-06-16,WEEK 4,5,28,56,56,56,Visual Acuity Score,VACSCORE,,LEFT,EYE,28,ETDRS EYE CHART,,,,PRE-DOSE,-0.5,RIGHT,Fellow Eye,
141,CDISCPILOT01,01-701-1146,OE,Xanomeline High Dose,Xanomeline High Dose,2013-05-20,2013-06-26,2013-05-20,1,Baseline,3,PRE-DOSE,-0.5,Study Eye Visual Acuity Score (letters),SBCVA,1,1,letters,< 20/800,1000,1,1,LAST,0,0,0 <= CHG <= 5,Y,-5 <= CHG <= -1,N,10 <= CHG <= 15,N,CHG <= -20,N,CHG <= 5,Y,CHG <= 10,Y,CHG >= -15,Y,CHG >= 15,N,,Y,Y,Y,,16,BEST CORRECTED VISUAL ACUITY,OVERALL EVALUATION,2013-05-20,BASELINE,3,1,1,1,1,Visual Acuity Score,VACSCORE,,RIGHT,EYE,1,ETDRS EYE CHART,,,,PRE-DOSE,-0.5,RIGHT,Study Eye,Y
142,CDISCPILOT01,01-701-1146,OE,Xanomeline High Dose,Xanomeline High Dose,2013-05-20,2013-06-26,2013-06-16,28,Week 4,5,PRE-DOSE,-0.5,Study Eye Visual Acuity Score (letters),SBCVA,61,61,letters,20/63,63,1,1,LAST,60,6000,0 <= CHG <= 5,N,-5 <= CHG <= -1,N,10 <= CHG <= 15,N,CHG <= -20,N,CHG <= 5,N,CHG <= 10,N,CHG >= -15,Y,CHG >= 15,Y,,,Y,Y,Y,24,BEST CORRECTED VISUAL ACUITY,OVERALL EVALUATION,2013-06-16,WEEK 4,5,28,61,61,61,Visual Acuity Score,VACSCORE,,RIGHT,EYE,28,ETDRS EYE CHART,,,,PRE-DOSE,-0.5,RIGHT,Study Eye,
143,CDISCPILOT01,01-701-1148,OE,Xanomeline High Dose,Xanomeline High Dose,2013-08-23,2014-02-20,2014-01-10,141,Week 20,11,PRE-DOSE,-0.5,Fellow Eye Visual Acuity Score (letters),FBCVA,9,9,letters,20/640,640,86,86,LAST,-77,-89.53488372093024,0 <= CHG <= 5,N,-5 <= CHG <= -1,N,10 <= CHG <= 15,N,CHG <= -20,Y,CHG <= 5,Y,CHG <= 10,Y,CHG >= -15,N,CHG >= 15,N,,,Y,,Y,71,BEST CORRECTED VISUAL ACUITY,OVERALL EVALUATION,2014-01-10,WEEK 20,11,140,9,9,9,Visual Acuity Score,VACSCORE,,LEFT,EYE,141,ETDRS EYE CHART,,,,PRE-DOSE,-0.5,RIGHT,Fellow Eye,Y
144,CDISCPILOT01,01-701-1148,OE,Xanomeline High Dose,Xanomeline High Dose,2013-08-23,2014-02-20,2013-10-03,42,Week 6,7,PRE-DOSE,-0.5,Fellow Eye Visual Acuity Score (letters),FBCVA,17,17,letters,20/500,500,86,86,LAST,-69,-80.23255813953489,0 <= CHG <= 5,N,-5 <= CHG <= -1,N,10 <= CHG <= 15,N,CHG <= -20,Y,CHG <= 5,Y,CHG <= 10,Y,CHG >= -15,N,CHG >= 15,N,,,Y,,Y,31,BEST CORRECTED VISUAL ACUITY,OVERALL EVALUATION,2013-10-03,WEEK 6,7,42,17,17,17,Visual Acuity Score,VACSCORE,,LEFT,EYE,42,ETDRS EYE CHART,,,,PRE-DOSE,-0.5,RIGHT,Fellow Eye,
145,CDISCPILOT01,01-701-1148,OE,Xanomeline High Dose,Xanomeline High Dose,2013-08-23,2014-02-20,2013-11-17,87,Week 12,9,PRE-DOSE,-0.5,Fellow Eye Visual Acuity Score (letters),FBCVA,18,18,letters,20/500,500,86,86,LAST,-68,-79.06976744186046,0 <= CHG <= 5,N,-5 <= CHG <= -1,N,10 <= CHG <= 15,N,CHG <= -20,Y,CHG <= 5,Y,CHG <= 10,Y,CHG >= -15,N,CHG >= 15,N,,,Y,,Y,55,BEST CORRECTED VISUAL ACUITY,OVERALL EVALUATION,2013-11-17,WEEK 12,9,84,18,18,18,Visual Acuity Score,VACSCORE,,LEFT,EYE,87,ETDRS EYE CHART,,,,PRE-DOSE,-0.5,RIGHT,Fellow Eye,
146,CDISCPILOT01,01-701-1148,OE,Xanomeline High Dose,Xanomeline High Dose,2013-08-23,2014-02-20,2013-12-13,113,Week 16,10,PRE-DOSE,-0.5,Fellow Eye Visual Acuity Score (letters),FBCVA,19,19,letters,20/400,400,86,86,LAST,-67,-77.90697674418605,0 <= CHG <= 5,N,-5 <= CHG <= -1,N,10 <= CHG <= 15,N,CHG <= -20,Y,CHG <= 5,Y,CHG <= 10,Y,CHG >= -15,N,CHG >= 15,N,,,Y,,Y,63,BEST CORRECTED VISUAL ACUITY,OVERALL EVALUATION,2013-12-13,WEEK 16,10,112,19,19,19,Visual Acuity Score,VACSCORE,,LEFT,EYE,113,ETDRS EYE CHART,,,,PRE-DOSE,-0.5,RIGHT,Fellow Eye,
147,CDISCPILOT01,01-701-1148,OE,Xanomeline High Dose,Xanomeline High Dose,2013-08-23,2014-02-20,2014-02-08,170,Week 24,12,PRE-DOSE,-0.5,Fellow Eye Visual Acuity Score (letters),FBCVA,23,23,letters,20/400,400,86,86,LAST,-63,-73.25581395348837,0 <= CHG <= 5,N,-5 <= CHG <= -1,N,10 <= CHG <= 15,N,CHG <= -20,Y,CHG <= 5,Y,CHG <= 10,Y,CHG >= -15,N,CHG >= 15,N,,,Y,Y,Y,79,BEST CORRECTED VISUAL ACUITY,OVERALL EVALUATION,2014-02-08,WEEK 24,12,168,23,23,23,Visual Acuity Score,VACSCORE,,LEFT,EYE,170,ETDRS EYE CHART,,,,PRE-DOSE,-0.5,RIGHT,Fellow Eye,
148,CDISCPILOT01,01-701-1148,OE,Xanomeline High Dose,Xanomeline High Dose,2013-08-23,2014-02-20,2013-09-19,28,Week 4,5,PRE-DOSE,-0.5,Fellow Eye Visual Acuity Score (letters),FBCVA,59,59,letters,20/63,63,86,86,LAST,-27,-31.3953488372093,0 <= CHG <= 5,N,-5 <= CHG <= -1,N,10 <= CHG <= 15,N,CHG <= -20,Y,CHG <= 5,Y,CHG <= 10,Y,CHG >= -15,N,CHG >= 15,N,,,Y,,Y,23,BEST CORRECTED VISUAL ACUITY,OVERALL EVALUATION,2013-09-19,WEEK 4,5,28,59,59,59,Visual Acuity Score,VACSCORE,,LEFT,EYE,28,ETDRS EYE CHART,,,,PRE-DOSE,-0.5,RIGHT,Fellow Eye,
149,CDISCPILOT01,01-701-1148,OE,Xanomeline High Dose,Xanomeline High Dose,2013-08-23,2014-02-20,2013-10-18,57,Week 8,8,PRE-DOSE,-0.5,Fellow Eye Visual Acuity Score (letters),FBCVA,76,76,letters,20/32,32,86,86,LAST,-10,-11.627906976744185,0 <= CHG <= 5,N,-5 <= CHG <= -1,N,10 <= CHG <= 15,N,CHG <= -20,N,CHG <= 5,Y,CHG <= 10,Y,CHG >= -15,Y,CHG >= 15,N,,,Y,,Y,39,BEST CORRECTED VISUAL ACUITY,OVERALL EVALUATION,2013-10-18,WEEK 8,8,56,76,76,76,Visual Acuity Score,VACSCORE,,LEFT,EYE,57,ETDRS EYE CHART,,,,PRE-DOSE,-0.5,RIGHT,Fellow Eye,
150,CDISCPILOT01,01-701-1148,OE,Xanomeline High Dose,Xanomeline High Dose,2013-08-23,2014-02-20,2013-11-01,71,Week 10 (T),8,PRE-DOSE,-0.5,Fellow Eye Visual Acuity Score (letters),FBCVA,82,82,letters,20/25,25,86,86,LAST,-4,-4.651162790697675,0 <= CHG <= 5,N,-5 <= CHG <= -1,Y,10 <= CHG <= 15,N,CHG <= -20,N,CHG <= 5,Y,CHG <= 10,Y,CHG >= -15,Y,CHG >= 15,N,,,Y,,Y,47,BEST CORRECTED VISUAL ACUITY,OVERALL EVALUATION,2013-11-01,WEEK 10 (T),8.1,70,82,82,82,Visual Acuity Score,VACSCORE,,LEFT,EYE,71,ETDRS EYE CHART,,,,PRE-DOSE,-0.5,RIGHT,Fellow Eye,
151,CDISCPILOT01,01-701-1148,OE,Xanomeline High Dose,Xanomeline High Dose,2013-08-23,2014-02-20,2013-08-23,1,Baseline,3,PRE-DOSE,-0.5,Fellow Eye Visual Acuity Score (letters),FBCVA,86,86,letters,20/20,20,86,86,LAST,0,0,0 <= CHG <= 5,Y,-5 <= CHG <= -1,N,10 <= CHG <= 15,N,CHG <= -20,N,CHG <= 5,Y,CHG <= 10,Y,CHG >= -15,Y,CHG >= 15,N,,Y,Y,Y,,15,BEST CORRECTED VISUAL ACUITY,OVERALL EVALUATION,2013-08-23,BASELINE,3,1,86,86,86,Visual Acuity Score,VACSCORE,,LEFT,EYE,1,ETDRS EYE CHART,,,,PRE-DOSE,-0.5,RIGHT,Fellow Eye,
152,CDISCPILOT01,01-701-1148,OE,Xanomeline High Dose,Xanomeline High Dose,2013-08-23,2014-02-20,2013-10-03,42,Week 6,7,PRE-DOSE,-0.5,Study Eye Visual Acuity Score (letters),SBCVA,21,21,letters,20/400,400,47,47,LAST,-26,-55.319148936170215,0 <= CHG <= 5,N,-5 <= CHG <= -1,N,10 <= CHG <= 15,N,CHG <= -20,Y,CHG <= 5,Y,CHG <= 10,Y,CHG >= -15,N,CHG >= 15,N,,,Y,,Y,32,BEST CORRECTED VISUAL ACUITY,OVERALL EVALUATION,2013-10-03,WEEK 6,7,42,21,21,21,Visual Acuity Score,VACSCORE,,RIGHT,EYE,42,ETDRS EYE CHART,,,,PRE-DOSE,-0.5,RIGHT,Study Eye,Y
153,CDISCPILOT01,01-701-1148,OE,Xanomeline High Dose,Xanomeline High Dose,2013-08-23,2014-02-20,2013-12-13,113,Week 16,10,PRE-DOSE,-0.5,Study Eye Visual Acuity Score (letters),SBCVA,22,22,letters,20/400,400,47,47,LAST,-25,-53.191489361702125,0 <= CHG <= 5,N,-5 <= CHG <= -1,N,10 <= CHG <= 15,N,CHG <= -20,Y,CHG <= 5,Y,CHG <= 10,Y,CHG >= -15,N,CHG >= 15,N,,,Y,,Y,64,BEST CORRECTED VISUAL ACUITY,OVERALL EVALUATION,2013-12-13,WEEK 16,10,112,22,22,22,Visual Acuity Score,VACSCORE,,RIGHT,EYE,113,ETDRS EYE CHART,,,,PRE-DOSE,-0.5,RIGHT,Study Eye,
154,CDISCPILOT01,01-701-1148,OE,Xanomeline High Dose,Xanomeline High Dose,2013-08-23,2014-02-20,2013-09-19,28,Week 4,5,PRE-DOSE,-0.5,Study Eye Visual Acuity Score (letters),SBCVA,31,31,letters,20/250,250,47,47,LAST,-16,-34.04255319148936,0 <= CHG <= 5,N,-5 <= CHG <= -1,N,10 <= CHG <= 15,N,CHG <= -20,N,CHG <= 5,Y,CHG <= 10,Y,CHG >= -15,N,CHG >= 15,N,,,Y,,Y,24,BEST CORRECTED VISUAL ACUITY,OVERALL EVALUATION,2013-09-19,WEEK 4,5,28,31,31,31,Visual Acuity Score,VACSCORE,,RIGHT,EYE,28,ETDRS EYE CHART,,,,PRE-DOSE,-0.5,RIGHT,Study Eye,
155,CDISCPILOT01,01-701-1148,OE,Xanomeline High Dose,Xanomeline High Dose,2013-08-23,2014-02-20,2013-08-23,1,Baseline,3,PRE-DOSE,-0.5,Study Eye Visual Acuity Score (letters),SBCVA,47,47,letters,20/125,125,47,47,LAST,0,0,0 <= CHG <= 5,Y,-5 <= CHG <= -1,N,10 <= CHG <= 15,N,CHG <= -20,N,CHG <= 5,Y,CHG <= 10,Y,CHG >= -15,Y,CHG >= 15,N,,Y,Y,Y,,16,BEST CORRECTED VISUAL ACUITY,OVERALL EVALUATION,2013-08-23,BASELINE,3,1,47,47,47,Visual Acuity Score,VACSCORE,,RIGHT,EYE,1,ETDRS EYE CHART,,,,PRE-DOSE,-0.5,RIGHT,Study Eye,
156,CDISCPILOT01,01-701-1148,OE,Xanomeline High Dose,Xanomeline High Dose,2013-08-23,2014-02-20,2014-01-10,141,Week 20,11,PRE-DOSE,-0.5,Study Eye Visual Acuity Score (letters),SBCVA,54,54,letters,20/80,80,47,47,LAST,7,14.893617021276595,0 <= CHG <= 5,N,-5 <= CHG <= -1,N,10 <= CHG <= 15,N,CHG <= -20,N,CHG <= 5,N,CHG <= 10,Y,CHG >= -15,Y,CHG >= 15,N,,,Y,,Y,72,BEST CORRECTED VISUAL ACUITY,OVERALL EVALUATION,2014-01-10,WEEK 20,11,140,54,54,54,Visual Acuity Score,VACSCORE,,RIGHT,EYE,141,ETDRS EYE CHART,,,,PRE-DOSE,-0.5,RIGHT,Study Eye,
157,CDISCPILOT01,01-701-1148,OE,Xanomeline High Dose,Xanomeline High Dose,2013-08-23,2014-02-20,2014-02-08,170,Week 24,12,PRE-DOSE,-0.5,Study Eye Visual Acuity Score (letters),SBCVA,71,71,letters,20/40,40,47,47,LAST,24,51.06382978723404,0 <= CHG <= 5,N,-5 <= CHG <= -1,N,10 <= CHG <= 15,N,CHG <= -20,N,CHG <= 5,N,CHG <= 10,N,CHG >= -15,Y,CHG >= 15,Y,,,Y,Y,Y,80,BEST CORRECTED VISUAL ACUITY,OVERALL EVALUATION,2014-02-08,WEEK 24,12,168,71,71,71,Visual Acuity Score,VACSCORE,,RIGHT,EYE,170,ETDRS EYE CHART,,,,PRE-DOSE,-0.5,RIGHT,Study Eye,
158,CDISCPILOT01,01-701-1148,OE,Xanomeline High Dose,Xanomeline High Dose,2013-08-23,2014-02-20,2013-11-17,87,Week 12,9,PRE-DOSE,-0.5,Study Eye Visual Acuity Score (letters),SBCVA,85,85,letters,20/20,20,47,47,LAST,38,80.85106382978722,0 <= CHG <= 5,N,-5 <= CHG <= -1,N,10 <= CHG <= 15,N,CHG <= -20,N,CHG <= 5,N,CHG <= 10,N,CHG >= -15,Y,CHG >= 15,Y,,,Y,,Y,56,BEST CORRECTED VISUAL ACUITY,OVERALL EVALUATION,2013-11-17,WEEK 12,9,84,85,85,85,Visual Acuity Score,VACSCORE,,RIGHT,EYE,87,ETDRS EYE CHART,,,,PRE-DOSE,-0.5,RIGHT,Study Eye,
159,CDISCPILOT01,01-701-1148,OE,Xanomeline High Dose,Xanomeline High Dose,2013-08-23,2014-02-20,2013-10-18,57,Week 8,8,PRE-DOSE,-0.5,Study Eye Visual Acuity Score (letters),SBCVA,87,87,letters,20/20,20,47,47,LAST,40,85.1063829787234,0 <= CHG <= 5,N,-5 <= CHG <= -1,N,10 <= CHG <= 15,N,CHG <= -20,N,CHG <= 5,N,CHG <= 10,N,CHG >= -15,Y,CHG >= 15,Y,,,Y,,Y,40,BEST CORRECTED VISUAL ACUITY,OVERALL EVALUATION,2013-10-18,WEEK 8,8,56,87,87,87,Visual Acuity Score,VACSCORE,,RIGHT,EYE,57,ETDRS EYE CHART,,,,PRE-DOSE,-0.5,RIGHT,Study Eye,
160,CDISCPILOT01,01-701-1148,OE,Xanomeline High Dose,Xanomeline High Dose,2013-08-23,2014-02-20,2013-11-01,71,Week 10 (T),8,PRE-DOSE,-0.5,Study Eye Visual Acuity Score (letters),SBCVA,100,100,letters,> 20/12,1,47,47,LAST,53,112.7659574468085,0 <= CHG <= 5,N,-5 <= CHG <= -1,N,10 <= CHG <= 15,N,CHG <= -20,N,CHG <= 5,N,CHG <= 10,N,CHG >= -15,Y,CHG >= 15,Y,,,Y,,Y,48,BEST CORRECTED VISUAL ACUITY,OVERALL EVALUATION,2013-11-01,WEEK 10 (T),8.1,70,100,100,100,Visual Acuity Score,VACSCORE,,RIGHT,EYE,71,ETDRS EYE CHART,,,,PRE-DOSE,-0.5,RIGHT,Study Eye,
161,CDISCPILOT01,01-701-1153,OE,Placebo,Placebo,2013-09-23,2014-03-16,2014-02-11,142,Week 20,11,PRE-DOSE,-0.5,Fellow Eye Visual Acuity Score (letters),FBCVA,15,15,letters,20/500,500,59,59,LAST,-44,-74.57627118644068,0 <= CHG <= 5,N,-5 <= CHG <= -1,N,10 <= CHG <= 15,N,CHG <= -20,Y,CHG <= 5,Y,CHG <= 10,Y,CHG >= -15,N,CHG >= 15,N,,,Y,,Y,71,BEST CORRECTED VISUAL ACUITY,OVERALL EVALUATION,2014-02-11,WEEK 20,11,140,15,15,15,Visual Acuity Score,VACSCORE,,LEFT,EYE,142,ETDRS EYE CHART,,,,PRE-DOSE,-0.5,RIGHT,Fellow Eye,Y
162,CDISCPILOT01,01-701-1153,OE,Placebo,Placebo,2013-09-23,2014-03-16,2013-12-16,85,Week 12,9,PRE-DOSE,-0.5,Fellow Eye Visual Acuity Score (letters),FBCVA,25,25,letters,20/320,320,59,59,LAST,-34,-57.6271186440678,0 <= CHG <= 5,N,-5 <= CHG <= -1,N,10 <= CHG <= 15,N,CHG <= -20,Y,CHG <= 5,Y,CHG <= 10,Y,CHG >= -15,N,CHG >= 15,N,,,Y,,Y,55,BEST CORRECTED VISUAL ACUITY,OVERALL EVALUATION,2013-12-16,WEEK 12,9,84,25,25,25,Visual Acuity Score,VACSCORE,,LEFT,EYE,85,ETDRS EYE CHART,,,,PRE-DOSE,-0.5,RIGHT,Fellow Eye,
163,CDISCPILOT01,01-701-1153,OE,Placebo,Placebo,2013-09-23,2014-03-16,2013-12-02,71,Week 10 (T),8,PRE-DOSE,-0.5,Fellow Eye Visual Acuity Score (letters),FBCVA,35,35,letters,20/200,200,59,59,LAST,-24,-40.67796610169492,0 <= CHG <= 5,N,-5 <= CHG <= -1,N,10 <= CHG <= 15,N,CHG <= -20,Y,CHG <= 5,Y,CHG <= 10,Y,CHG >= -15,N,CHG >= 15,N,,,Y,,Y,47,BEST CORRECTED VISUAL ACUITY,OVERALL EVALUATION,2013-12-02,WEEK 10 (T),8.1,70,35,35,35,Visual Acuity Score,VACSCORE,,LEFT,EYE,71,ETDRS EYE CHART,,,,PRE-DOSE,-0.5,RIGHT,Fellow Eye,
164,CDISCPILOT01,01-701-1153,OE,Placebo,Placebo,2013-09-23,2014-03-16,2014-01-08,108,Week 16,10,PRE-DOSE,-0.5,Fellow Eye Visual Acuity Score (letters),FBCVA,47,47,letters,20/125,125,59,59,LAST,-12,-20.33898305084746,0 <= CHG <= 5,N,-5 <= CHG <= -1,N,10 <= CHG <= 15,N,CHG <= -20,N,CHG <= 5,Y,CHG <= 10,Y,CHG >= -15,Y,CHG >= 15,N,,,Y,,Y,63,BEST CORRECTED VISUAL ACUITY,OVERALL EVALUATION,2014-01-08,WEEK 16,10,112,47,47,47,Visual Acuity Score,VACSCORE,,LEFT,EYE,108,ETDRS EYE CHART,,,,PRE-DOSE,-0.5,RIGHT,Fellow Eye,
165,CDISCPILOT01,01-701-1153,OE,Placebo,Placebo,2013-09-23,2014-03-16,2013-09-23,1,Baseline,3,PRE-DOSE,-0.5,Fellow Eye Visual Acuity Score (letters),FBCVA,59,59,letters,20/63,63,59,59,LAST,0,0,0 <= CHG <= 5,Y,-5 <= CHG <= -1,N,10 <= CHG <= 15,N,CHG <= -20,N,CHG <= 5,Y,CHG <= 10,Y,CHG >= -15,Y,CHG >= 15,N,,Y,Y,Y,,15,BEST CORRECTED VISUAL ACUITY,OVERALL EVALUATION,2013-09-23,BASELINE,3,1,59,59,59,Visual Acuity Score,VACSCORE,,LEFT,EYE,1,ETDRS EYE CHART,,,,PRE-DOSE,-0.5,RIGHT,Fellow Eye,
166,CDISCPILOT01,01-701-1153,OE,Placebo,Placebo,2013-09-23,2014-03-16,2013-11-18,57,Week 8,8,PRE-DOSE,-0.5,Fellow Eye Visual Acuity Score (letters),FBCVA,68,68,letters,20/50,50,59,59,LAST,9,15.254237288135593,0 <= CHG <= 5,N,-5 <= CHG <= -1,N,10 <= CHG <= 15,N,CHG <= -20,N,CHG <= 5,N,CHG <= 10,Y,CHG >= -15,Y,CHG >= 15,N,,,Y,,Y,39,BEST CORRECTED VISUAL ACUITY,OVERALL EVALUATION,2013-11-18,WEEK 8,8,56,68,68,68,Visual Acuity Score,VACSCORE,,LEFT,EYE,57,ETDRS EYE CHART,,,,PRE-DOSE,-0.5,RIGHT,Fellow Eye,
167,CDISCPILOT01,01-701-1153,OE,Placebo,Placebo,2013-09-23,2014-03-16,2014-03-11,170,Week 24,12,PRE-DOSE,-0.5,Fellow Eye Visual Acuity Score (letters),FBCVA,84,84,letters,20/20,20,59,59,LAST,25,42.3728813559322,0 <= CHG <= 5,N,-5 <= CHG <= -1,N,10 <= CHG <= 15,N,CHG <= -20,N,CHG <= 5,N,CHG <= 10,N,CHG >= -15,Y,CHG >= 15,Y,,,Y,Y,Y,79,BEST CORRECTED VISUAL ACUITY,OVERALL EVALUATION,2014-03-11,WEEK 24,12,168,84,84,84,Visual Acuity Score,VACSCORE,,LEFT,EYE,170,ETDRS EYE CHART,,,,PRE-DOSE,-0.5,RIGHT,Fellow Eye,
168,CDISCPILOT01,01-701-1153,OE,Placebo,Placebo,2013-09-23,2014-03-16,2013-11-04,43,Week 6,7,PRE-DOSE,-0.5,Fellow Eye Visual Acuity Score (letters),FBCVA,92,92,letters,20/16,16,59,59,LAST,33,55.932203389830505,0 <= CHG <= 5,N,-5 <= CHG <= -1,N,10 <= CHG <= 15,N,CHG <= -20,N,CHG <= 5,N,CHG <= 10,N,CHG >= -15,Y,CHG >= 15,Y,,,Y,,Y,31,BEST CORRECTED VISUAL ACUITY,OVERALL EVALUATION,2013-11-04,WEEK 6,7,42,92,92,92,Visual Acuity Score,VACSCORE,,LEFT,EYE,43,ETDRS EYE CHART,,,,PRE-DOSE,-0.5,RIGHT,Fellow Eye,
169,CDISCPILOT01,01-701-1153,OE,Placebo,Placebo,2013-09-23,2014-03-16,2013-10-19,27,Week 4,5,PRE-DOSE,-0.5,Fellow Eye Visual Acuity Score (letters),FBCVA,99,99,letters,> 20/12,1,59,59,LAST,40,67.79661016949152,0 <= CHG <= 5,N,-5 <= CHG <= -1,N,10 <= CHG <= 15,N,CHG <= -20,N,CHG <= 5,N,CHG <= 10,N,CHG >= -15,Y,CHG >= 15,Y,,,Y,,Y,23,BEST CORRECTED VISUAL ACUITY,OVERALL EVALUATION,2013-10-19,WEEK 4,5,28,99,99,99,Visual Acuity Score,VACSCORE,,LEFT,EYE,27,ETDRS EYE CHART,,,,PRE-DOSE,-0.5,RIGHT,Fellow Eye,
170,CDISCPILOT01,01-701-1153,OE,Placebo,Placebo,2013-09-23,2014-03-16,2014-02-11,142,Week 20,11,PRE-DOSE,-0.5,Study Eye Visual Acuity Score (letters),SBCVA,2,2,letters,< 20/800,1000,7,7,LAST,-5,-71.42857142857143,0 <= CHG <= 5,N,-5 <= CHG <= -1,Y,10 <= CHG <= 15,N,CHG <= -20,N,CHG <= 5,Y,CHG <= 10,Y,CHG >= -15,Y,CHG >= 15,N,,,Y,,Y,72,BEST CORRECTED VISUAL ACUITY,OVERALL EVALUATION,2014-02-11,WEEK 20,11,140,2,2,2,Visual Acuity Score,VACSCORE,,RIGHT,EYE,142,ETDRS EYE CHART,,,,PRE-DOSE,-0.5,RIGHT,Study Eye,Y
171,CDISCPILOT01,01-701-1153,OE,Placebo,Placebo,2013-09-23,2014-03-16,2013-09-23,1,Baseline,3,PRE-DOSE,-0.5,Study Eye Visual Acuity Score (letters),SBCVA,7,7,letters,20/800,800,7,7,LAST,0,0,0 <= CHG <= 5,Y,-5 <= CHG <= -1,N,10 <= CHG <= 15,N,CHG <= -20,N,CHG <= 5,Y,CHG <= 10,Y,CHG >= -15,Y,CHG >= 15,N,,Y,Y,Y,,16,BEST CORRECTED VISUAL ACUITY,OVERALL EVALUATION,2013-09-23,BASELINE,3,1,7,7,7,Visual Acuity Score,VACSCORE,,RIGHT,EYE,1,ETDRS EYE CHART,,,,PRE-DOSE,-0.5,RIGHT,Study Eye,
172,CDISCPILOT01,01-701-1153,OE,Placebo,Placebo,2013-09-23,2014-03-16,2014-03-11,170,Week 24,12,PRE-DOSE,-0.5,Study Eye Visual Acuity Score (letters),SBCVA,11,11,letters,20/640,640,7,7,LAST,4,57.14285714285714,0 <= CHG <= 5,Y,-5 <= CHG <= -1,N,10 <= CHG <= 15,N,CHG <= -20,N,CHG <= 5,Y,CHG <= 10,Y,CHG >= -15,Y,CHG >= 15,N,,,Y,Y,Y,80,BEST CORRECTED VISUAL ACUITY,OVERALL EVALUATION,2014-03-11,WEEK 24,12,168,11,11,11,Visual Acuity Score,VACSCORE,,RIGHT,EYE,170,ETDRS EYE CHART,,,,PRE-DOSE,-0.5,RIGHT,Study Eye,
173,CDISCPILOT01,01-701-1153,OE,Placebo,Placebo,2013-09-23,2014-03-16,2013-11-18,57,Week 8,8,PRE-DOSE,-0.5,Study Eye Visual Acuity Score (letters),SBCVA,43,43,letters,20/160,160,7,7,LAST,36,514.2857142857143,0 <= CHG <= 5,N,-5 <= CHG <= -1,N,10 <= CHG <= 15,N,CHG <= -20,N,CHG <= 5,N,CHG <= 10,N,CHG >= -15,Y,CHG >= 15,Y,,,Y,,Y,40,BEST CORRECTED VISUAL ACUITY,OVERALL EVALUATION,2013-11-18,WEEK 8,8,56,43,43,43,Visual Acuity Score,VACSCORE,,RIGHT,EYE,57,ETDRS EYE CHART,,,,PRE-DOSE,-0.5,RIGHT,Study Eye,
174,CDISCPILOT01,01-701-1153,OE,Placebo,Placebo,2013-09-23,2014-03-16,2014-01-08,108,Week 16,10,PRE-DOSE,-0.5,Study Eye Visual Acuity Score (letters),SBCVA,62,62,letters,20/63,63,7,7,LAST,55,785.7142857142857,0 <= CHG <= 5,N,-5 <= CHG <= -1,N,10 <= CHG <= 15,N,CHG <= -20,N,CHG <= 5,N,CHG <= 10,N,CHG >= -15,Y,CHG >= 15,Y,,,Y,,Y,64,BEST CORRECTED VISUAL ACUITY,OVERALL EVALUATION,2014-01-08,WEEK 16,10,112,62,62,62,Visual Acuity Score,VACSCORE,,RIGHT,EYE,108,ETDRS EYE CHART,,,,PRE-DOSE,-0.5,RIGHT,Study Eye,
175,CDISCPILOT01,01-701-1153,OE,Placebo,Placebo,2013-09-23,2014-03-16,2013-12-02,71,Week 10 (T),8,PRE-DOSE,-0.5,Study Eye Visual Acuity Score (letters),SBCVA,69,69,letters,20/40,40,7,7,LAST,62,885.7142857142858,0 <= CHG <= 5,N,-5 <= CHG <= -1,N,10 <= CHG <= 15,N,CHG <= -20,N,CHG <= 5,N,CHG <= 10,N,CHG >= -15,Y,CHG >= 15,Y,,,Y,,Y,48,BEST CORRECTED VISUAL ACUITY,OVERALL EVALUATION,2013-12-02,WEEK 10 (T),8.1,70,69,69,69,Visual Acuity Score,VACSCORE,,RIGHT,EYE,71,ETDRS EYE CHART,,,,PRE-DOSE,-0.5,RIGHT,Study Eye,
176,CDISCPILOT01,01-701-1153,OE,Placebo,Placebo,2013-09-23,2014-03-16,2013-12-16,85,Week 12,9,PRE-DOSE,-0.5,Study Eye Visual Acuity Score (letters),SBCVA,72,72,letters,20/40,40,7,7,LAST,65,928.5714285714287,0 <= CHG <= 5,N,-5 <= CHG <= -1,N,10 <= CHG <= 15,N,CHG <= -20,N,CHG <= 5,N,CHG <= 10,N,CHG >= -15,Y,CHG >= 15,Y,,,Y,,Y,56,BEST CORRECTED VISUAL ACUITY,OVERALL EVALUATION,2013-12-16,WEEK 12,9,84,72,72,72,Visual Acuity Score,VACSCORE,,RIGHT,EYE,85,ETDRS EYE CHART,,,,PRE-DOSE,-0.5,RIGHT,Study Eye,
177,CDISCPILOT01,01-701-1153,OE,Placebo,Placebo,2013-09-23,2014-03-16,2013-10-19,27,Week 4,5,PRE-DOSE,-0.5,Study Eye Visual Acuity Score (letters),SBCVA,78,78,letters,20/32,32,7,7,LAST,71,1014.2857142857142,0 <= CHG <= 5,N,-5 <= CHG <= -1,N,10 <= CHG <= 15,N,CHG <= -20,N,CHG <= 5,N,CHG <= 10,N,CHG >= -15,Y,CHG >= 15,Y,,,Y,,Y,24,BEST CORRECTED VISUAL ACUITY,OVERALL EVALUATION,2013-10-19,WEEK 4,5,28,78,78,78,Visual Acuity Score,VACSCORE,,RIGHT,EYE,27,ETDRS EYE CHART,,,,PRE-DOSE,-0.5,RIGHT,Study Eye,
178,CDISCPILOT01,01-701-1153,OE,Placebo,Placebo,2013-09-23,2014-03-16,2013-11-04,43,Week 6,7,PRE-DOSE,-0.5,Study Eye Visual Acuity Score (letters),SBCVA,98,98,letters,> 20/12,1,7,7,LAST,91,1300,0 <= CHG <= 5,N,-5 <= CHG <= -1,N,10 <= CHG <= 15,N,CHG <= -20,N,CHG <= 5,N,CHG <= 10,N,CHG >= -15,Y,CHG >= 15,Y,,,Y,,Y,32,BEST CORRECTED VISUAL ACUITY,OVERALL EVALUATION,2013-11-04,WEEK 6,7,42,98,98,98,Visual Acuity Score,VACSCORE,,RIGHT,EYE,43,ETDRS EYE CHART,,,,PRE-DOSE,-0.5,RIGHT,Study Eye,
179,CDISCPILOT01,01-701-1180,OE,Xanomeline High Dose,Xanomeline High Dose,2013-02-12,2013-03-18,2013-02-12,1,Baseline,3,PRE-DOSE,-0.5,Fellow Eye Visual Acuity Score (letters),FBCVA,6,6,letters,20/800,800,6,6,LAST,0,0,0 <= CHG <= 5,Y,-5 <= CHG <= -1,N,10 <= CHG <= 15,N,CHG <= -20,N,CHG <= 5,Y,CHG <= 10,Y,CHG >= -15,Y,CHG >= 15,N,,Y,Y,Y,,15,BEST CORRECTED VISUAL ACUITY,OVERALL EVALUATION,2013-02-12,BASELINE,3,1,6,6,6,Visual Acuity Score,VACSCORE,,LEFT,EYE,1,ETDRS EYE CHART,,,,PRE-DOSE,-0.5,RIGHT,Fellow Eye,Y
180,CDISCPILOT01,01-701-1180,OE,Xanomeline High Dose,Xanomeline High Dose,2013-02-12,2013-03-18,2013-03-11,28,Week 4,5,PRE-DOSE,-0.5,Fellow Eye Visual Acuity Score (letters),FBCVA,38,38,letters,20/200,200,6,6,LAST,32,533.3333333333333,0 <= CHG <= 5,N,-5 <= CHG <= -1,N,10 <= CHG <= 15,N,CHG <= -20,N,CHG <= 5,N,CHG <= 10,N,CHG >= -15,Y,CHG >= 15,Y,,,Y,Y,Y,23,BEST CORRECTED VISUAL ACUITY,OVERALL EVALUATION,2013-03-11,WEEK 4,5,28,38,38,38,Visual Acuity Score,VACSCORE,,LEFT,EYE,28,ETDRS EYE CHART,,,,PRE-DOSE,-0.5,RIGHT,Fellow Eye,
181,CDISCPILOT01,01-701-1180,OE,Xanomeline High Dose,Xanomeline High Dose,2013-02-12,2013-03-18,2013-03-11,28,Week 4,5,PRE-DOSE,-0.5,Study Eye Visual Acuity Score (letters),SBCVA,40,40,letters,20/160,160,62,62,LAST,-22,-35.483870967741936,0 <= CHG <= 5,N,-5 <= CHG <= -1,N,10 <= CHG <= 15,N,CHG <= -20,Y,CHG <= 5,Y,CHG <= 10,Y,CHG >= -15,N,CHG >= 15,N,,,Y,Y,Y,24,BEST CORRECTED VISUAL ACUITY,OVERALL EVALUATION,2013-03-11,WEEK 4,5,28,40,40,40,Visual Acuity Score,VACSCORE,,RIGHT,EYE,28,ETDRS EYE CHART,,,,PRE-DOSE,-0.5,RIGHT,Study Eye,Y
182,CDISCPILOT01,01-701-1180,OE,Xanomeline High Dose,Xanomeline High Dose,2013-02-12,2013-03-18,2013-02-12,1,Baseline,3,PRE-DOSE,-0.5,Study Eye Visual Acuity Score (letters),SBCVA,62,62,letters,20/63,63,62,62,LAST,0,0,0 <= CHG <= 5,Y,-5 <= CHG <= -1,N,10 <= CHG <= 15,N,CHG <= -20,N,CHG <= 5,Y,CHG <= 10,Y,CHG >= -15,Y,CHG >= 15,N,,Y,Y,Y,,16,BEST CORRECTED VISUAL ACUITY,OVERALL EVALUATION,2013-02-12,BASELINE,3,1,62,62,62,Visual Acuity Score,VACSCORE,,RIGHT,EYE,1,ETDRS EYE CHART,,,,PRE-DOSE,-0.5,RIGHT,Study Eye,
183,CDISCPILOT01,01-701-1181,OE,Xanomeline High Dose,Xanomeline Low Dose,2013-12-05,2013-12-09,2013-12-05,1,Baseline,3,PRE-DOSE,-0.5,Fellow Eye Visual Acuity Score (letters),FBCVA,18,18,letters,20/500,500,18,18,LAST,0,0,0 <= CHG <= 5,Y,-5 <= CHG <= -1,N,10 <= CHG <= 15,N,CHG <= -20,N,CHG <= 5,Y,CHG <= 10,Y,CHG >= -15,Y,CHG >= 15,N,,Y,Y,Y,,16,BEST CORRECTED VISUAL ACUITY,OVERALL EVALUATION,2013-12-05,BASELINE,3,1,18,18,18,Visual Acuity Score,VACSCORE,,RIGHT,EYE,1,ETDRS EYE CHART,,,,PRE-DOSE,-0.5,LEFT,Fellow Eye,Y
184,CDISCPILOT01,01-701-1181,OE,Xanomeline High Dose,Xanomeline Low Dose,2013-12-05,2013-12-09,2013-12-05,1,Baseline,3,PRE-DOSE,-0.5,Study Eye Visual Acuity Score (letters),SBCVA,21,21,letters,20/400,400,21,21,LAST,0,0,0 <= CHG <= 5,Y,-5 <= CHG <= -1,N,10 <= CHG <= 15,N,CHG <= -20,N,CHG <= 5,Y,CHG <= 10,Y,CHG >= -15,Y,CHG >= 15,N,,Y,Y,Y,,15,BEST CORRECTED VISUAL ACUITY,OVERALL EVALUATION,2013-12-05,BASELINE,3,1,21,21,21,Visual Acuity Score,VACSCORE,,LEFT,EYE,1,ETDRS EYE CHART,,,,PRE-DOSE,-0.5,LEFT,Study Eye,Y
185,CDISCPILOT01,01-701-1188,OE,Xanomeline Low Dose,Xanomeline Low Dose,2013-02-15,2013-03-24,2013-02-15,1,Baseline,3,PRE-DOSE,-0.5,Fellow Eye Visual Acuity Score (letters),FBCVA,21,21,letters,20/400,400,21,21,LAST,0,0,0 <= CHG <= 5,Y,-5 <= CHG <= -1,N,10 <= CHG <= 15,N,CHG <= -20,N,CHG <= 5,Y,CHG <= 10,Y,CHG >= -15,Y,CHG >= 15,N,,Y,Y,Y,,16,BEST CORRECTED VISUAL ACUITY,OVERALL EVALUATION,2013-02-15,BASELINE,3,1,21,21,21,Visual Acuity Score,VACSCORE,,RIGHT,EYE,1,ETDRS EYE CHART,,,,PRE-DOSE,-0.5,LEFT,Fellow Eye,Y
186,CDISCPILOT01,01-701-1188,OE,Xanomeline Low Dose,Xanomeline Low Dose,2013-02-15,2013-03-24,2013-03-16,30,Week 4,5,PRE-DOSE,-0.5,Fellow Eye Visual Acuity Score (letters),FBCVA,52,52,letters,20/100,100,21,21,LAST,31,147.61904761904762,0 <= CHG <= 5,N,-5 <= CHG <= -1,N,10 <= CHG <= 15,N,CHG <= -20,N,CHG <= 5,N,CHG <= 10,N,CHG >= -15,Y,CHG >= 15,Y,,,Y,Y,Y,24,BEST CORRECTED VISUAL ACUITY,OVERALL EVALUATION,2013-03-16,WEEK 4,5,28,52,52,52,Visual Acuity Score,VACSCORE,,RIGHT,EYE,30,ETDRS EYE CHART,,,,PRE-DOSE,-0.5,LEFT,Fellow Eye,
187,CDISCPILOT01,01-701-1188,OE,Xanomeline Low Dose,Xanomeline Low Dose,2013-02-15,2013-03-24,2013-02-15,1,Baseline,3,PRE-DOSE,-0.5,Study Eye Visual Acuity Score (letters),SBCVA,72,72,letters,20/40,40,72,72,LAST,0,0,0 <= CHG <= 5,Y,-5 <= CHG <= -1,N,10 <= CHG <= 15,N,CHG <= -20,N,CHG <= 5,Y,CHG <= 10,Y,CHG >= -15,Y,CHG >= 15,N,,Y,Y,Y,,15,BEST CORRECTED VISUAL ACUITY,OVERALL EVALUATION,2013-02-15,BASELINE,3,1,72,72,72,Visual Acuity Score,VACSCORE,,LEFT,EYE,1,ETDRS EYE CHART,,,,PRE-DOSE,-0.5,LEFT,Study Eye,Y
188,CDISCPILOT01,01-701-1188,OE,Xanomeline Low Dose,Xanomeline Low Dose,2013-02-15,2013-03-24,2013-03-16,30,Week 4,5,PRE-DOSE,-0.5,Study Eye Visual Acuity Score (letters),SBCVA,84,84,letters,20/20,20,72,72,LAST,12,16.666666666666664,0 <= CHG <= 5,N,-5 <= CHG <= -1,N,10 <= CHG <= 15,Y,CHG <= -20,N,CHG <= 5,N,CHG <= 10,N,CHG >= -15,Y,CHG >= 15,N,,,Y,Y,Y,23,BEST CORRECTED VISUAL ACUITY,OVERALL EVALUATION,2013-03-16,WEEK 4,5,28,84,84,84,Visual Acuity Score,VACSCORE,,LEFT,EYE,30,ETDRS EYE CHART,,,,PRE-DOSE,-0.5,LEFT,Study Eye,
189,CDISCPILOT01,01-701-1192,OE,Xanomeline Low Dose,Xanomeline Low Dose,2012-07-22,2013-01-20,2012-11-15,117,Week 16,10,PRE-DOSE,-0.5,Fellow Eye Visual Acuity Score (letters),FBCVA,4,4,letters,20/800,800,69,69,LAST,-65,-94.20289855072464,0 <= CHG <= 5,N,-5 <= CHG <= -1,N,10 <= CHG <= 15,N,CHG <= -20,Y,CHG <= 5,Y,CHG <= 10,Y,CHG >= -15,N,CHG >= 15,N,,,Y,,Y,64,BEST CORRECTED VISUAL ACUITY,OVERALL EVALUATION,2012-11-15,WEEK 16,10,112,4,4,4,Visual Acuity Score,VACSCORE,,RIGHT,EYE,117,ETDRS EYE CHART,,,,PRE-DOSE,-0.5,LEFT,Fellow Eye,Y
190,CDISCPILOT01,01-701-1192,OE,Xanomeline Low Dose,Xanomeline Low Dose,2012-07-22,2013-01-20,2012-09-04,45,Week 6,7,PRE-DOSE,-0.5,Fellow Eye Visual Acuity Score (letters),FBCVA,19,19,letters,20/400,400,69,69,LAST,-50,-72.46376811594203,0 <= CHG <= 5,N,-5 <= CHG <= -1,N,10 <= CHG <= 15,N,CHG <= -20,Y,CHG <= 5,Y,CHG <= 10,Y,CHG >= -15,N,CHG >= 15,N,,,Y,,Y,32,BEST CORRECTED VISUAL ACUITY,OVERALL EVALUATION,2012-09-04,WEEK 6,7,42,19,19,19,Visual Acuity Score,VACSCORE,,RIGHT,EYE,45,ETDRS EYE CHART,,,,PRE-DOSE,-0.5,LEFT,Fellow Eye,
191,CDISCPILOT01,01-701-1192,OE,Xanomeline Low Dose,Xanomeline Low Dose,2012-07-22,2013-01-20,2012-10-14,85,Week 12,9,PRE-DOSE,-0.5,Fellow Eye Visual Acuity Score (letters),FBCVA,21,21,letters,20/400,400,69,69,LAST,-48,-69.56521739130434,0 <= CHG <= 5,N,-5 <= CHG <= -1,N,10 <= CHG <= 15,N,CHG <= -20,Y,CHG <= 5,Y,CHG <= 10,Y,CHG >= -15,N,CHG >= 15,N,,,Y,,Y,56,BEST CORRECTED VISUAL ACUITY,OVERALL EVALUATION,2012-10-14,WEEK 12,9,84,21,21,21,Visual Acuity Score,VACSCORE,,RIGHT,EYE,85,ETDRS EYE CHART,,,,PRE-DOSE,-0.5,LEFT,Fellow Eye,
192,CDISCPILOT01,01-701-1192,OE,Xanomeline Low Dose,Xanomeline Low Dose,2012-07-22,2013-01-20,2012-12-13,145,Week 20,11,PRE-DOSE,-0.5,Fellow Eye Visual Acuity Score (letters),FBCVA,38,38,letters,20/200,200,69,69,LAST,-31,-44.927536231884055,0 <= CHG <= 5,N,-5 <= CHG <= -1,N,10 <= CHG <= 15,N,CHG <= -20,Y,CHG <= 5,Y,CHG <= 10,Y,CHG >= -15,N,CHG >= 15,N,,,Y,,Y,72,BEST CORRECTED VISUAL ACUITY,OVERALL EVALUATION,2012-12-13,WEEK 20,11,140,38,38,38,Visual Acuity Score,VACSCORE,,RIGHT,EYE,145,ETDRS EYE CHART,,,,PRE-DOSE,-0.5,LEFT,Fellow Eye,
193,CDISCPILOT01,01-701-1192,OE,Xanomeline Low Dose,Xanomeline Low Dose,2012-07-22,2013-01-20,2012-09-30,71,Week 10 (T),8,PRE-DOSE,-0.5,Fellow Eye Visual Acuity Score (letters),FBCVA,39,39,letters,20/160,160,69,69,LAST,-30,-43.47826086956522,0 <= CHG <= 5,N,-5 <= CHG <= -1,N,10 <= CHG <= 15,N,CHG <= -20,Y,CHG <= 5,Y,CHG <= 10,Y,CHG >= -15,N,CHG >= 15,N,,,Y,,Y,48,BEST CORRECTED VISUAL ACUITY,OVERALL EVALUATION,2012-09-30,WEEK 10 (T),8.1,70,39,39,39,Visual Acuity Score,VACSCORE,,RIGHT,EYE,71,ETDRS EYE CHART,,,,PRE-DOSE,-0.5,LEFT,Fellow Eye,
194,CDISCPILOT01,01-701-1192,OE,Xanomeline Low Dose,Xanomeline Low Dose,2012-07-22,2013-01-20,2012-09-23,64,Week 8,8,PRE-DOSE,-0.5,Fellow Eye Visual Acuity Score (letters),FBCVA,41,41,letters,20/160,160,69,69,LAST,-28,-40.57971014492754,0 <= CHG <= 5,N,-5 <= CHG <= -1,N,10 <= CHG <= 15,N,CHG <= -20,Y,CHG <= 5,Y,CHG <= 10,Y,CHG >= -15,N,CHG >= 15,N,,,Y,,Y,40,BEST CORRECTED VISUAL ACUITY,OVERALL EVALUATION,2012-09-23,WEEK 8,8,56,41,41,41,Visual Acuity Score,VACSCORE,,RIGHT,EYE,64,ETDRS EYE CHART,,,,PRE-DOSE,-0.5,LEFT,Fellow Eye,
195,CDISCPILOT01,01-701-1192,OE,Xanomeline Low Dose,Xanomeline Low Dose,2012-07-22,2013-01-20,2012-07-22,1,Baseline,3,PRE-DOSE,-0.5,Fellow Eye Visual Acuity Score (letters),FBCVA,69,69,letters,20/40,40,69,69,LAST,0,0,0 <= CHG <= 5,Y,-5 <= CHG <= -1,N,10 <= CHG <= 15,N,CHG <= -20,N,CHG <= 5,Y,CHG <= 10,Y,CHG >= -15,Y,CHG >= 15,N,,Y,Y,Y,,16,BEST CORRECTED VISUAL ACUITY,OVERALL EVALUATION,2012-07-22,BASELINE,3,1,69,69,69,Visual Acuity Score,VACSCORE,,RIGHT,EYE,1,ETDRS EYE CHART,,,,PRE-DOSE,-0.5,LEFT,Fellow Eye,
196,CDISCPILOT01,01-701-1192,OE,Xanomeline Low Dose,Xanomeline Low Dose,2012-07-22,2013-01-20,2013-01-11,174,Week 24,12,PRE-DOSE,-0.5,Fellow Eye Visual Acuity Score (letters),FBCVA,78,78,letters,20/32,32,69,69,LAST,9,13.043478260869565,0 <= CHG <= 5,N,-5 <= CHG <= -1,N,10 <= CHG <= 15,N,CHG <= -20,N,CHG <= 5,N,CHG <= 10,Y,CHG >= -15,Y,CHG >= 15,N,,,Y,Y,Y,80,BEST CORRECTED VISUAL ACUITY,OVERALL EVALUATION,2013-01-11,WEEK 24,12,168,78,78,78,Visual Acuity Score,VACSCORE,,RIGHT,EYE,174,ETDRS EYE CHART,,,,PRE-DOSE,-0.5,LEFT,Fellow Eye,
197,CDISCPILOT01,01-701-1192,OE,Xanomeline Low Dose,Xanomeline Low Dose,2012-07-22,2013-01-20,2012-08-21,31,Week 4,5,PRE-DOSE,-0.5,Fellow Eye Visual Acuity Score (letters),FBCVA,97,97,letters,20/12,12,69,69,LAST,28,40.57971014492754,0 <= CHG <= 5,N,-5 <= CHG <= -1,N,10 <= CHG <= 15,N,CHG <= -20,N,CHG <= 5,N,CHG <= 10,N,CHG >= -15,Y,CHG >= 15,Y,,,Y,,Y,24,BEST CORRECTED VISUAL ACUITY,OVERALL EVALUATION,2012-08-21,WEEK 4,5,28,97,97,97,Visual Acuity Score,VACSCORE,,RIGHT,EYE,31,ETDRS EYE CHART,,,,PRE-DOSE,-0.5,LEFT,Fellow Eye,
198,CDISCPILOT01,01-701-1192,OE,Xanomeline Low Dose,Xanomeline Low Dose,2012-07-22,2013-01-20,2012-07-22,1,Baseline,3,PRE-DOSE,-0.5,Study Eye Visual Acuity Score (letters),SBCVA,28,28,letters,20/320,320,28,28,LAST,0,0,0 <= CHG <= 5,Y,-5 <= CHG <= -1,N,10 <= CHG <= 15,N,CHG <= -20,N,CHG <= 5,Y,CHG <= 10,Y,CHG >= -15,Y,CHG >= 15,N,,Y,Y,Y,,15,BEST CORRECTED VISUAL ACUITY,OVERALL EVALUATION,2012-07-22,BASELINE,3,1,28,28,28,Visual Acuity Score,VACSCORE,,LEFT,EYE,1,ETDRS EYE CHART,,,,PRE-DOSE,-0.5,LEFT,Study Eye,Y
199,CDISCPILOT01,01-701-1192,OE,Xanomeline Low Dose,Xanomeline Low Dose,2012-07-22,2013-01-20,2012-10-14,85,Week 12,9,PRE-DOSE,-0.5,Study Eye Visual Acuity Score (letters),SBCVA,29,29,letters,20/250,250,28,28,LAST,1,3.571428571428571,0 <= CHG <= 5,Y,-5 <= CHG <= -1,N,10 <= CHG <= 15,N,CHG <= -20,N,CHG <= 5,Y,CHG <= 10,Y,CHG >= -15,Y,CHG >= 15,N,,,Y,,Y,55,BEST CORRECTED VISUAL ACUITY,OVERALL EVALUATION,2012-10-14,WEEK 12,9,84,29,29,29,Visual Acuity Score,VACSCORE,,LEFT,EYE,85,ETDRS EYE CHART,,,,PRE-DOSE,-0.5,LEFT,Study Eye,
200,CDISCPILOT01,01-701-1192,OE,Xanomeline Low Dose,Xanomeline Low Dose,2012-07-22,2013-01-20,2012-12-13,145,Week 20,11,PRE-DOSE,-0.5,Study Eye Visual Acuity Score (letters),SBCVA,33,33,letters,20/250,250,28,28,LAST,5,17.857142857142858,0 <= CHG <= 5,Y,-5 <= CHG <= -1,N,10 <= CHG <= 15,N,CHG <= -20,N,CHG <= 5,Y,CHG <= 10,Y,CHG >= -15,Y,CHG >= 15,N,,,Y,,Y,71,BEST CORRECTED VISUAL ACUITY,OVERALL EVALUATION,2012-12-13,WEEK 20,11,140,33,33,33,Visual Acuity Score,VACSCORE,,LEFT,EYE,145,ETDRS EYE CHART,,,,PRE-DOSE,-0.5,LEFT,Study Eye,
201,CDISCPILOT01,01-701-1192,OE,Xanomeline Low Dose,Xanomeline Low Dose,2012-07-22,2013-01-20,2012-09-04,45,Week 6,7,PRE-DOSE,-0.5,Study Eye Visual Acuity Score (letters),SBCVA,54,54,letters,20/80,80,28,28,LAST,26,92.85714285714286,0 <= CHG <= 5,N,-5 <= CHG <= -1,N,10 <= CHG <= 15,N,CHG <= -20,N,CHG <= 5,N,CHG <= 10,N,CHG >= -15,Y,CHG >= 15,Y,,,Y,,Y,31,BEST CORRECTED VISUAL ACUITY,OVERALL EVALUATION,2012-09-04,WEEK 6,7,42,54,54,54,Visual Acuity Score,VACSCORE,,LEFT,EYE,45,ETDRS EYE CHART,,,,PRE-DOSE,-0.5,LEFT,Study Eye,
202,CDISCPILOT01,01-701-1192,OE,Xanomeline Low Dose,Xanomeline Low Dose,2012-07-22,2013-01-20,2012-11-15,117,Week 16,10,PRE-DOSE,-0.5,Study Eye Visual Acuity Score (letters),SBCVA,54,54,letters,20/80,80,28,28,LAST,26,92.85714285714286,0 <= CHG <= 5,N,-5 <= CHG <= -1,N,10 <= CHG <= 15,N,CHG <= -20,N,CHG <= 5,N,CHG <= 10,N,CHG >= -15,Y,CHG >= 15,Y,,,Y,,Y,63,BEST CORRECTED VISUAL ACUITY,OVERALL EVALUATION,2012-11-15,WEEK 16,10,112,54,54,54,Visual Acuity Score,VACSCORE,,LEFT,EYE,117,ETDRS EYE CHART,,,,PRE-DOSE,-0.5,LEFT,Study Eye,
203,CDISCPILOT01,01-701-1192,OE,Xanomeline Low Dose,Xanomeline Low Dose,2012-07-22,2013-01-20,2013-01-11,174,Week 24,12,PRE-DOSE,-0.5,Study Eye Visual Acuity Score (letters),SBCVA,63,63,letters,20/63,63,28,28,LAST,35,125,0 <= CHG <= 5,N,-5 <= CHG <= -1,N,10 <= CHG <= 15,N,CHG <= -20,N,CHG <= 5,N,CHG <= 10,N,CHG >= -15,Y,CHG >= 15,Y,,,Y,Y,Y,79,BEST CORRECTED VISUAL ACUITY,OVERALL EVALUATION,2013-01-11,WEEK 24,12,168,63,63,63,Visual Acuity Score,VACSCORE,,LEFT,EYE,174,ETDRS EYE CHART,,,,PRE-DOSE,-0.5,LEFT,Study Eye,
204,CDISCPILOT01,01-701-1192,OE,Xanomeline Low Dose,Xanomeline Low Dose,2012-07-22,2013-01-20,2012-09-23,64,Week 8,8,PRE-DOSE,-0.5,Study Eye Visual Acuity Score (letters),SBCVA,78,78,letters,20/32,32,28,28,LAST,50,178.57142857142858,0 <= CHG <= 5,N,-5 <= CHG <= -1,N,10 <= CHG <= 15,N,CHG <= -20,N,CHG <= 5,N,CHG <= 10,N,CHG >= -15,Y,CHG >= 15,Y,,,Y,,Y,39,BEST CORRECTED VISUAL ACUITY,OVERALL EVALUATION,2012-09-23,WEEK 8,8,56,78,78,78,Visual Acuity Score,VACSCORE,,LEFT,EYE,64,ETDRS EYE CHART,,,,PRE-DOSE,-0.5,LEFT,Study Eye,
205,CDISCPILOT01,01-701-1192,OE,Xanomeline Low Dose,Xanomeline Low Dose,2012-07-22,2013-01-20,2012-08-21,31,Week 4,5,PRE-DOSE,-0.5,Study Eye Visual Acuity Score (letters),SBCVA,83,83,letters,20/25,25,28,28,LAST,55,196.42857142857142,0 <= CHG <= 5,N,-5 <= CHG <= -1,N,10 <= CHG <= 15,N,CHG <= -20,N,CHG <= 5,N,CHG <= 10,N,CHG >= -15,Y,CHG >= 15,Y,,,Y,,Y,23,BEST CORRECTED VISUAL ACUITY,OVERALL EVALUATION,2012-08-21,WEEK 4,5,28,83,83,83,Visual Acuity Score,VACSCORE,,LEFT,EYE,31,ETDRS EYE CHART,,,,PRE-DOSE,-0.5,LEFT,Study Eye,
206,CDISCPILOT01,01-701-1192,OE,Xanomeline Low Dose,Xanomeline Low Dose,2012-07-22,2013-01-20,2012-09-30,71,Week 10 (T),8,PRE-DOSE,-0.5,Study Eye Visual Acuity Score (letters),SBCVA,96,96,letters,20/12,12,28,28,LAST,68,242.85714285714283,0 <= CHG <= 5,N,-5 <= CHG <= -1,N,10 <= CHG <= 15,N,CHG <= -20,N,CHG <= 5,N,CHG <= 10,N,CHG >= -15,Y,CHG >= 15,Y,,,Y,,Y,47,BEST CORRECTED VISUAL ACUITY,OVERALL EVALUATION,2012-09-30,WEEK 10 (T),8.1,70,96,96,96,Visual Acuity Score,VACSCORE,,LEFT,EYE,71,ETDRS EYE CHART,,,,PRE-DOSE,-0.5,LEFT,Study Eye,
207,CDISCPILOT01,01-701-1203,OE,Placebo,Placebo,2013-02-02,2013-08-03,2013-03-30,57,Week 8,8,PRE-DOSE,-0.5,Fellow Eye Visual Acuity Score (letters),FBCVA,21,21,letters,20/400,400,64,64,LAST,-43,-67.1875,0 <= CHG <= 5,N,-5 <= CHG <= -1,N,10 <= CHG <= 15,N,CHG <= -20,Y,CHG <= 5,Y,CHG <= 10,Y,CHG >= -15,N,CHG >= 15,N,,,Y,,Y,40,BEST CORRECTED VISUAL ACUITY,OVERALL EVALUATION,2013-03-30,WEEK 8,8,56,21,21,21,Visual Acuity Score,VACSCORE,,RIGHT,EYE,57,ETDRS EYE CHART,,,,PRE-DOSE,-0.5,LEFT,Fellow Eye,Y
208,CDISCPILOT01,01-701-1203,OE,Placebo,Placebo,2013-02-02,2013-08-03,2013-05-25,113,Week 16,10,PRE-DOSE,-0.5,Fellow Eye Visual Acuity Score (letters),FBCVA,28,28,letters,20/320,320,64,64,LAST,-36,-56.25,0 <= CHG <= 5,N,-5 <= CHG <= -1,N,10 <= CHG <= 15,N,CHG <= -20,Y,CHG <= 5,Y,CHG <= 10,Y,CHG >= -15,N,CHG >= 15,N,,,Y,,Y,64,BEST CORRECTED VISUAL ACUITY,OVERALL EVALUATION,2013-05-25,WEEK 16,10,112,28,28,28,Visual Acuity Score,VACSCORE,,RIGHT,EYE,113,ETDRS EYE CHART,,,,PRE-DOSE,-0.5,LEFT,Fellow Eye,
209,CDISCPILOT01,01-701-1203,OE,Placebo,Placebo,2013-02-02,2013-08-03,2013-03-02,29,Week 4,5,PRE-DOSE,-0.5,Fellow Eye Visual Acuity Score (letters),FBCVA,43,43,letters,20/160,160,64,64,LAST,-21,-32.8125,0 <= CHG <= 5,N,-5 <= CHG <= -1,N,10 <= CHG <= 15,N,CHG <= -20,Y,CHG <= 5,Y,CHG <= 10,Y,CHG >= -15,N,CHG >= 15,N,,,Y,,Y,24,BEST CORRECTED VISUAL ACUITY,OVERALL EVALUATION,2013-03-02,WEEK 4,5,28,43,43,43,Visual Acuity Score,VACSCORE,,RIGHT,EYE,29,ETDRS EYE CHART,,,,PRE-DOSE,-0.5,LEFT,Fellow Eye,
210,CDISCPILOT01,01-701-1203,OE,Placebo,Placebo,2013-02-02,2013-08-03,2013-02-02,1,Baseline,3,PRE-DOSE,-0.5,Fellow Eye Visual Acuity Score (letters),FBCVA,64,64,letters,20/50,50,64,64,LAST,0,0,0 <= CHG <= 5,Y,-5 <= CHG <= -1,N,10 <= CHG <= 15,N,CHG <= -20,N,CHG <= 5,Y,CHG <= 10,Y,CHG >= -15,Y,CHG >= 15,N,,Y,Y,Y,,16,BEST CORRECTED VISUAL ACUITY,OVERALL EVALUATION,2013-02-02,BASELINE,3,1,64,64,64,Visual Acuity Score,VACSCORE,,RIGHT,EYE,1,ETDRS EYE CHART,,,,PRE-DOSE,-0.5,LEFT,Fellow Eye,
211,CDISCPILOT01,01-701-1203,OE,Placebo,Placebo,2013-02-02,2013-08-03,2013-05-09,97,Week 12,9,PRE-DOSE,-0.5,Fellow Eye Visual Acuity Score (letters),FBCVA,69,69,letters,20/40,40,64,64,LAST,5,7.8125,0 <= CHG <= 5,Y,-5 <= CHG <= -1,N,10 <= CHG <= 15,N,CHG <= -20,N,CHG <= 5,Y,CHG <= 10,Y,CHG >= -15,Y,CHG >= 15,N,,,Y,,Y,56,BEST CORRECTED VISUAL ACUITY,OVERALL EVALUATION,2013-05-09,WEEK 12,9,84,69,69,69,Visual Acuity Score,VACSCORE,,RIGHT,EYE,97,ETDRS EYE CHART,,,,PRE-DOSE,-0.5,LEFT,Fellow Eye,
212,CDISCPILOT01,01-701-1203,OE,Placebo,Placebo,2013-02-02,2013-08-03,2013-04-13,71,Week 10 (T),8,PRE-DOSE,-0.5,Fellow Eye Visual Acuity Score (letters),FBCVA,73,73,letters,20/40,40,64,64,LAST,9,14.0625,0 <= CHG <= 5,N,-5 <= CHG <= -1,N,10 <= CHG <= 15,N,CHG <= -20,N,CHG <= 5,N,CHG <= 10,Y,CHG >= -15,Y,CHG >= 15,N,,,Y,,Y,48,BEST CORRECTED VISUAL ACUITY,OVERALL EVALUATION,2013-04-13,WEEK 10 (T),8.1,70,73,73,73,Visual Acuity Score,VACSCORE,,RIGHT,EYE,71,ETDRS EYE CHART,,,,PRE-DOSE,-0.5,LEFT,Fellow Eye,
213,CDISCPILOT01,01-701-1203,OE,Placebo,Placebo,2013-02-02,2013-08-03,2013-06-22,141,Week 20,11,PRE-DOSE,-0.5,Fellow Eye Visual Acuity Score (letters),FBCVA,89,89,letters,20/16,16,64,64,LAST,25,39.0625,0 <= CHG <= 5,N,-5 <= CHG <= -1,N,10 <= CHG <= 15,N,CHG <= -20,N,CHG <= 5,N,CHG <= 10,N,CHG >= -15,Y,CHG >= 15,Y,,,Y,,Y,72,BEST CORRECTED VISUAL ACUITY,OVERALL EVALUATION,2013-06-22,WEEK 20,11,140,89,89,89,Visual Acuity Score,VACSCORE,,RIGHT,EYE,141,ETDRS EYE CHART,,,,PRE-DOSE,-0.5,LEFT,Fellow Eye,
214,CDISCPILOT01,01-701-1203,OE,Placebo,Placebo,2013-02-02,2013-08-03,2013-07-22,171,Week 24,12,PRE-DOSE,-0.5,Fellow Eye Visual Acuity Score (letters),FBCVA,89,89,letters,20/16,16,64,64,LAST,25,39.0625,0 <= CHG <= 5,N,-5 <= CHG <= -1,N,10 <= CHG <= 15,N,CHG <= -20,N,CHG <= 5,N,CHG <= 10,N,CHG >= -15,Y,CHG >= 15,Y,,,Y,Y,Y,80,BEST CORRECTED VISUAL ACUITY,OVERALL EVALUATION,2013-07-22,WEEK 24,12,168,89,89,89,Visual Acuity Score,VACSCORE,,RIGHT,EYE,171,ETDRS EYE CHART,,,,PRE-DOSE,-0.5,LEFT,Fellow Eye,
215,CDISCPILOT01,01-701-1203,OE,Placebo,Placebo,2013-02-02,2013-08-03,2013-03-16,43,Week 6,7,PRE-DOSE,-0.5,Fellow Eye Visual Acuity Score (letters),FBCVA,90,90,letters,20/16,16,64,64,LAST,26,40.625,0 <= CHG <= 5,N,-5 <= CHG <= -1,N,10 <= CHG <= 15,N,CHG <= -20,N,CHG <= 5,N,CHG <= 10,N,CHG >= -15,Y,CHG >= 15,Y,,,Y,,Y,32,BEST CORRECTED VISUAL ACUITY,OVERALL EVALUATION,2013-03-16,WEEK 6,7,42,90,90,90,Visual Acuity Score,VACSCORE,,RIGHT,EYE,43,ETDRS EYE CHART,,,,PRE-DOSE,-0.5,LEFT,Fellow Eye,
216,CDISCPILOT01,01-701-1203,OE,Placebo,Placebo,2013-02-02,2013-08-03,2013-05-25,113,Week 16,10,PRE-DOSE,-0.5,Study Eye Visual Acuity Score (letters),SBCVA,11,11,letters,20/640,640,71,71,LAST,-60,-84.50704225352112,0 <= CHG <= 5,N,-5 <= CHG <= -1,N,10 <= CHG <= 15,N,CHG <= -20,Y,CHG <= 5,Y,CHG <= 10,Y,CHG >= -15,N,CHG >= 15,N,,,Y,,Y,63,BEST CORRECTED VISUAL ACUITY,OVERALL EVALUATION,2013-05-25,WEEK 16,10,112,11,11,11,Visual Acuity Score,VACSCORE,,LEFT,EYE,113,ETDRS EYE CHART,,,,PRE-DOSE,-0.5,LEFT,Study Eye,Y
217,CDISCPILOT01,01-701-1203,OE,Placebo,Placebo,2013-02-02,2013-08-03,2013-03-30,57,Week 8,8,PRE-DOSE,-0.5,Study Eye Visual Acuity Score (letters),SBCVA,20,20,letters,20/400,400,71,71,LAST,-51,-71.83098591549296,0 <= CHG <= 5,N,-5 <= CHG <= -1,N,10 <= CHG <= 15,N,CHG <= -20,Y,CHG <= 5,Y,CHG <= 10,Y,CHG >= -15,N,CHG >= 15,N,,,Y,,Y,39,BEST CORRECTED VISUAL ACUITY,OVERALL EVALUATION,2013-03-30,WEEK 8,8,56,20,20,20,Visual Acuity Score,VACSCORE,,LEFT,EYE,57,ETDRS EYE CHART,,,,PRE-DOSE,-0.5,LEFT,Study Eye,
218,CDISCPILOT01,01-701-1203,OE,Placebo,Placebo,2013-02-02,2013-08-03,2013-03-16,43,Week 6,7,PRE-DOSE,-0.5,Study Eye Visual Acuity Score (letters),SBCVA,24,24,letters,20/320,320,71,71,LAST,-47,-66.19718309859155,0 <= CHG <= 5,N,-5 <= CHG <= -1,N,10 <= CHG <= 15,N,CHG <= -20,Y,CHG <= 5,Y,CHG <= 10,Y,CHG >= -15,N,CHG >= 15,N,,,Y,,Y,31,BEST CORRECTED VISUAL ACUITY,OVERALL EVALUATION,2013-03-16,WEEK 6,7,42,24,24,24,Visual Acuity Score,VACSCORE,,LEFT,EYE,43,ETDRS EYE CHART,,,,PRE-DOSE,-0.5,LEFT,Study Eye,
219,CDISCPILOT01,01-701-1203,OE,Placebo,Placebo,2013-02-02,2013-08-03,2013-07-22,171,Week 24,12,PRE-DOSE,-0.5,Study Eye Visual Acuity Score (letters),SBCVA,30,30,letters,20/250,250,71,71,LAST,-41,-57.74647887323944,0 <= CHG <= 5,N,-5 <= CHG <= -1,N,10 <= CHG <= 15,N,CHG <= -20,Y,CHG <= 5,Y,CHG <= 10,Y,CHG >= -15,N,CHG >= 15,N,,,Y,Y,Y,79,BEST CORRECTED VISUAL ACUITY,OVERALL EVALUATION,2013-07-22,WEEK 24,12,168,30,30,30,Visual Acuity Score,VACSCORE,,LEFT,EYE,171,ETDRS EYE CHART,,,,PRE-DOSE,-0.5,LEFT,Study Eye,
220,CDISCPILOT01,01-701-1203,OE,Placebo,Placebo,2013-02-02,2013-08-03,2013-05-09,97,Week 12,9,PRE-DOSE,-0.5,Study Eye Visual Acuity Score (letters),SBCVA,39,39,letters,20/160,160,71,71,LAST,-32,-45.07042253521127,0 <= CHG <= 5,N,-5 <= CHG <= -1,N,10 <= CHG <= 15,N,CHG <= -20,Y,CHG <= 5,Y,CHG <= 10,Y,CHG >= -15,N,CHG >= 15,N,,,Y,,Y,55,BEST CORRECTED VISUAL ACUITY,OVERALL EVALUATION,2013-05-09,WEEK 12,9,84,39,39,39,Visual Acuity Score,VACSCORE,,LEFT,EYE,97,ETDRS EYE CHART,,,,PRE-DOSE,-0.5,LEFT,Study Eye,
221,CDISCPILOT01,01-701-1203,OE,Placebo,Placebo,2013-02-02,2013-08-03,2013-04-13,71,Week 10 (T),8,PRE-DOSE,-0.5,Study Eye Visual Acuity Score (letters),SBCVA,53,53,letters,20/100,100,71,71,LAST,-18,-25.352112676056336,0 <= CHG <= 5,N,-5 <= CHG <= -1,N,10 <= CHG <= 15,N,CHG <= -20,N,CHG <= 5,Y,CHG <= 10,Y,CHG >= -15,N,CHG >= 15,N,,,Y,,Y,47,BEST CORRECTED VISUAL ACUITY,OVERALL EVALUATION,2013-04-13,WEEK 10 (T),8.1,70,53,53,53,Visual Acuity Score,VACSCORE,,LEFT,EYE,71,ETDRS EYE CHART,,,,PRE-DOSE,-0.5,LEFT,Study Eye,
222,CDISCPILOT01,01-701-1203,OE,Placebo,Placebo,2013-02-02,2013-08-03,2013-03-02,29,Week 4,5,PRE-DOSE,-0.5,Study Eye Visual Acuity Score (letters),SBCVA,57,57,letters,20/80,80,71,71,LAST,-14,-19.718309859154928,0 <= CHG <= 5,N,-5 <= CHG <= -1,N,10 <= CHG <= 15,N,CHG <= -20,N,CHG <= 5,Y,CHG <= 10,Y,CHG >= -15,Y,CHG >= 15,N,,,Y,,Y,23,BEST CORRECTED VISUAL ACUITY,OVERALL EVALUATION,2013-03-02,WEEK 4,5,28,57,57,57,Visual Acuity Score,VACSCORE,,LEFT,EYE,29,ETDRS EYE CHART,,,,PRE-DOSE,-0.5,LEFT,Study Eye,
223,CDISCPILOT01,01-701-1203,OE,Placebo,Placebo,2013-02-02,2013-08-03,2013-02-02,1,Baseline,3,PRE-DOSE,-0.5,Study Eye Visual Acuity Score (letters),SBCVA,71,71,letters,20/40,40,71,71,LAST,0,0,0 <= CHG <= 5,Y,-5 <= CHG <= -1,N,10 <= CHG <= 15,N,CHG <= -20,N,CHG <= 5,Y,CHG <= 10,Y,CHG >= -15,Y,CHG >= 15,N,,Y,Y,Y,,15,BEST CORRECTED VISUAL ACUITY,OVERALL EVALUATION,2013-02-02,BASELINE,3,1,71,71,71,Visual Acuity Score,VACSCORE,,LEFT,EYE,1,ETDRS EYE CHART,,,,PRE-DOSE,-0.5,LEFT,Study Eye,
224,CDISCPILOT01,01-701-1203,OE,Placebo,Placebo,2013-02-02,2013-08-03,2013-06-22,141,Week 20,11,PRE-DOSE,-0.5,Study Eye Visual Acuity Score (letters),SBCVA,90,90,letters,20/16,16,71,71,LAST,19,26.76056338028169,0 <= CHG <= 5,N,-5 <= CHG <= -1,N,10 <= CHG <= 15,N,CHG <= -20,N,CHG <= 5,N,CHG <= 10,N,CHG >= -15,Y,CHG >= 15,Y,,,Y,,Y,71,BEST CORRECTED VISUAL ACUITY,OVERALL EVALUATION,2013-06-22,WEEK 20,11,140,90,90,90,Visual Acuity Score,VACSCORE,,LEFT,EYE,141,ETDRS EYE CHART,,,,PRE-DOSE,-0.5,LEFT,Study Eye,
225,CDISCPILOT01,01-701-1211,OE,Xanomeline Low Dose,Xanomeline Low Dose,2012-11-15,2013-01-12,2012-11-15,1,Baseline,3,PRE-DOSE,-0.5,Fellow Eye Visual Acuity Score (letters),FBCVA,8,8,letters,20/800,800,8,8,LAST,0,0,0 <= CHG <= 5,Y,-5 <= CHG <= -1,N,10 <= CHG <= 15,N,CHG <= -20,N,CHG <= 5,Y,CHG <= 10,Y,CHG >= -15,Y,CHG >= 15,N,,Y,Y,Y,,15,BEST CORRECTED VISUAL ACUITY,OVERALL EVALUATION,2012-11-15,BASELINE,3,1,8,8,8,Visual Acuity Score,VACSCORE,,LEFT,EYE,1,ETDRS EYE CHART,,,,PRE-DOSE,-0.5,RIGHT,Fellow Eye,Y
226,CDISCPILOT01,01-701-1211,OE,Xanomeline Low Dose,Xanomeline Low Dose,2012-11-15,2013-01-12,2013-01-08,55,Week 8,8,PRE-DOSE,-0.5,Fellow Eye Visual Acuity Score (letters),FBCVA,71,71,letters,20/40,40,8,8,LAST,63,787.5,0 <= CHG <= 5,N,-5 <= CHG <= -1,N,10 <= CHG <= 15,N,CHG <= -20,N,CHG <= 5,N,CHG <= 10,N,CHG >= -15,Y,CHG >= 15,Y,,,Y,Y,Y,39,BEST CORRECTED VISUAL ACUITY,OVERALL EVALUATION,2013-01-08,WEEK 8,8,56,71,71,71,Visual Acuity Score,VACSCORE,,LEFT,EYE,55,ETDRS EYE CHART,,,,PRE-DOSE,-0.5,RIGHT,Fellow Eye,
227,CDISCPILOT01,01-701-1211,OE,Xanomeline Low Dose,Xanomeline Low Dose,2012-11-15,2013-01-12,2012-12-11,27,Week 4,5,PRE-DOSE,-0.5,Fellow Eye Visual Acuity Score (letters),FBCVA,72,72,letters,20/40,40,8,8,LAST,64,800,0 <= CHG <= 5,N,-5 <= CHG <= -1,N,10 <= CHG <= 15,N,CHG <= -20,N,CHG <= 5,N,CHG <= 10,N,CHG >= -15,Y,CHG >= 15,Y,,,Y,,Y,23,BEST CORRECTED VISUAL ACUITY,OVERALL EVALUATION,2012-12-11,WEEK 4,5,28,72,72,72,Visual Acuity Score,VACSCORE,,LEFT,EYE,27,ETDRS EYE CHART,,,,PRE-DOSE,-0.5,RIGHT,Fellow Eye,
228,CDISCPILOT01,01-701-1211,OE,Xanomeline Low Dose,Xanomeline Low Dose,2012-11-15,2013-01-12,2012-12-25,41,Week 6,7,PRE-DOSE,-0.5,Fellow Eye Visual Acuity Score (letters),FBCVA,100,100,letters,> 20/12,1,8,8,LAST,92,1150,0 <= CHG <= 5,N,-5 <= CHG <= -1,N,10 <= CHG <= 15,N,CHG <= -20,N,CHG <= 5,N,CHG <= 10,N,CHG >= -15,Y,CHG >= 15,Y,,,Y,,Y,31,BEST CORRECTED VISUAL ACUITY,OVERALL EVALUATION,2012-12-25,WEEK 6,7,42,100,100,100,Visual Acuity Score,VACSCORE,,LEFT,EYE,41,ETDRS EYE CHART,,,,PRE-DOSE,-0.5,RIGHT,Fellow Eye,
229,CDISCPILOT01,01-701-1211,OE,Xanomeline Low Dose,Xanomeline Low Dose,2012-11-15,2013-01-12,2012-11-15,1,Baseline,3,PRE-DOSE,-0.5,Study Eye Visual Acuity Score (letters),SBCVA,29,29,letters,20/250,250,29,29,LAST,0,0,0 <= CHG <= 5,Y,-5 <= CHG <= -1,N,10 <= CHG <= 15,N,CHG <= -20,N,CHG <= 5,Y,CHG <= 10,Y,CHG >= -15,Y,CHG >= 15,N,,Y,Y,Y,,16,BEST CORRECTED VISUAL ACUITY,OVERALL EVALUATION,2012-11-15,BASELINE,3,1,29,29,29,Visual Acuity Score,VACSCORE,,RIGHT,EYE,1,ETDRS EYE CHART,,,,PRE-DOSE,-0.5,RIGHT,Study Eye,Y
230,CDISCPILOT01,01-701-1211,OE,Xanomeline Low Dose,Xanomeline Low Dose,2012-11-15,2013-01-12,2012-12-25,41,Week 6,7,PRE-DOSE,-0.5,Study Eye Visual Acuity Score (letters),SBCVA,57,57,letters,20/80,80,29,29,LAST,28,96.55172413793103,0 <= CHG <= 5,N,-5 <= CHG <= -1,N,10 <= CHG <= 15,N,CHG <= -20,N,CHG <= 5,N,CHG <= 10,N,CHG >= -15,Y,CHG >= 15,Y,,,Y,,Y,32,BEST CORRECTED VISUAL ACUITY,OVERALL EVALUATION,2012-12-25,WEEK 6,7,42,57,57,57,Visual Acuity Score,VACSCORE,,RIGHT,EYE,41,ETDRS EYE CHART,,,,PRE-DOSE,-0.5,RIGHT,Study Eye,
231,CDISCPILOT01,01-701-1211,OE,Xanomeline Low Dose,Xanomeline Low Dose,2012-11-15,2013-01-12,2013-01-08,55,Week 8,8,PRE-DOSE,-0.5,Study Eye Visual Acuity Score (letters),SBCVA,73,73,letters,20/40,40,29,29,LAST,44,151.72413793103448,0 <= CHG <= 5,N,-5 <= CHG <= -1,N,10 <= CHG <= 15,N,CHG <= -20,N,CHG <= 5,N,CHG <= 10,N,CHG >= -15,Y,CHG >= 15,Y,,,Y,Y,Y,40,BEST CORRECTED VISUAL ACUITY,OVERALL EVALUATION,2013-01-08,WEEK 8,8,56,73,73,73,Visual Acuity Score,VACSCORE,,RIGHT,EYE,55,ETDRS EYE CHART,,,,PRE-DOSE,-0.5,RIGHT,Study Eye,
232,CDISCPILOT01,01-701-1211,OE,Xanomeline Low Dose,Xanomeline Low Dose,2012-11-15,2013-01-12,2012-12-11,27,Week 4,5,PRE-DOSE,-0.5,Study Eye Visual Acuity Score (letters),SBCVA,93,93,letters,20/16,16,29,29,LAST,64,220.68965517241378,0 <= CHG <= 5,N,-5 <= CHG <= -1,N,10 <= CHG <= 15,N,CHG <= -20,N,CHG <= 5,N,CHG <= 10,N,CHG >= -15,Y,CHG >= 15,Y,,,Y,,Y,24,BEST CORRECTED VISUAL ACUITY,OVERALL EVALUATION,2012-12-11,WEEK 4,5,28,93,93,93,Visual Acuity Score,VACSCORE,,RIGHT,EYE,27,ETDRS EYE CHART,,,,PRE-DOSE,-0.5,RIGHT,Study Eye,
233,CDISCPILOT01,01-701-1234,OE,Placebo,Placebo,2013-03-30,2013-09-22,2013-04-28,30,Week 4,5,PRE-DOSE,-0.5,Fellow Eye Visual Acuity Score (letters),FBCVA,25,25,letters,20/320,320,56,56,LAST,-31,-55.35714285714286,0 <= CHG <= 5,N,-5 <= CHG <= -1,N,10 <= CHG <= 15,N,CHG <= -20,Y,CHG <= 5,Y,CHG <= 10,Y,CHG >= -15,N,CHG >= 15,N,,,Y,,Y,24,BEST CORRECTED VISUAL ACUITY,OVERALL EVALUATION,2013-04-28,WEEK 4,5,28,25,25,25,Visual Acuity Score,VACSCORE,,RIGHT,EYE,30,ETDRS EYE CHART,,,,PRE-DOSE,-0.5,LEFT,Fellow Eye,Y
234,CDISCPILOT01,01-701-1234,OE,Placebo,Placebo,2013-03-30,2013-09-22,2013-05-26,58,Week 8,8,PRE-DOSE,-0.5,Fellow Eye Visual Acuity Score (letters),FBCVA,37,37,letters,20/200,200,56,56,LAST,-19,-33.92857142857143,0 <= CHG <= 5,N,-5 <= CHG <= -1,N,10 <= CHG <= 15,N,CHG <= -20,N,CHG <= 5,Y,CHG <= 10,Y,CHG >= -15,N,CHG >= 15,N,,,Y,,Y,40,BEST CORRECTED VISUAL ACUITY,OVERALL EVALUATION,2013-05-26,WEEK 8,8,56,37,37,37,Visual Acuity Score,VACSCORE,,RIGHT,EYE,58,ETDRS EYE CHART,,,,PRE-DOSE,-0.5,LEFT,Fellow Eye,
235,CDISCPILOT01,01-701-1234,OE,Placebo,Placebo,2013-03-30,2013-09-22,2013-05-08,40,Week 6,7,PRE-DOSE,-0.5,Fellow Eye Visual Acuity Score (letters),FBCVA,46,46,letters,20/125,125,56,56,LAST,-10,-17.857142857142858,0 <= CHG <= 5,N,-5 <= CHG <= -1,N,10 <= CHG <= 15,N,CHG <= -20,N,CHG <= 5,Y,CHG <= 10,Y,CHG >= -15,Y,CHG >= 15,N,,,Y,,Y,32,BEST CORRECTED VISUAL ACUITY,OVERALL EVALUATION,2013-05-08,WEEK 6,7,42,46,46,46,Visual Acuity Score,VACSCORE,,RIGHT,EYE,40,ETDRS EYE CHART,,,,PRE-DOSE,-0.5,LEFT,Fellow Eye,
236,CDISCPILOT01,01-701-1234,OE,Placebo,Placebo,2013-03-30,2013-09-22,2013-03-30,1,Baseline,3,PRE-DOSE,-0.5,Fellow Eye Visual Acuity Score (letters),FBCVA,56,56,letters,20/80,80,56,56,LAST,0,0,0 <= CHG <= 5,Y,-5 <= CHG <= -1,N,10 <= CHG <= 15,N,CHG <= -20,N,CHG <= 5,Y,CHG <= 10,Y,CHG >= -15,Y,CHG >= 15,N,,Y,Y,Y,,16,BEST CORRECTED VISUAL ACUITY,OVERALL EVALUATION,2013-03-30,BASELINE,3,1,56,56,56,Visual Acuity Score,VACSCORE,,RIGHT,EYE,1,ETDRS EYE CHART,,,,PRE-DOSE,-0.5,LEFT,Fellow Eye,
237,CDISCPILOT01,01-701-1234,OE,Placebo,Placebo,2013-03-30,2013-09-22,2013-09-10,165,Week 24,12,PRE-DOSE,-0.5,Fellow Eye Visual Acuity Score (letters),FBCVA,68,68,letters,20/50,50,56,56,LAST,12,21.428571428571427,0 <= CHG <= 5,N,-5 <= CHG <= -1,N,10 <= CHG <= 15,Y,CHG <= -20,N,CHG <= 5,N,CHG <= 10,N,CHG >= -15,Y,CHG >= 15,N,,,Y,Y,Y,80,BEST CORRECTED VISUAL ACUITY,OVERALL EVALUATION,2013-09-10,WEEK 24,12,168,68,68,68,Visual Acuity Score,VACSCORE,,RIGHT,EYE,165,ETDRS EYE CHART,,,,PRE-DOSE,-0.5,LEFT,Fellow Eye,
238,CDISCPILOT01,01-701-1234,OE,Placebo,Placebo,2013-03-30,2013-09-22,2013-07-27,120,Week 16,10,PRE-DOSE,-0.5,Fellow Eye Visual Acuity Score (letters),FBCVA,70,70,letters,20/40,40,56,56,LAST,14,25,0 <= CHG <= 5,N,-5 <= CHG <= -1,N,10 <= CHG <= 15,Y,CHG <= -20,N,CHG <= 5,N,CHG <= 10,N,CHG >= -15,Y,CHG >= 15,N,,,Y,,Y,64,BEST CORRECTED VISUAL ACUITY,OVERALL EVALUATION,2013-07-27,WEEK 16,10,112,70,70,70,Visual Acuity Score,VACSCORE,,RIGHT,EYE,120,ETDRS EYE CHART,,,,PRE-DOSE,-0.5,LEFT,Fellow Eye,
239,CDISCPILOT01,01-701-1234,OE,Placebo,Placebo,2013-03-30,2013-09-22,2013-07-07,100,Week 12,9,PRE-DOSE,-0.5,Fellow Eye Visual Acuity Score (letters),FBCVA,73,73,letters,20/40,40,56,56,LAST,17,30.357142857142854,0 <= CHG <= 5,N,-5 <= CHG <= -1,N,10 <= CHG <= 15,N,CHG <= -20,N,CHG <= 5,N,CHG <= 10,N,CHG >= -15,Y,CHG >= 15,Y,,,Y,,Y,56,BEST CORRECTED VISUAL ACUITY,OVERALL EVALUATION,2013-07-07,WEEK 12,9,84,73,73,73,Visual Acuity Score,VACSCORE,,RIGHT,EYE,100,ETDRS EYE CHART,,,,PRE-DOSE,-0.5,LEFT,Fellow Eye,
240,CDISCPILOT01,01-701-1234,OE,Placebo,Placebo,2013-03-30,2013-09-22,2013-06-09,72,Week 10 (T),8,PRE-DOSE,-0.5,Fellow Eye Visual Acuity Score (letters),FBCVA,89,89,letters,20/16,16,56,56,LAST,33,58.92857142857143,0 <= CHG <= 5,N,-5 <= CHG <= -1,N,10 <= CHG <= 15,N,CHG <= -20,N,CHG <= 5,N,CHG <= 10,N,CHG >= -15,Y,CHG >= 15,Y,,,Y,,Y,48,BEST CORRECTED VISUAL ACUITY,OVERALL EVALUATION,2013-06-09,WEEK 10 (T),8.1,70,89,89,89,Visual Acuity Score,VACSCORE,,RIGHT,EYE,72,ETDRS EYE CHART,,,,PRE-DOSE,-0.5,LEFT,Fellow Eye,
241,CDISCPILOT01,01-701-1234,OE,Placebo,Placebo,2013-03-30,2013-09-22,2013-08-18,142,Week 20,11,PRE-DOSE,-0.5,Fellow Eye Visual Acuity Score (letters),FBCVA,97,97,letters,20/12,12,56,56,LAST,41,73.21428571428571,0 <= CHG <= 5,N,-5 <= CHG <= -1,N,10 <= CHG <= 15,N,CHG <= -20,N,CHG <= 5,N,CHG <= 10,N,CHG >= -15,Y,CHG >= 15,Y,,,Y,,Y,72,BEST CORRECTED VISUAL ACUITY,OVERALL EVALUATION,2013-08-18,WEEK 20,11,140,97,97,97,Visual Acuity Score,VACSCORE,,RIGHT,EYE,142,ETDRS EYE CHART,,,,PRE-DOSE,-0.5,LEFT,Fellow Eye,
242,CDISCPILOT01,01-701-1234,OE,Placebo,Placebo,2013-03-30,2013-09-22,2013-08-18,142,Week 20,11,PRE-DOSE,-0.5,Study Eye Visual Acuity Score (letters),SBCVA,2,2,letters,< 20/800,1000,95,95,LAST,-93,-97.89473684210527,0 <= CHG <= 5,N,-5 <= CHG <= -1,N,10 <= CHG <= 15,N,CHG <= -20,Y,CHG <= 5,Y,CHG <= 10,Y,CHG >= -15,N,CHG >= 15,N,,,Y,,Y,71,BEST CORRECTED VISUAL ACUITY,OVERALL EVALUATION,2013-08-18,WEEK 20,11,140,2,2,2,Visual Acuity Score,VACSCORE,,LEFT,EYE,142,ETDRS EYE CHART,,,,PRE-DOSE,-0.5,LEFT,Study Eye,Y
243,CDISCPILOT01,01-701-1234,OE,Placebo,Placebo,2013-03-30,2013-09-22,2013-09-10,165,Week 24,12,PRE-DOSE,-0.5,Study Eye Visual Acuity Score (letters),SBCVA,38,38,letters,20/200,200,95,95,LAST,-57,-60,0 <= CHG <= 5,N,-5 <= CHG <= -1,N,10 <= CHG <= 15,N,CHG <= -20,Y,CHG <= 5,Y,CHG <= 10,Y,CHG >= -15,N,CHG >= 15,N,,,Y,Y,Y,79,BEST CORRECTED VISUAL ACUITY,OVERALL EVALUATION,2013-09-10,WEEK 24,12,168,38,38,38,Visual Acuity Score,VACSCORE,,LEFT,EYE,165,ETDRS EYE CHART,,,,PRE-DOSE,-0.5,LEFT,Study Eye,
244,CDISCPILOT01,01-701-1234,OE,Placebo,Placebo,2013-03-30,2013-09-22,2013-04-28,30,Week 4,5,PRE-DOSE,-0.5,Study Eye Visual Acuity Score (letters),SBCVA,43,43,letters,20/160,160,95,95,LAST,-52,-54.736842105263165,0 <= CHG <= 5,N,-5 <= CHG <= -1,N,10 <= CHG <= 15,N,CHG <= -20,Y,CHG <= 5,Y,CHG <= 10,Y,CHG >= -15,N,CHG >= 15,N,,,Y,,Y,23,BEST CORRECTED VISUAL ACUITY,OVERALL EVALUATION,2013-04-28,WEEK 4,5,28,43,43,43,Visual Acuity Score,VACSCORE,,LEFT,EYE,30,ETDRS EYE CHART,,,,PRE-DOSE,-0.5,LEFT,Study Eye,
245,CDISCPILOT01,01-701-1234,OE,Placebo,Placebo,2013-03-30,2013-09-22,2013-06-09,72,Week 10 (T),8,PRE-DOSE,-0.5,Study Eye Visual Acuity Score (letters),SBCVA,46,46,letters,20/125,125,95,95,LAST,-49,-51.578947368421055,0 <= CHG <= 5,N,-5 <= CHG <= -1,N,10 <= CHG <= 15,N,CHG <= -20,Y,CHG <= 5,Y,CHG <= 10,Y,CHG >= -15,N,CHG >= 15,N,,,Y,,Y,47,BEST CORRECTED VISUAL ACUITY,OVERALL EVALUATION,2013-06-09,WEEK 10 (T),8.1,70,46,46,46,Visual Acuity Score,VACSCORE,,LEFT,EYE,72,ETDRS EYE CHART,,,,PRE-DOSE,-0.5,LEFT,Study Eye,
246,CDISCPILOT01,01-701-1234,OE,Placebo,Placebo,2013-03-30,2013-09-22,2013-05-08,40,Week 6,7,PRE-DOSE,-0.5,Study Eye Visual Acuity Score (letters),SBCVA,48,48,letters,20/125,125,95,95,LAST,-47,-49.473684210526315,0 <= CHG <= 5,N,-5 <= CHG <= -1,N,10 <= CHG <= 15,N,CHG <= -20,Y,CHG <= 5,Y,CHG <= 10,Y,CHG >= -15,N,CHG >= 15,N,,,Y,,Y,31,BEST CORRECTED VISUAL ACUITY,OVERALL EVALUATION,2013-05-08,WEEK 6,7,42,48,48,48,Visual Acuity Score,VACSCORE,,LEFT,EYE,40,ETDRS EYE CHART,,,,PRE-DOSE,-0.5,LEFT,Study Eye,
247,CDISCPILOT01,01-701-1234,OE,Placebo,Placebo,2013-03-30,2013-09-22,2013-05-26,58,Week 8,8,PRE-DOSE,-0.5,Study Eye Visual Acuity Score (letters),SBCVA,70,70,letters,20/40,40,95,95,LAST,-25,-26.31578947368421,0 <= CHG <= 5,N,-5 <= CHG <= -1,N,10 <= CHG <= 15,N,CHG <= -20,Y,CHG <= 5,Y,CHG <= 10,Y,CHG >= -15,N,CHG >= 15,N,,,Y,,Y,39,BEST CORRECTED VISUAL ACUITY,OVERALL EVALUATION,2013-05-26,WEEK 8,8,56,70,70,70,Visual Acuity Score,VACSCORE,,LEFT,EYE,58,ETDRS EYE CHART,,,,PRE-DOSE,-0.5,LEFT,Study Eye,
248,CDISCPILOT01,01-701-1234,OE,Placebo,Placebo,2013-03-30,2013-09-22,2013-07-07,100,Week 12,9,PRE-DOSE,-0.5,Study Eye Visual Acuity Score (letters),SBCVA,79,79,letters,20/25,25,95,95,LAST,-16,-16.842105263157894,0 <= CHG <= 5,N,-5 <= CHG <= -1,N,10 <= CHG <= 15,N,CHG <= -20,N,CHG <= 5,Y,CHG <= 10,Y,CHG >= -15,N,CHG >= 15,N,,,Y,,Y,55,BEST CORRECTED VISUAL ACUITY,OVERALL EVALUATION,2013-07-07,WEEK 12,9,84,79,79,79,Visual Acuity Score,VACSCORE,,LEFT,EYE,100,ETDRS EYE CHART,,,,PRE-DOSE,-0.5,LEFT,Study Eye,
249,CDISCPILOT01,01-701-1234,OE,Placebo,Placebo,2013-03-30,2013-09-22,2013-03-30,1,Baseline,3,PRE-DOSE,-0.5,Study Eye Visual Acuity Score (letters),SBCVA,95,95,letters,20/12,12,95,95,LAST,0,0,0 <= CHG <= 5,Y,-5 <= CHG <= -1,N,10 <= CHG <= 15,N,CHG <= -20,N,CHG <= 5,Y,CHG <= 10,Y,CHG >= -15,Y,CHG >= 15,N,,Y,Y,Y,,15,BEST CORRECTED VISUAL ACUITY,OVERALL EVALUATION,2013-03-30,BASELINE,3,1,95,95,95,Visual Acuity Score,VACSCORE,,LEFT,EYE,1,ETDRS EYE CHART,,,,PRE-DOSE,-0.5,LEFT,Study Eye,
250,CDISCPILOT01,01-701-1234,OE,Placebo,Placebo,2013-03-30,2013-09-22,2013-07-27,120,Week 16,10,PRE-DOSE,-0.5,Study Eye Visual Acuity Score (letters),SBCVA,98,98,letters,> 20/12,1,95,95,LAST,3,3.1578947368421053,0 <= CHG <= 5,Y,-5 <= CHG <= -1,N,10 <= CHG <= 15,N,CHG <= -20,N,CHG <= 5,Y,CHG <= 10,Y,CHG >= -15,Y,CHG >= 15,N,,,Y,,Y,63,BEST CORRECTED VISUAL ACUITY,OVERALL EVALUATION,2013-07-27,WEEK 16,10,112,98,98,98,Visual Acuity Score,VACSCORE,,LEFT,EYE,120,ETDRS EYE CHART,,,,PRE-DOSE,-0.5,LEFT,Study Eye,
251,CDISCPILOT01,01-701-1239,OE,Xanomeline High Dose,Xanomeline High Dose,2014-01-11,2014-07-10,2014-02-19,40,Week 6,7,PRE-DOSE,-0.5,Fellow Eye Visual Acuity Score (letters),FBCVA,3,3,letters,< 20/800,1000,58,58,LAST,-55,-94.82758620689656,0 <= CHG <= 5,N,-5 <= CHG <= -1,N,10 <= CHG <= 15,N,CHG <= -20,Y,CHG <= 5,Y,CHG <= 10,Y,CHG >= -15,N,CHG >= 15,N,,,Y,,Y,31,BEST CORRECTED VISUAL ACUITY,OVERALL EVALUATION,2014-02-19,WEEK 6,7,42,3,3,3,Visual Acuity Score,VACSCORE,,LEFT,EYE,40,ETDRS EYE CHART,,,,PRE-DOSE,-0.5,RIGHT,Fellow Eye,Y
252,CDISCPILOT01,01-701-1239,OE,Xanomeline High Dose,Xanomeline High Dose,2014-01-11,2014-07-10,2014-06-27,168,Week 24,12,PRE-DOSE,-0.5,Fellow Eye Visual Acuity Score (letters),FBCVA,34,34,letters,20/200,200,58,58,LAST,-24,-41.37931034482759,0 <= CHG <= 5,N,-5 <= CHG <= -1,N,10 <= CHG <= 15,N,CHG <= -20,Y,CHG <= 5,Y,CHG <= 10,Y,CHG >= -15,N,CHG >= 15,N,,,Y,Y,Y,79,BEST CORRECTED VISUAL ACUITY,OVERALL EVALUATION,2014-06-27,WEEK 24,12,168,34,34,34,Visual Acuity Score,VACSCORE,,LEFT,EYE,168,ETDRS EYE CHART,,,,PRE-DOSE,-0.5,RIGHT,Fellow Eye,
253,CDISCPILOT01,01-701-1239,OE,Xanomeline High Dose,Xanomeline High Dose,2014-01-11,2014-07-10,2014-02-08,29,Week 4,5,PRE-DOSE,-0.5,Fellow Eye Visual Acuity Score (letters),FBCVA,49,49,letters,20/100,100,58,58,LAST,-9,-15.517241379310345,0 <= CHG <= 5,N,-5 <= CHG <= -1,N,10 <= CHG <= 15,N,CHG <= -20,N,CHG <= 5,Y,CHG <= 10,Y,CHG >= -15,Y,CHG >= 15,N,,,Y,,Y,23,BEST CORRECTED VISUAL ACUITY,OVERALL EVALUATION,2014-02-08,WEEK 4,5,28,49,49,49,Visual Acuity Score,VACSCORE,,LEFT,EYE,29,ETDRS EYE CHART,,,,PRE-DOSE,-0.5,RIGHT,Fellow Eye,
254,CDISCPILOT01,01-701-1239,OE,Xanomeline High Dose,Xanomeline High Dose,2014-01-11,2014-07-10,2014-01-11,1,Baseline,3,PRE-DOSE,-0.5,Fellow Eye Visual Acuity Score (letters),FBCVA,58,58,letters,20/80,80,58,58,LAST,0,0,0 <= CHG <= 5,Y,-5 <= CHG <= -1,N,10 <= CHG <= 15,N,CHG <= -20,N,CHG <= 5,Y,CHG <= 10,Y,CHG >= -15,Y,CHG >= 15,N,,Y,Y,Y,,15,BEST CORRECTED VISUAL ACUITY,OVERALL EVALUATION,2014-01-11,BASELINE,3,1,58,58,58,Visual Acuity Score,VACSCORE,,LEFT,EYE,1,ETDRS EYE CHART,,,,PRE-DOSE,-0.5,RIGHT,Fellow Eye,
255,CDISCPILOT01,01-701-1239,OE,Xanomeline High Dose,Xanomeline High Dose,2014-01-11,2014-07-10,2014-03-06,55,Week 8,8,PRE-DOSE,-0.5,Fellow Eye Visual Acuity Score (letters),FBCVA,64,64,letters,20/50,50,58,58,LAST,6,10.344827586206897,0 <= CHG <= 5,N,-5 <= CHG <= -1,N,10 <= CHG <= 15,N,CHG <= -20,N,CHG <= 5,N,CHG <= 10,Y,CHG >= -15,Y,CHG >= 15,N,,,Y,,Y,39,BEST CORRECTED VISUAL ACUITY,OVERALL EVALUATION,2014-03-06,WEEK 8,8,56,64,64,64,Visual Acuity Score,VACSCORE,,LEFT,EYE,55,ETDRS EYE CHART,,,,PRE-DOSE,-0.5,RIGHT,Fellow Eye,
256,CDISCPILOT01,01-701-1239,OE,Xanomeline High Dose,Xanomeline High Dose,2014-01-11,2014-07-10,2014-05-28,138,Week 20,11,PRE-DOSE,-0.5,Fellow Eye Visual Acuity Score (letters),FBCVA,71,71,letters,20/40,40,58,58,LAST,13,22.413793103448278,0 <= CHG <= 5,N,-5 <= CHG <= -1,N,10 <= CHG <= 15,Y,CHG <= -20,N,CHG <= 5,N,CHG <= 10,N,CHG >= -15,Y,CHG >= 15,N,,,Y,,Y,71,BEST CORRECTED VISUAL ACUITY,OVERALL EVALUATION,2014-05-28,WEEK 20,11,140,71,71,71,Visual Acuity Score,VACSCORE,,LEFT,EYE,138,ETDRS EYE CHART,,,,PRE-DOSE,-0.5,RIGHT,Fellow Eye,
257,CDISCPILOT01,01-701-1239,OE,Xanomeline High Dose,Xanomeline High Dose,2014-01-11,2014-07-10,2014-03-19,68,Week 10 (T),8,PRE-DOSE,-0.5,Fellow Eye Visual Acuity Score (letters),FBCVA,72,72,letters,20/40,40,58,58,LAST,14,24.137931034482758,0 <= CHG <= 5,N,-5 <= CHG <= -1,N,10 <= CHG <= 15,Y,CHG <= -20,N,CHG <= 5,N,CHG <= 10,N,CHG >= -15,Y,CHG >= 15,N,,,Y,,Y,47,BEST CORRECTED VISUAL ACUITY,OVERALL EVALUATION,2014-03-19,WEEK 10 (T),8.1,70,72,72,72,Visual Acuity Score,VACSCORE,,LEFT,EYE,68,ETDRS EYE CHART,,,,PRE-DOSE,-0.5,RIGHT,Fellow Eye,
258,CDISCPILOT01,01-701-1239,OE,Xanomeline High Dose,Xanomeline High Dose,2014-01-11,2014-07-10,2014-05-02,112,Week 16,10,PRE-DOSE,-0.5,Fellow Eye Visual Acuity Score (letters),FBCVA,74,74,letters,20/32,32,58,58,LAST,16,27.586206896551722,0 <= CHG <= 5,N,-5 <= CHG <= -1,N,10 <= CHG <= 15,N,CHG <= -20,N,CHG <= 5,N,CHG <= 10,N,CHG >= -15,Y,CHG >= 15,Y,,,Y,,Y,63,BEST CORRECTED VISUAL ACUITY,OVERALL EVALUATION,2014-05-02,WEEK 16,10,112,74,74,74,Visual Acuity Score,VACSCORE,,LEFT,EYE,112,ETDRS EYE CHART,,,,PRE-DOSE,-0.5,RIGHT,Fellow Eye,
259,CDISCPILOT01,01-701-1239,OE,Xanomeline High Dose,Xanomeline High Dose,2014-01-11,2014-07-10,2014-04-02,82,Week 12,9,PRE-DOSE,-0.5,Fellow Eye Visual Acuity Score (letters),FBCVA,89,89,letters,20/16,16,58,58,LAST,31,53.44827586206896,0 <= CHG <= 5,N,-5 <= CHG <= -1,N,10 <= CHG <= 15,N,CHG <= -20,N,CHG <= 5,N,CHG <= 10,N,CHG >= -15,Y,CHG >= 15,Y,,,Y,,Y,55,BEST CORRECTED VISUAL ACUITY,OVERALL EVALUATION,2014-04-02,WEEK 12,9,84,89,89,89,Visual Acuity Score,VACSCORE,,LEFT,EYE,82,ETDRS EYE CHART,,,,PRE-DOSE,-0.5,RIGHT,Fellow Eye,
260,CDISCPILOT01,01-701-1239,OE,Xanomeline High Dose,Xanomeline High Dose,2014-01-11,2014-07-10,2014-01-11,1,Baseline,3,PRE-DOSE,-0.5,Study Eye Visual Acuity Score (letters),SBCVA,12,12,letters,20/640,640,12,12,LAST,0,0,0 <= CHG <= 5,Y,-5 <= CHG <= -1,N,10 <= CHG <= 15,N,CHG <= -20,N,CHG <= 5,Y,CHG <= 10,Y,CHG >= -15,Y,CHG >= 15,N,,Y,Y,Y,,16,BEST CORRECTED VISUAL ACUITY,OVERALL EVALUATION,2014-01-11,BASELINE,3,1,12,12,12,Visual Acuity Score,VACSCORE,,RIGHT,EYE,1,ETDRS EYE CHART,,,,PRE-DOSE,-0.5,RIGHT,Study Eye,Y
261,CDISCPILOT01,01-701-1239,OE,Xanomeline High Dose,Xanomeline High Dose,2014-01-11,2014-07-10,2014-05-02,112,Week 16,10,PRE-DOSE,-0.5,Study Eye Visual Acuity Score (letters),SBCVA,18,18,letters,20/500,500,12,12,LAST,6,50,0 <= CHG <= 5,N,-5 <= CHG <= -1,N,10 <= CHG <= 15,N,CHG <= -20,N,CHG <= 5,N,CHG <= 10,Y,CHG >= -15,Y,CHG >= 15,N,,,Y,,Y,64,BEST CORRECTED VISUAL ACUITY,OVERALL EVALUATION,2014-05-02,WEEK 16,10,112,18,18,18,Visual Acuity Score,VACSCORE,,RIGHT,EYE,112,ETDRS EYE CHART,,,,PRE-DOSE,-0.5,RIGHT,Study Eye,
262,CDISCPILOT01,01-701-1239,OE,Xanomeline High Dose,Xanomeline High Dose,2014-01-11,2014-07-10,2014-02-08,29,Week 4,5,PRE-DOSE,-0.5,Study Eye Visual Acuity Score (letters),SBCVA,25,25,letters,20/320,320,12,12,LAST,13,108.33333333333333,0 <= CHG <= 5,N,-5 <= CHG <= -1,N,10 <= CHG <= 15,Y,CHG <= -20,N,CHG <= 5,N,CHG <= 10,N,CHG >= -15,Y,CHG >= 15,N,,,Y,,Y,24,BEST CORRECTED VISUAL ACUITY,OVERALL EVALUATION,2014-02-08,WEEK 4,5,28,25,25,25,Visual Acuity Score,VACSCORE,,RIGHT,EYE,29,ETDRS EYE CHART,,,,PRE-DOSE,-0.5,RIGHT,Study Eye,
263,CDISCPILOT01,01-701-1239,OE,Xanomeline High Dose,Xanomeline High Dose,2014-01-11,2014-07-10,2014-03-19,68,Week 10 (T),8,PRE-DOSE,-0.5,Study Eye Visual Acuity Score (letters),SBCVA,41,41,letters,20/160,160,12,12,LAST,29,241.66666666666666,0 <= CHG <= 5,N,-5 <= CHG <= -1,N,10 <= CHG <= 15,N,CHG <= -20,N,CHG <= 5,N,CHG <= 10,N,CHG >= -15,Y,CHG >= 15,Y,,,Y,,Y,48,BEST CORRECTED VISUAL ACUITY,OVERALL EVALUATION,2014-03-19,WEEK 10 (T),8.1,70,41,41,41,Visual Acuity Score,VACSCORE,,RIGHT,EYE,68,ETDRS EYE CHART,,,,PRE-DOSE,-0.5,RIGHT,Study Eye,
264,CDISCPILOT01,01-701-1239,OE,Xanomeline High Dose,Xanomeline High Dose,2014-01-11,2014-07-10,2014-04-02,82,Week 12,9,PRE-DOSE,-0.5,Study Eye Visual Acuity Score (letters),SBCVA,46,46,letters,20/125,125,12,12,LAST,34,283.33333333333337,0 <= CHG <= 5,N,-5 <= CHG <= -1,N,10 <= CHG <= 15,N,CHG <= -20,N,CHG <= 5,N,CHG <= 10,N,CHG >= -15,Y,CHG >= 15,Y,,,Y,,Y,56,BEST CORRECTED VISUAL ACUITY,OVERALL EVALUATION,2014-04-02,WEEK 12,9,84,46,46,46,Visual Acuity Score,VACSCORE,,RIGHT,EYE,82,ETDRS EYE CHART,,,,PRE-DOSE,-0.5,RIGHT,Study Eye,
265,CDISCPILOT01,01-701-1239,OE,Xanomeline High Dose,Xanomeline High Dose,2014-01-11,2014-07-10,2014-05-28,138,Week 20,11,PRE-DOSE,-0.5,Study Eye Visual Acuity Score (letters),SBCVA,57,57,letters,20/80,80,12,12,LAST,45,375,0 <= CHG <= 5,N,-5 <= CHG <= -1,N,10 <= CHG <= 15,N,CHG <= -20,N,CHG <= 5,N,CHG <= 10,N,CHG >= -15,Y,CHG >= 15,Y,,,Y,,Y,72,BEST CORRECTED VISUAL ACUITY,OVERALL EVALUATION,2014-05-28,WEEK 20,11,140,57,57,57,Visual Acuity Score,VACSCORE,,RIGHT,EYE,138,ETDRS EYE CHART,,,,PRE-DOSE,-0.5,RIGHT,Study Eye,
266,CDISCPILOT01,01-701-1239,OE,Xanomeline High Dose,Xanomeline High Dose,2014-01-11,2014-07-10,2014-06-27,168,Week 24,12,PRE-DOSE,-0.5,Study Eye Visual Acuity Score (letters),SBCVA,60,60,letters,20/63,63,12,12,LAST,48,400,0 <= CHG <= 5,N,-5 <= CHG <= -1,N,10 <= CHG <= 15,N,CHG <= -20,N,CHG <= 5,N,CHG <= 10,N,CHG >= -15,Y,CHG >= 15,Y,,,Y,Y,Y,80,BEST CORRECTED VISUAL ACUITY,OVERALL EVALUATION,2014-06-27,WEEK 24,12,168,60,60,60,Visual Acuity Score,VACSCORE,,RIGHT,EYE,168,ETDRS EYE CHART,,,,PRE-DOSE,-0.5,RIGHT,Study Eye,
267,CDISCPILOT01,01-701-1239,OE,Xanomeline High Dose,Xanomeline High Dose,2014-01-11,2014-07-10,2014-02-19,40,Week 6,7,PRE-DOSE,-0.5,Study Eye Visual Acuity Score (letters),SBCVA,74,74,letters,20/32,32,12,12,LAST,62,516.6666666666667,0 <= CHG <= 5,N,-5 <= CHG <= -1,N,10 <= CHG <= 15,N,CHG <= -20,N,CHG <= 5,N,CHG <= 10,N,CHG >= -15,Y,CHG >= 15,Y,,,Y,,Y,32,BEST CORRECTED VISUAL ACUITY,OVERALL EVALUATION,2014-02-19,WEEK 6,7,42,74,74,74,Visual Acuity Score,VACSCORE,,RIGHT,EYE,40,ETDRS EYE CHART,,,,PRE-DOSE,-0.5,RIGHT,Study Eye,
268,CDISCPILOT01,01-701-1239,OE,Xanomeline High Dose,Xanomeline High Dose,2014-01-11,2014-07-10,2014-03-06,55,Week 8,8,PRE-DOSE,-0.5,Study Eye Visual Acuity Score (letters),SBCVA,75,75,letters,20/32,32,12,12,LAST,63,525,0 <= CHG <= 5,N,-5 <= CHG <= -1,N,10 <= CHG <= 15,N,CHG <= -20,N,CHG <= 5,N,CHG <= 10,N,CHG >= -15,Y,CHG >= 15,Y,,,Y,,Y,40,BEST CORRECTED VISUAL ACUITY,OVERALL EVALUATION,2014-03-06,WEEK 8,8,56,75,75,75,Visual Acuity Score,VACSCORE,,RIGHT,EYE,55,ETDRS EYE CHART,,,,PRE-DOSE,-0.5,RIGHT,Study Eye,
269,CDISCPILOT01,01-701-1275,OE,Xanomeline High Dose,Xanomeline High Dose,2014-02-07,2014-05-31,2014-03-07,29,Week 4,5,PRE-DOSE,-0.5,Fellow Eye Visual Acuity Score (letters),FBCVA,10,10,letters,20/640,640,75,75,LAST,-65,-86.66666666666667,0 <= CHG <= 5,N,-5 <= CHG <= -1,N,10 <= CHG <= 15,N,CHG <= -20,Y,CHG <= 5,Y,CHG <= 10,Y,CHG >= -15,N,CHG >= 15,N,,,Y,,Y,23,BEST CORRECTED VISUAL ACUITY,OVERALL EVALUATION,2014-03-07,WEEK 4,5,28,10,10,10,Visual Acuity Score,VACSCORE,,LEFT,EYE,29,ETDRS EYE CHART,,,,PRE-DOSE,-0.5,RIGHT,Fellow Eye,Y
270,CDISCPILOT01,01-701-1275,OE,Xanomeline High Dose,Xanomeline High Dose,2014-02-07,2014-05-31,2014-04-19,72,Week 10 (T),8,PRE-DOSE,-0.5,Fellow Eye Visual Acuity Score (letters),FBCVA,26,26,letters,20/320,320,75,75,LAST,-49,-65.33333333333333,0 <= CHG <= 5,N,-5 <= CHG <= -1,N,10 <= CHG <= 15,N,CHG <= -20,Y,CHG <= 5,Y,CHG <= 10,Y,CHG >= -15,N,CHG >= 15,N,,,Y,,Y,47,BEST CORRECTED VISUAL ACUITY,OVERALL EVALUATION,2014-04-19,WEEK 10 (T),8.1,70,26,26,26,Visual Acuity Score,VACSCORE,,LEFT,EYE,72,ETDRS EYE CHART,,,,PRE-DOSE,-0.5,RIGHT,Fellow Eye,
271,CDISCPILOT01,01-701-1275,OE,Xanomeline High Dose,Xanomeline High Dose,2014-02-07,2014-05-31,2014-03-22,44,Week 6,7,PRE-DOSE,-0.5,Fellow Eye Visual Acuity Score (letters),FBCVA,41,41,letters,20/160,160,75,75,LAST,-34,-45.33333333333333,0 <= CHG <= 5,N,-5 <= CHG <= -1,N,10 <= CHG <= 15,N,CHG <= -20,Y,CHG <= 5,Y,CHG <= 10,Y,CHG >= -15,N,CHG >= 15,N,,,Y,,Y,31,BEST CORRECTED VISUAL ACUITY,OVERALL EVALUATION,2014-03-22,WEEK 6,7,42,41,41,41,Visual Acuity Score,VACSCORE,,LEFT,EYE,44,ETDRS EYE CHART,,,,PRE-DOSE,-0.5,RIGHT,Fellow Eye,
272,CDISCPILOT01,01-701-1275,OE,Xanomeline High Dose,Xanomeline High Dose,2014-02-07,2014-05-31,2014-05-03,86,Week 12,9,PRE-DOSE,-0.5,Fellow Eye Visual Acuity Score (letters),FBCVA,51,51,letters,20/100,100,75,75,LAST,-24,-32,0 <= CHG <= 5,N,-5 <= CHG <= -1,N,10 <= CHG <= 15,N,CHG <= -20,Y,CHG <= 5,Y,CHG <= 10,Y,CHG >= -15,N,CHG >= 15,N,,,Y,Y,Y,55,BEST CORRECTED VISUAL ACUITY,OVERALL EVALUATION,2014-05-03,WEEK 12,9,84,51,51,51,Visual Acuity Score,VACSCORE,,LEFT,EYE,86,ETDRS EYE CHART,,,,PRE-DOSE,-0.5,RIGHT,Fellow Eye,
273,CDISCPILOT01,01-701-1275,OE,Xanomeline High Dose,Xanomeline High Dose,2014-02-07,2014-05-31,2014-04-05,58,Week 8,8,PRE-DOSE,-0.5,Fellow Eye Visual Acuity Score (letters),FBCVA,53,53,letters,20/100,100,75,75,LAST,-22,-29.333333333333332,0 <= CHG <= 5,N,-5 <= CHG <= -1,N,10 <= CHG <= 15,N,CHG <= -20,Y,CHG <= 5,Y,CHG <= 10,Y,CHG >= -15,N,CHG >= 15,N,,,Y,,Y,39,BEST CORRECTED VISUAL ACUITY,OVERALL EVALUATION,2014-04-05,WEEK 8,8,56,53,53,53,Visual Acuity Score,VACSCORE,,LEFT,EYE,58,ETDRS EYE CHART,,,,PRE-DOSE,-0.5,RIGHT,Fellow Eye,
274,CDISCPILOT01,01-701-1275,OE,Xanomeline High Dose,Xanomeline High Dose,2014-02-07,2014-05-31,2014-02-07,1,Baseline,3,PRE-DOSE,-0.5,Fellow Eye Visual Acuity Score (letters),FBCVA,75,75,letters,20/32,32,75,75,LAST,0,0,0 <= CHG <= 5,Y,-5 <= CHG <= -1,N,10 <= CHG <= 15,N,CHG <= -20,N,CHG <= 5,Y,CHG <= 10,Y,CHG >= -15,Y,CHG >= 15,N,,Y,Y,Y,,15,BEST CORRECTED VISUAL ACUITY,OVERALL EVALUATION,2014-02-07,BASELINE,3,1,75,75,75,Visual Acuity Score,VACSCORE,,LEFT,EYE,1,ETDRS EYE CHART,,,,PRE-DOSE,-0.5,RIGHT,Fellow Eye,
275,CDISCPILOT01,01-701-1275,OE,Xanomeline High Dose,Xanomeline High Dose,2014-02-07,2014-05-31,2014-04-05,58,Week 8,8,PRE-DOSE,-0.5,Study Eye Visual Acuity Score (letters),SBCVA,2,2,letters,< 20/800,1000,31,31,LAST,-29,-93.54838709677419,0 <= CHG <= 5,N,-5 <= CHG <= -1,N,10 <= CHG <= 15,N,CHG <= -20,Y,CHG <= 5,Y,CHG <= 10,Y,CHG >= -15,N,CHG >= 15,N,,,Y,,Y,40,BEST CORRECTED VISUAL ACUITY,OVERALL EVALUATION,2014-04-05,WEEK 8,8,56,2,2,2,Visual Acuity Score,VACSCORE,,RIGHT,EYE,58,ETDRS EYE CHART,,,,PRE-DOSE,-0.5,RIGHT,Study Eye,Y
276,CDISCPILOT01,01-701-1275,OE,Xanomeline High Dose,Xanomeline High Dose,2014-02-07,2014-05-31,2014-03-22,44,Week 6,7,PRE-DOSE,-0.5,Study Eye Visual Acuity Score (letters),SBCVA,17,17,letters,20/500,500,31,31,LAST,-14,-45.16129032258064,0 <= CHG <= 5,N,-5 <= CHG <= -1,N,10 <= CHG <= 15,N,CHG <= -20,N,CHG <= 5,Y,CHG <= 10,Y,CHG >= -15,Y,CHG >= 15,N,,,Y,,Y,32,BEST CORRECTED VISUAL ACUITY,OVERALL EVALUATION,2014-03-22,WEEK 6,7,42,17,17,17,Visual Acuity Score,VACSCORE,,RIGHT,EYE,44,ETDRS EYE CHART,,,,PRE-DOSE,-0.5,RIGHT,Study Eye,
277,CDISCPILOT01,01-701-1275,OE,Xanomeline High Dose,Xanomeline High Dose,2014-02-07,2014-05-31,2014-04-19,72,Week 10 (T),8,PRE-DOSE,-0.5,Study Eye Visual Acuity Score (letters),SBCVA,23,23,letters,20/400,400,31,31,LAST,-8,-25.806451612903224,0 <= CHG <= 5,N,-5 <= CHG <= -1,N,10 <= CHG <= 15,N,CHG <= -20,N,CHG <= 5,Y,CHG <= 10,Y,CHG >= -15,Y,CHG >= 15,N,,,Y,,Y,48,BEST CORRECTED VISUAL ACUITY,OVERALL EVALUATION,2014-04-19,WEEK 10 (T),8.1,70,23,23,23,Visual Acuity Score,VACSCORE,,RIGHT,EYE,72,ETDRS EYE CHART,,,,PRE-DOSE,-0.5,RIGHT,Study Eye,
278,CDISCPILOT01,01-701-1275,OE,Xanomeline High Dose,Xanomeline High Dose,2014-02-07,2014-05-31,2014-02-07,1,Baseline,3,PRE-DOSE,-0.5,Study Eye Visual Acuity Score (letters),SBCVA,31,31,letters,20/250,250,31,31,LAST,0,0,0 <= CHG <= 5,Y,-5 <= CHG <= -1,N,10 <= CHG <= 15,N,CHG <= -20,N,CHG <= 5,Y,CHG <= 10,Y,CHG >= -15,Y,CHG >= 15,N,,Y,Y,Y,,16,BEST CORRECTED VISUAL ACUITY,OVERALL EVALUATION,2014-02-07,BASELINE,3,1,31,31,31,Visual Acuity Score,VACSCORE,,RIGHT,EYE,1,ETDRS EYE CHART,,,,PRE-DOSE,-0.5,RIGHT,Study Eye,
279,CDISCPILOT01,01-701-1275,OE,Xanomeline High Dose,Xanomeline High Dose,2014-02-07,2014-05-31,2014-05-03,86,Week 12,9,PRE-DOSE,-0.5,Study Eye Visual Acuity Score (letters),SBCVA,31,31,letters,20/250,250,31,31,LAST,0,0,0 <= CHG <= 5,Y,-5 <= CHG <= -1,N,10 <= CHG <= 15,N,CHG <= -20,N,CHG <= 5,Y,CHG <= 10,Y,CHG >= -15,Y,CHG >= 15,N,,,Y,Y,Y,56,BEST CORRECTED VISUAL ACUITY,OVERALL EVALUATION,2014-05-03,WEEK 12,9,84,31,31,31,Visual Acuity Score,VACSCORE,,RIGHT,EYE,86,ETDRS EYE CHART,,,,PRE-DOSE,-0.5,RIGHT,Study Eye,
280,CDISCPILOT01,01-701-1275,OE,Xanomeline High Dose,Xanomeline High Dose,2014-02-07,2014-05-31,2014-03-07,29,Week 4,5,PRE-DOSE,-0.5,Study Eye Visual Acuity Score (letters),SBCVA,92,92,letters,20/16,16,31,31,LAST,61,196.7741935483871,0 <= CHG <= 5,N,-5 <= CHG <= -1,N,10 <= CHG <= 15,N,CHG <= -20,N,CHG <= 5,N,CHG <= 10,N,CHG >= -15,Y,CHG >= 15,Y,,,Y,,Y,24,BEST CORRECTED VISUAL ACUITY,OVERALL EVALUATION,2014-03-07,WEEK 4,5,28,92,92,92,Visual Acuity Score,VACSCORE,,RIGHT,EYE,29,ETDRS EYE CHART,,,,PRE-DOSE,-0.5,RIGHT,Study Eye,
281,CDISCPILOT01,01-701-1287,OE,Xanomeline High Dose,Xanomeline High Dose,2014-01-25,2014-07-26,2014-02-20,27,Week 4,5,PRE-DOSE,-0.5,Fellow Eye Visual Acuity Score (letters),FBCVA,39,39,letters,20/160,160,58,58,LAST,-19,-32.758620689655174,0 <= CHG <= 5,N,-5 <= CHG <= -1,N,10 <= CHG <= 15,N,CHG <= -20,N,CHG <= 5,Y,CHG <= 10,Y,CHG >= -15,N,CHG >= 15,N,,,Y,,Y,23,BEST CORRECTED VISUAL ACUITY,OVERALL EVALUATION,2014-02-20,WEEK 4,5,28,39,39,39,Visual Acuity Score,VACSCORE,,LEFT,EYE,27,ETDRS EYE CHART,,,,PRE-DOSE,-0.5,RIGHT,Fellow Eye,Y
282,CDISCPILOT01,01-701-1287,OE,Xanomeline High Dose,Xanomeline High Dose,2014-01-25,2014-07-26,2014-03-21,56,Week 8,8,PRE-DOSE,-0.5,Fellow Eye Visual Acuity Score (letters),FBCVA,41,41,letters,20/160,160,58,58,LAST,-17,-29.310344827586203,0 <= CHG <= 5,N,-5 <= CHG <= -1,N,10 <= CHG <= 15,N,CHG <= -20,N,CHG <= 5,Y,CHG <= 10,Y,CHG >= -15,N,CHG >= 15,N,,,Y,,Y,39,BEST CORRECTED VISUAL ACUITY,OVERALL EVALUATION,2014-03-21,WEEK 8,8,56,41,41,41,Visual Acuity Score,VACSCORE,,LEFT,EYE,56,ETDRS EYE CHART,,,,PRE-DOSE,-0.5,RIGHT,Fellow Eye,
283,CDISCPILOT01,01-701-1287,OE,Xanomeline High Dose,Xanomeline High Dose,2014-01-25,2014-07-26,2014-06-12,139,Week 20,11,PRE-DOSE,-0.5,Fellow Eye Visual Acuity Score (letters),FBCVA,49,49,letters,20/100,100,58,58,LAST,-9,-15.517241379310345,0 <= CHG <= 5,N,-5 <= CHG <= -1,N,10 <= CHG <= 15,N,CHG <= -20,N,CHG <= 5,Y,CHG <= 10,Y,CHG >= -15,Y,CHG >= 15,N,,,Y,,Y,71,BEST CORRECTED VISUAL ACUITY,OVERALL EVALUATION,2014-06-12,WEEK 20,11,140,49,49,49,Visual Acuity Score,VACSCORE,,LEFT,EYE,139,ETDRS EYE CHART,,,,PRE-DOSE,-0.5,RIGHT,Fellow Eye,
284,CDISCPILOT01,01-701-1287,OE,Xanomeline High Dose,Xanomeline High Dose,2014-01-25,2014-07-26,2014-03-06,41,Week 6,7,PRE-DOSE,-0.5,Fellow Eye Visual Acuity Score (letters),FBCVA,52,52,letters,20/100,100,58,58,LAST,-6,-10.344827586206897,0 <= CHG <= 5,N,-5 <= CHG <= -1,N,10 <= CHG <= 15,N,CHG <= -20,N,CHG <= 5,Y,CHG <= 10,Y,CHG >= -15,Y,CHG >= 15,N,,,Y,,Y,31,BEST CORRECTED VISUAL ACUITY,OVERALL EVALUATION,2014-03-06,WEEK 6,7,42,52,52,52,Visual Acuity Score,VACSCORE,,LEFT,EYE,41,ETDRS EYE CHART,,,,PRE-DOSE,-0.5,RIGHT,Fellow Eye,
285,CDISCPILOT01,01-701-1287,OE,Xanomeline High Dose,Xanomeline High Dose,2014-01-25,2014-07-26,2014-05-15,111,Week 16,10,PRE-DOSE,-0.5,Fellow Eye Visual Acuity Score (letters),FBCVA,54,54,letters,20/80,80,58,58,LAST,-4,-6.896551724137931,0 <= CHG <= 5,N,-5 <= CHG <= -1,Y,10 <= CHG <= 15,N,CHG <= -20,N,CHG <= 5,Y,CHG <= 10,Y,CHG >= -15,Y,CHG >= 15,N,,,Y,,Y,63,BEST CORRECTED VISUAL ACUITY,OVERALL EVALUATION,2014-05-15,WEEK 16,10,112,54,54,54,Visual Acuity Score,VACSCORE,,LEFT,EYE,111,ETDRS EYE CHART,,,,PRE-DOSE,-0.5,RIGHT,Fellow Eye,
286,CDISCPILOT01,01-701-1287,OE,Xanomeline High Dose,Xanomeline High Dose,2014-01-25,2014-07-26,2014-01-25,1,Baseline,3,PRE-DOSE,-0.5,Fellow Eye Visual Acuity Score (letters),FBCVA,58,58,letters,20/80,80,58,58,LAST,0,0,0 <= CHG <= 5,Y,-5 <= CHG <= -1,N,10 <= CHG <= 15,N,CHG <= -20,N,CHG <= 5,Y,CHG <= 10,Y,CHG >= -15,Y,CHG >= 15,N,,Y,Y,Y,,15,BEST CORRECTED VISUAL ACUITY,OVERALL EVALUATION,2014-01-25,BASELINE,3,1,58,58,58,Visual Acuity Score,VACSCORE,,LEFT,EYE,1,ETDRS EYE CHART,,,,PRE-DOSE,-0.5,RIGHT,Fellow Eye,
287,CDISCPILOT01,01-701-1287,OE,Xanomeline High Dose,Xanomeline High Dose,2014-01-25,2014-07-26,2014-07-12,169,Week 24,12,PRE-DOSE,-0.5,Fellow Eye Visual Acuity Score (letters),FBCVA,58,58,letters,20/80,80,58,58,LAST,0,0,0 <= CHG <= 5,Y,-5 <= CHG <= -1,N,10 <= CHG <= 15,N,CHG <= -20,N,CHG <= 5,Y,CHG <= 10,Y,CHG >= -15,Y,CHG >= 15,N,,,Y,Y,Y,79,BEST CORRECTED VISUAL ACUITY,OVERALL EVALUATION,2014-07-12,WEEK 24,12,168,58,58,58,Visual Acuity Score,VACSCORE,,LEFT,EYE,169,ETDRS EYE CHART,,,,PRE-DOSE,-0.5,RIGHT,Fellow Eye,
288,CDISCPILOT01,01-701-1287,OE,Xanomeline High Dose,Xanomeline High Dose,2014-01-25,2014-07-26,2014-04-03,69,Week 10 (T),8,PRE-DOSE,-0.5,Fellow Eye Visual Acuity Score (letters),FBCVA,68,68,letters,20/50,50,58,58,LAST,10,17.24137931034483,0 <= CHG <= 5,N,-5 <= CHG <= -1,N,10 <= CHG <= 15,Y,CHG <= -20,N,CHG <= 5,N,CHG <= 10,Y,CHG >= -15,Y,CHG >= 15,N,,,Y,,Y,47,BEST CORRECTED VISUAL ACUITY,OVERALL EVALUATION,2014-04-03,WEEK 10 (T),8.1,70,68,68,68,Visual Acuity Score,VACSCORE,,LEFT,EYE,69,ETDRS EYE CHART,,,,PRE-DOSE,-0.5,RIGHT,Fellow Eye,
289,CDISCPILOT01,01-701-1287,OE,Xanomeline High Dose,Xanomeline High Dose,2014-01-25,2014-07-26,2014-04-17,83,Week 12,9,PRE-DOSE,-0.5,Fellow Eye Visual Acuity Score (letters),FBCVA,88,88,letters,20/20,20,58,58,LAST,30,51.724137931034484,0 <= CHG <= 5,N,-5 <= CHG <= -1,N,10 <= CHG <= 15,N,CHG <= -20,N,CHG <= 5,N,CHG <= 10,N,CHG >= -15,Y,CHG >= 15,Y,,,Y,,Y,55,BEST CORRECTED VISUAL ACUITY,OVERALL EVALUATION,2014-04-17,WEEK 12,9,84,88,88,88,Visual Acuity Score,VACSCORE,,LEFT,EYE,83,ETDRS EYE CHART,,,,PRE-DOSE,-0.5,RIGHT,Fellow Eye,
290,CDISCPILOT01,01-701-1287,OE,Xanomeline High Dose,Xanomeline High Dose,2014-01-25,2014-07-26,2014-05-15,111,Week 16,10,PRE-DOSE,-0.5,Study Eye Visual Acuity Score (letters),SBCVA,8,8,letters,20/800,800,10,10,LAST,-2,-20,0 <= CHG <= 5,N,-5 <= CHG <= -1,Y,10 <= CHG <= 15,N,CHG <= -20,N,CHG <= 5,Y,CHG <= 10,Y,CHG >= -15,Y,CHG >= 15,N,,,Y,,Y,64,BEST CORRECTED VISUAL ACUITY,OVERALL EVALUATION,2014-05-15,WEEK 16,10,112,8,8,8,Visual Acuity Score,VACSCORE,,RIGHT,EYE,111,ETDRS EYE CHART,,,,PRE-DOSE,-0.5,RIGHT,Study Eye,Y
291,CDISCPILOT01,01-701-1287,OE,Xanomeline High Dose,Xanomeline High Dose,2014-01-25,2014-07-26,2014-01-25,1,Baseline,3,PRE-DOSE,-0.5,Study Eye Visual Acuity Score (letters),SBCVA,10,10,letters,20/640,640,10,10,LAST,0,0,0 <= CHG <= 5,Y,-5 <= CHG <= -1,N,10 <= CHG <= 15,N,CHG <= -20,N,CHG <= 5,Y,CHG <= 10,Y,CHG >= -15,Y,CHG >= 15,N,,Y,Y,Y,,16,BEST CORRECTED VISUAL ACUITY,OVERALL EVALUATION,2014-01-25,BASELINE,3,1,10,10,10,Visual Acuity Score,VACSCORE,,RIGHT,EYE,1,ETDRS EYE CHART,,,,PRE-DOSE,-0.5,RIGHT,Study Eye,
292,CDISCPILOT01,01-701-1287,OE,Xanomeline High Dose,Xanomeline High Dose,2014-01-25,2014-07-26,2014-07-12,169,Week 24,12,PRE-DOSE,-0.5,Study Eye Visual Acuity Score (letters),SBCVA,11,11,letters,20/640,640,10,10,LAST,1,10,0 <= CHG <= 5,Y,-5 <= CHG <= -1,N,10 <= CHG <= 15,N,CHG <= -20,N,CHG <= 5,Y,CHG <= 10,Y,CHG >= -15,Y,CHG >= 15,N,,,Y,Y,Y,80,BEST CORRECTED VISUAL ACUITY,OVERALL EVALUATION,2014-07-12,WEEK 24,12,168,11,11,11,Visual Acuity Score,VACSCORE,,RIGHT,EYE,169,ETDRS EYE CHART,,,,PRE-DOSE,-0.5,RIGHT,Study Eye,
293,CDISCPILOT01,01-701-1287,OE,Xanomeline High Dose,Xanomeline High Dose,2014-01-25,2014-07-26,2014-03-06,41,Week 6,7,PRE-DOSE,-0.5,Study Eye Visual Acuity Score (letters),SBCVA,25,25,letters,20/320,320,10,10,LAST,15,150,0 <= CHG <= 5,N,-5 <= CHG <= -1,N,10 <= CHG <= 15,Y,CHG <= -20,N,CHG <= 5,N,CHG <= 10,N,CHG >= -15,Y,CHG >= 15,Y,,,Y,,Y,32,BEST CORRECTED VISUAL ACUITY,OVERALL EVALUATION,2014-03-06,WEEK 6,7,42,25,25,25,Visual Acuity Score,VACSCORE,,RIGHT,EYE,41,ETDRS EYE CHART,,,,PRE-DOSE,-0.5,RIGHT,Study Eye,
294,CDISCPILOT01,01-701-1287,OE,Xanomeline High Dose,Xanomeline High Dose,2014-01-25,2014-07-26,2014-03-21,56,Week 8,8,PRE-DOSE,-0.5,Study Eye Visual Acuity Score (letters),SBCVA,32,32,letters,20/250,250,10,10,LAST,22,220.00000000000003,0 <= CHG <= 5,N,-5 <= CHG <= -1,N,10 <= CHG <= 15,N,CHG <= -20,N,CHG <= 5,N,CHG <= 10,N,CHG >= -15,Y,CHG >= 15,Y,,,Y,,Y,40,BEST CORRECTED VISUAL ACUITY,OVERALL EVALUATION,2014-03-21,WEEK 8,8,56,32,32,32,Visual Acuity Score,VACSCORE,,RIGHT,EYE,56,ETDRS EYE CHART,,,,PRE-DOSE,-0.5,RIGHT,Study Eye,
295,CDISCPILOT01,01-701-1287,OE,Xanomeline High Dose,Xanomeline High Dose,2014-01-25,2014-07-26,2014-04-17,83,Week 12,9,PRE-DOSE,-0.5,Study Eye Visual Acuity Score (letters),SBCVA,32,32,letters,20/250,250,10,10,LAST,22,220.00000000000003,0 <= CHG <= 5,N,-5 <= CHG <= -1,N,10 <= CHG <= 15,N,CHG <= -20,N,CHG <= 5,N,CHG <= 10,N,CHG >= -15,Y,CHG >= 15,Y,,,Y,,Y,56,BEST CORRECTED VISUAL ACUITY,OVERALL EVALUATION,2014-04-17,WEEK 12,9,84,32,32,32,Visual Acuity Score,VACSCORE,,RIGHT,EYE,83,ETDRS EYE CHART,,,,PRE-DOSE,-0.5,RIGHT,Study Eye,
296,CDISCPILOT01,01-701-1287,OE,Xanomeline High Dose,Xanomeline High Dose,2014-01-25,2014-07-26,2014-06-12,139,Week 20,11,PRE-DOSE,-0.5,Study Eye Visual Acuity Score (letters),SBCVA,73,73,letters,20/40,40,10,10,LAST,63,630,0 <= CHG <= 5,N,-5 <= CHG <= -1,N,10 <= CHG <= 15,N,CHG <= -20,N,CHG <= 5,N,CHG <= 10,N,CHG >= -15,Y,CHG >= 15,Y,,,Y,,Y,72,BEST CORRECTED VISUAL ACUITY,OVERALL EVALUATION,2014-06-12,WEEK 20,11,140,73,73,73,Visual Acuity Score,VACSCORE,,RIGHT,EYE,139,ETDRS EYE CHART,,,,PRE-DOSE,-0.5,RIGHT,Study Eye,
297,CDISCPILOT01,01-701-1287,OE,Xanomeline High Dose,Xanomeline High Dose,2014-01-25,2014-07-26,2014-02-20,27,Week 4,5,PRE-DOSE,-0.5,Study Eye Visual Acuity Score (letters),SBCVA,85,85,letters,20/20,20,10,10,LAST,75,750,0 <= CHG <= 5,N,-5 <= CHG <= -1,N,10 <= CHG <= 15,N,CHG <= -20,N,CHG <= 5,N,CHG <= 10,N,CHG >= -15,Y,CHG >= 15,Y,,,Y,,Y,24,BEST CORRECTED VISUAL ACUITY,OVERALL EVALUATION,2014-02-20,WEEK 4,5,28,85,85,85,Visual Acuity Score,VACSCORE,,RIGHT,EYE,27,ETDRS EYE CHART,,,,PRE-DOSE,-0.5,RIGHT,Study Eye,
298,CDISCPILOT01,01-701-1287,OE,Xanomeline High Dose,Xanomeline High Dose,2014-01-25,2014-07-26,2014-04-03,69,Week 10 (T),8,PRE-DOSE,-0.5,Study Eye Visual Acuity Score (letters),SBCVA,90,90,letters,20/16,16,10,10,LAST,80,800,0 <= CHG <= 5,N,-5 <= CHG <= -1,N,10 <= CHG <= 15,N,CHG <= -20,N,CHG <= 5,N,CHG <= 10,N,CHG >= -15,Y,CHG >= 15,Y,,,Y,,Y,48,BEST CORRECTED VISUAL ACUITY,OVERALL EVALUATION,2014-04-03,WEEK 10 (T),8.1,70,90,90,90,Visual Acuity Score,VACSCORE,,RIGHT,EYE,69,ETDRS EYE CHART,,,,PRE-DOSE,-0.5,RIGHT,Study Eye,
299,CDISCPILOT01,01-701-1294,OE,Xanomeline Low Dose,Xanomeline Low Dose,2013-03-24,2013-06-14,2013-04-24,32,Week 4,5,PRE-DOSE,-0.5,Fellow Eye Visual Acuity Score (letters),FBCVA,23,23,letters,20/400,400,38,38,LAST,-15,-39.473684210526315,0 <= CHG <= 5,N,-5 <= CHG <= -1,N,10 <= CHG <= 15,N,CHG <= -20,N,CHG <= 5,Y,CHG <= 10,Y,CHG >= -15,Y,CHG >= 15,N,,,Y,,Y,23,BEST CORRECTED VISUAL ACUITY,OVERALL EVALUATION,2013-04-24,WEEK 4,5,28,23,23,23,Visual Acuity Score,VACSCORE,,LEFT,EYE,32,ETDRS EYE CHART,,,,PRE-DOSE,-0.5,RIGHT,Fellow Eye,Y
300,CDISCPILOT01,01-701-1294,OE,Xanomeline Low Dose,Xanomeline Low Dose,2013-03-24,2013-06-14,2013-06-05,74,Week 10 (T),8,PRE-DOSE,-0.5,Fellow Eye Visual Acuity Score (letters),FBCVA,34,34,letters,20/200,200,38,38,LAST,-4,-10.526315789473683,0 <= CHG <= 5,N,-5 <= CHG <= -1,Y,10 <= CHG <= 15,N,CHG <= -20,N,CHG <= 5,Y,CHG <= 10,Y,CHG >= -15,Y,CHG >= 15,N,,,Y,,Y,47,BEST CORRECTED VISUAL ACUITY,OVERALL EVALUATION,2013-06-05,WEEK 10 (T),8.1,70,34,34,34,Visual Acuity Score,VACSCORE,,LEFT,EYE,74,ETDRS EYE CHART,,,,PRE-DOSE,-0.5,RIGHT,Fellow Eye,
301,CDISCPILOT01,01-701-1294,OE,Xanomeline Low Dose,Xanomeline Low Dose,2013-03-24,2013-06-14,2013-05-08,46,Week 6,7,PRE-DOSE,-0.5,Fellow Eye Visual Acuity Score (letters),FBCVA,35,35,letters,20/200,200,38,38,LAST,-3,-7.894736842105263,0 <= CHG <= 5,N,-5 <= CHG <= -1,Y,10 <= CHG <= 15,N,CHG <= -20,N,CHG <= 5,Y,CHG <= 10,Y,CHG >= -15,Y,CHG >= 15,N,,,Y,,Y,31,BEST CORRECTED VISUAL ACUITY,OVERALL EVALUATION,2013-05-08,WEEK 6,7,42,35,35,35,Visual Acuity Score,VACSCORE,,LEFT,EYE,46,ETDRS EYE CHART,,,,PRE-DOSE,-0.5,RIGHT,Fellow Eye,
302,CDISCPILOT01,01-701-1294,OE,Xanomeline Low Dose,Xanomeline Low Dose,2013-03-24,2013-06-14,2013-03-24,1,Baseline,3,PRE-DOSE,-0.5,Fellow Eye Visual Acuity Score (letters),FBCVA,38,38,letters,20/200,200,38,38,LAST,0,0,0 <= CHG <= 5,Y,-5 <= CHG <= -1,N,10 <= CHG <= 15,N,CHG <= -20,N,CHG <= 5,Y,CHG <= 10,Y,CHG >= -15,Y,CHG >= 15,N,,Y,Y,Y,,15,BEST CORRECTED VISUAL ACUITY,OVERALL EVALUATION,2013-03-24,BASELINE,3,1,38,38,38,Visual Acuity Score,VACSCORE,,LEFT,EYE,1,ETDRS EYE CHART,,,,PRE-DOSE,-0.5,RIGHT,Fellow Eye,
303,CDISCPILOT01,01-701-1294,OE,Xanomeline Low Dose,Xanomeline Low Dose,2013-03-24,2013-06-14,2013-06-14,83,Week 12,9,PRE-DOSE,-0.5,Fellow Eye Visual Acuity Score (letters),FBCVA,50,50,letters,20/100,100,38,38,LAST,12,31.57894736842105,0 <= CHG <= 5,N,-5 <= CHG <= -1,N,10 <= CHG <= 15,Y,CHG <= -20,N,CHG <= 5,N,CHG <= 10,N,CHG >= -15,Y,CHG >= 15,N,,,Y,Y,Y,55,BEST CORRECTED VISUAL ACUITY,OVERALL EVALUATION,2013-06-14,WEEK 12,9,84,50,50,50,Visual Acuity Score,VACSCORE,,LEFT,EYE,83,ETDRS EYE CHART,,,,PRE-DOSE,-0.5,RIGHT,Fellow Eye,
304,CDISCPILOT01,01-701-1294,OE,Xanomeline Low Dose,Xanomeline Low Dose,2013-03-24,2013-06-14,2013-05-22,60,Week 8,8,PRE-DOSE,-0.5,Fellow Eye Visual Acuity Score (letters),FBCVA,59,59,letters,20/63,63,38,38,LAST,21,55.26315789473685,0 <= CHG <= 5,N,-5 <= CHG <= -1,N,10 <= CHG <= 15,N,CHG <= -20,N,CHG <= 5,N,CHG <= 10,N,CHG >= -15,Y,CHG >= 15,Y,,,Y,,Y,39,BEST CORRECTED VISUAL ACUITY,OVERALL EVALUATION,2013-05-22,WEEK 8,8,56,59,59,59,Visual Acuity Score,VACSCORE,,LEFT,EYE,60,ETDRS EYE CHART,,,,PRE-DOSE,-0.5,RIGHT,Fellow Eye,
305,CDISCPILOT01,01-701-1294,OE,Xanomeline Low Dose,Xanomeline Low Dose,2013-03-24,2013-06-14,2013-06-05,74,Week 10 (T),8,PRE-DOSE,-0.5,Study Eye Visual Acuity Score (letters),SBCVA,4,4,letters,20/800,800,95,95,LAST,-91,-95.78947368421052,0 <= CHG <= 5,N,-5 <= CHG <= -1,N,10 <= CHG <= 15,N,CHG <= -20,Y,CHG <= 5,Y,CHG <= 10,Y,CHG >= -15,N,CHG >= 15,N,,,Y,,Y,48,BEST CORRECTED VISUAL ACUITY,OVERALL EVALUATION,2013-06-05,WEEK 10 (T),8.1,70,4,4,4,Visual Acuity Score,VACSCORE,,RIGHT,EYE,74,ETDRS EYE CHART,,,,PRE-DOSE,-0.5,RIGHT,Study Eye,Y
306,CDISCPILOT01,01-701-1294,OE,Xanomeline Low Dose,Xanomeline Low Dose,2013-03-24,2013-06-14,2013-06-14,83,Week 12,9,PRE-DOSE,-0.5,Study Eye Visual Acuity Score (letters),SBCVA,47,47,letters,20/125,125,95,95,LAST,-48,-50.526315789473685,0 <= CHG <= 5,N,-5 <= CHG <= -1,N,10 <= CHG <= 15,N,CHG <= -20,Y,CHG <= 5,Y,CHG <= 10,Y,CHG >= -15,N,CHG >= 15,N,,,Y,Y,Y,56,BEST CORRECTED VISUAL ACUITY,OVERALL EVALUATION,2013-06-14,WEEK 12,9,84,47,47,47,Visual Acuity Score,VACSCORE,,RIGHT,EYE,83,ETDRS EYE CHART,,,,PRE-DOSE,-0.5,RIGHT,Study Eye,
307,CDISCPILOT01,01-701-1294,OE,Xanomeline Low Dose,Xanomeline Low Dose,2013-03-24,2013-06-14,2013-04-24,32,Week 4,5,PRE-DOSE,-0.5,Study Eye Visual Acuity Score (letters),SBCVA,49,49,letters,20/100,100,95,95,LAST,-46,-48.421052631578945,0 <= CHG <= 5,N,-5 <= CHG <= -1,N,10 <= CHG <= 15,N,CHG <= -20,Y,CHG <= 5,Y,CHG <= 10,Y,CHG >= -15,N,CHG >= 15,N,,,Y,,Y,24,BEST CORRECTED VISUAL ACUITY,OVERALL EVALUATION,2013-04-24,WEEK 4,5,28,49,49,49,Visual Acuity Score,VACSCORE,,RIGHT,EYE,32,ETDRS EYE CHART,,,,PRE-DOSE,-0.5,RIGHT,Study Eye,
308,CDISCPILOT01,01-701-1294,OE,Xanomeline Low Dose,Xanomeline Low Dose,2013-03-24,2013-06-14,2013-05-08,46,Week 6,7,PRE-DOSE,-0.5,Study Eye Visual Acuity Score (letters),SBCVA,68,68,letters,20/50,50,95,95,LAST,-27,-28.421052631578945,0 <= CHG <= 5,N,-5 <= CHG <= -1,N,10 <= CHG <= 15,N,CHG <= -20,Y,CHG <= 5,Y,CHG <= 10,Y,CHG >= -15,N,CHG >= 15,N,,,Y,,Y,32,BEST CORRECTED VISUAL ACUITY,OVERALL EVALUATION,2013-05-08,WEEK 6,7,42,68,68,68,Visual Acuity Score,VACSCORE,,RIGHT,EYE,46,ETDRS EYE CHART,,,,PRE-DOSE,-0.5,RIGHT,Study Eye,
309,CDISCPILOT01,01-701-1294,OE,Xanomeline Low Dose,Xanomeline Low Dose,2013-03-24,2013-06-14,2013-05-22,60,Week 8,8,PRE-DOSE,-0.5,Study Eye Visual Acuity Score (letters),SBCVA,77,77,letters,20/32,32,95,95,LAST,-18,-18.947368421052634,0 <= CHG <= 5,N,-5 <= CHG <= -1,N,10 <= CHG <= 15,N,CHG <= -20,N,CHG <= 5,Y,CHG <= 10,Y,CHG >= -15,N,CHG >= 15,N,,,Y,,Y,40,BEST CORRECTED VISUAL ACUITY,OVERALL EVALUATION,2013-05-22,WEEK 8,8,56,77,77,77,Visual Acuity Score,VACSCORE,,RIGHT,EYE,60,ETDRS EYE CHART,,,,PRE-DOSE,-0.5,RIGHT,Study Eye,
310,CDISCPILOT01,01-701-1294,OE,Xanomeline Low Dose,Xanomeline Low Dose,2013-03-24,2013-06-14,2013-03-24,1,Baseline,3,PRE-DOSE,-0.5,Study Eye Visual Acuity Score (letters),SBCVA,95,95,letters,20/12,12,95,95,LAST,0,0,0 <= CHG <= 5,Y,-5 <= CHG <= -1,N,10 <= CHG <= 15,N,CHG <= -20,N,CHG <= 5,Y,CHG <= 10,Y,CHG >= -15,Y,CHG >= 15,N,,Y,Y,Y,,16,BEST CORRECTED VISUAL ACUITY,OVERALL EVALUATION,2013-03-24,BASELINE,3,1,95,95,95,Visual Acuity Score,VACSCORE,,RIGHT,EYE,1,ETDRS EYE CHART,,,,PRE-DOSE,-0.5,RIGHT,Study Eye,
311,CDISCPILOT01,01-701-1302,OE,Xanomeline High Dose,Xanomeline High Dose,2013-08-29,2013-11-05,2013-11-05,69,Week 12,9,PRE-DOSE,-0.5,Fellow Eye Visual Acuity Score (letters),FBCVA,2,2,letters,< 20/800,1000,51,51,LAST,-49,-96.07843137254902,0 <= CHG <= 5,N,-5 <= CHG <= -1,N,10 <= CHG <= 15,N,CHG <= -20,Y,CHG <= 5,Y,CHG <= 10,Y,CHG >= -15,N,CHG >= 15,N,,,Y,Y,Y,48,BEST CORRECTED VISUAL ACUITY,OVERALL EVALUATION,2013-11-05,WEEK 12,9,84,2,2,2,Visual Acuity Score,VACSCORE,,RIGHT,EYE,69,ETDRS EYE CHART,,,,PRE-DOSE,-0.5,LEFT,Fellow Eye,Y
312,CDISCPILOT01,01-701-1302,OE,Xanomeline High Dose,Xanomeline High Dose,2013-08-29,2013-11-05,2013-10-08,41,Week 6,7,PRE-DOSE,-0.5,Fellow Eye Visual Acuity Score (letters),FBCVA,24,24,letters,20/320,320,51,51,LAST,-27,-52.94117647058824,0 <= CHG <= 5,N,-5 <= CHG <= -1,N,10 <= CHG <= 15,N,CHG <= -20,Y,CHG <= 5,Y,CHG <= 10,Y,CHG >= -15,N,CHG >= 15,N,,,Y,,Y,32,BEST CORRECTED VISUAL ACUITY,OVERALL EVALUATION,2013-10-08,WEEK 6,7,42,24,24,24,Visual Acuity Score,VACSCORE,,RIGHT,EYE,41,ETDRS EYE CHART,,,,PRE-DOSE,-0.5,LEFT,Fellow Eye,
313,CDISCPILOT01,01-701-1302,OE,Xanomeline High Dose,Xanomeline High Dose,2013-08-29,2013-11-05,2013-10-22,55,Week 8,8,PRE-DOSE,-0.5,Fellow Eye Visual Acuity Score (letters),FBCVA,24,24,letters,20/320,320,51,51,LAST,-27,-52.94117647058824,0 <= CHG <= 5,N,-5 <= CHG <= -1,N,10 <= CHG <= 15,N,CHG <= -20,Y,CHG <= 5,Y,CHG <= 10,Y,CHG >= -15,N,CHG >= 15,N,,,Y,,Y,40,BEST CORRECTED VISUAL ACUITY,OVERALL EVALUATION,2013-10-22,WEEK 8,8,56,24,24,24,Visual Acuity Score,VACSCORE,,RIGHT,EYE,55,ETDRS EYE CHART,,,,PRE-DOSE,-0.5,LEFT,Fellow Eye,
314,CDISCPILOT01,01-701-1302,OE,Xanomeline High Dose,Xanomeline High Dose,2013-08-29,2013-11-05,2013-08-29,1,Baseline,3,PRE-DOSE,-0.5,Fellow Eye Visual Acuity Score (letters),FBCVA,51,51,letters,20/100,100,51,51,LAST,0,0,0 <= CHG <= 5,Y,-5 <= CHG <= -1,N,10 <= CHG <= 15,N,CHG <= -20,N,CHG <= 5,Y,CHG <= 10,Y,CHG >= -15,Y,CHG >= 15,N,,Y,Y,Y,,16,BEST CORRECTED VISUAL ACUITY,OVERALL EVALUATION,2013-08-29,BASELINE,3,1,51,51,51,Visual Acuity Score,VACSCORE,,RIGHT,EYE,1,ETDRS EYE CHART,,,,PRE-DOSE,-0.5,LEFT,Fellow Eye,
315,CDISCPILOT01,01-701-1302,OE,Xanomeline High Dose,Xanomeline High Dose,2013-08-29,2013-11-05,2013-09-24,27,Week 4,5,PRE-DOSE,-0.5,Fellow Eye Visual Acuity Score (letters),FBCVA,67,67,letters,20/50,50,51,51,LAST,16,31.372549019607842,0 <= CHG <= 5,N,-5 <= CHG <= -1,N,10 <= CHG <= 15,N,CHG <= -20,N,CHG <= 5,N,CHG <= 10,N,CHG >= -15,Y,CHG >= 15,Y,,,Y,,Y,24,BEST CORRECTED VISUAL ACUITY,OVERALL EVALUATION,2013-09-24,WEEK 4,5,28,67,67,67,Visual Acuity Score,VACSCORE,,RIGHT,EYE,27,ETDRS EYE CHART,,,,PRE-DOSE,-0.5,LEFT,Fellow Eye,
316,CDISCPILOT01,01-701-1302,OE,Xanomeline High Dose,Xanomeline High Dose,2013-08-29,2013-11-05,2013-08-29,1,Baseline,3,PRE-DOSE,-0.5,Study Eye Visual Acuity Score (letters),SBCVA,61,61,letters,20/63,63,61,61,LAST,0,0,0 <= CHG <= 5,Y,-5 <= CHG <= -1,N,10 <= CHG <= 15,N,CHG <= -20,N,CHG <= 5,Y,CHG <= 10,Y,CHG >= -15,Y,CHG >= 15,N,,Y,Y,Y,,15,BEST CORRECTED VISUAL ACUITY,OVERALL EVALUATION,2013-08-29,BASELINE,3,1,61,61,61,Visual Acuity Score,VACSCORE,,LEFT,EYE,1,ETDRS EYE CHART,,,,PRE-DOSE,-0.5,LEFT,Study Eye,Y
317,CDISCPILOT01,01-701-1302,OE,Xanomeline High Dose,Xanomeline High Dose,2013-08-29,2013-11-05,2013-10-08,41,Week 6,7,PRE-DOSE,-0.5,Study Eye Visual Acuity Score (letters),SBCVA,66,66,letters,20/50,50,61,61,LAST,5,8.19672131147541,0 <= CHG <= 5,Y,-5 <= CHG <= -1,N,10 <= CHG <= 15,N,CHG <= -20,N,CHG <= 5,Y,CHG <= 10,Y,CHG >= -15,Y,CHG >= 15,N,,,Y,,Y,31,BEST CORRECTED VISUAL ACUITY,OVERALL EVALUATION,2013-10-08,WEEK 6,7,42,66,66,66,Visual Acuity Score,VACSCORE,,LEFT,EYE,41,ETDRS EYE CHART,,,,PRE-DOSE,-0.5,LEFT,Study Eye,
318,CDISCPILOT01,01-701-1302,OE,Xanomeline High Dose,Xanomeline High Dose,2013-08-29,2013-11-05,2013-11-05,69,Week 12,9,PRE-DOSE,-0.5,Study Eye Visual Acuity Score (letters),SBCVA,67,67,letters,20/50,50,61,61,LAST,6,9.836065573770492,0 <= CHG <= 5,N,-5 <= CHG <= -1,N,10 <= CHG <= 15,N,CHG <= -20,N,CHG <= 5,N,CHG <= 10,Y,CHG >= -15,Y,CHG >= 15,N,,,Y,Y,Y,47,BEST CORRECTED VISUAL ACUITY,OVERALL EVALUATION,2013-11-05,WEEK 12,9,84,67,67,67,Visual Acuity Score,VACSCORE,,LEFT,EYE,69,ETDRS EYE CHART,,,,PRE-DOSE,-0.5,LEFT,Study Eye,
319,CDISCPILOT01,01-701-1302,OE,Xanomeline High Dose,Xanomeline High Dose,2013-08-29,2013-11-05,2013-09-24,27,Week 4,5,PRE-DOSE,-0.5,Study Eye Visual Acuity Score (letters),SBCVA,86,86,letters,20/20,20,61,61,LAST,25,40.98360655737705,0 <= CHG <= 5,N,-5 <= CHG <= -1,N,10 <= CHG <= 15,N,CHG <= -20,N,CHG <= 5,N,CHG <= 10,N,CHG >= -15,Y,CHG >= 15,Y,,,Y,,Y,23,BEST CORRECTED VISUAL ACUITY,OVERALL EVALUATION,2013-09-24,WEEK 4,5,28,86,86,86,Visual Acuity Score,VACSCORE,,LEFT,EYE,27,ETDRS EYE CHART,,,,PRE-DOSE,-0.5,LEFT,Study Eye,
320,CDISCPILOT01,01-701-1302,OE,Xanomeline High Dose,Xanomeline High Dose,2013-08-29,2013-11-05,2013-10-22,55,Week 8,8,PRE-DOSE,-0.5,Study Eye Visual Acuity Score (letters),SBCVA,99,99,letters,> 20/12,1,61,61,LAST,38,62.295081967213115,0 <= CHG <= 5,N,-5 <= CHG <= -1,N,10 <= CHG <= 15,N,CHG <= -20,N,CHG <= 5,N,CHG <= 10,N,CHG >= -15,Y,CHG >= 15,Y,,,Y,,Y,39,BEST CORRECTED VISUAL ACUITY,OVERALL EVALUATION,2013-10-22,WEEK 8,8,56,99,99,99,Visual Acuity Score,VACSCORE,,LEFT,EYE,55,ETDRS EYE CHART,,,,PRE-DOSE,-0.5,LEFT,Study Eye,
321,CDISCPILOT01,01-701-1317,OE,Xanomeline Low Dose,Xanomeline Low Dose,2014-05-22,2014-11-20,2014-05-22,1,Baseline,3,PRE-DOSE,-0.5,Fellow Eye Visual Acuity Score (letters),FBCVA,1,1,letters,< 20/800,1000,1,1,LAST,0,0,0 <= CHG <= 5,Y,-5 <= CHG <= -1,N,10 <= CHG <= 15,N,CHG <= -20,N,CHG <= 5,Y,CHG <= 10,Y,CHG >= -15,Y,CHG >= 15,N,,Y,Y,Y,,15,BEST CORRECTED VISUAL ACUITY,OVERALL EVALUATION,2014-05-22,BASELINE,3,1,1,1,1,Visual Acuity Score,VACSCORE,,LEFT,EYE,1,ETDRS EYE CHART,,,,PRE-DOSE,-0.5,RIGHT,Fellow Eye,Y
322,CDISCPILOT01,01-701-1317,OE,Xanomeline Low Dose,Xanomeline Low Dose,2014-05-22,2014-11-20,2014-06-19,29,Week 4,5,PRE-DOSE,-0.5,Fellow Eye Visual Acuity Score (letters),FBCVA,6,6,letters,20/800,800,1,1,LAST,5,500,0 <= CHG <= 5,Y,-5 <= CHG <= -1,N,10 <= CHG <= 15,N,CHG <= -20,N,CHG <= 5,Y,CHG <= 10,Y,CHG >= -15,Y,CHG >= 15,N,,,Y,,Y,23,BEST CORRECTED VISUAL ACUITY,OVERALL EVALUATION,2014-06-19,WEEK 4,5,28,6,6,6,Visual Acuity Score,VACSCORE,,LEFT,EYE,29,ETDRS EYE CHART,,,,PRE-DOSE,-0.5,RIGHT,Fellow Eye,
323,CDISCPILOT01,01-701-1317,OE,Xanomeline Low Dose,Xanomeline Low Dose,2014-05-22,2014-11-20,2014-07-22,62,Week 8,8,PRE-DOSE,-0.5,Fellow Eye Visual Acuity Score (letters),FBCVA,40,40,letters,20/160,160,1,1,LAST,39,3900,0 <= CHG <= 5,N,-5 <= CHG <= -1,N,10 <= CHG <= 15,N,CHG <= -20,N,CHG <= 5,N,CHG <= 10,N,CHG >= -15,Y,CHG >= 15,Y,,,Y,,Y,39,BEST CORRECTED VISUAL ACUITY,OVERALL EVALUATION,2014-07-22,WEEK 8,8,56,40,40,40,Visual Acuity Score,VACSCORE,,LEFT,EYE,62,ETDRS EYE CHART,,,,PRE-DOSE,-0.5,RIGHT,Fellow Eye,
324,CDISCPILOT01,01-701-1317,OE,Xanomeline Low Dose,Xanomeline Low Dose,2014-05-22,2014-11-20,2014-10-09,141,Week 20,11,PRE-DOSE,-0.5,Fellow Eye Visual Acuity Score (letters),FBCVA,41,41,letters,20/160,160,1,1,LAST,40,4000,0 <= CHG <= 5,N,-5 <= CHG <= -1,N,10 <= CHG <= 15,N,CHG <= -20,N,CHG <= 5,N,CHG <= 10,N,CHG >= -15,Y,CHG >= 15,Y,,,Y,,Y,71,BEST CORRECTED VISUAL ACUITY,OVERALL EVALUATION,2014-10-09,WEEK 20,11,140,41,41,41,Visual Acuity Score,VACSCORE,,LEFT,EYE,141,ETDRS EYE CHART,,,,PRE-DOSE,-0.5,RIGHT,Fellow Eye,
325,CDISCPILOT01,01-701-1317,OE,Xanomeline Low Dose,Xanomeline Low Dose,2014-05-22,2014-11-20,2014-07-30,70,Week 10 (T),8,PRE-DOSE,-0.5,Fellow Eye Visual Acuity Score (letters),FBCVA,65,65,letters,20/50,50,1,1,LAST,64,6400,0 <= CHG <= 5,N,-5 <= CHG <= -1,N,10 <= CHG <= 15,N,CHG <= -20,N,CHG <= 5,N,CHG <= 10,N,CHG >= -15,Y,CHG >= 15,Y,,,Y,,Y,47,BEST CORRECTED VISUAL ACUITY,OVERALL EVALUATION,2014-07-30,WEEK 10 (T),8.1,70,65,65,65,Visual Acuity Score,VACSCORE,,LEFT,EYE,70,ETDRS EYE CHART,,,,PRE-DOSE,-0.5,RIGHT,Fellow Eye,
326,CDISCPILOT01,01-701-1317,OE,Xanomeline Low Dose,Xanomeline Low Dose,2014-05-22,2014-11-20,2014-08-15,86,Week 12,9,PRE-DOSE,-0.5,Fellow Eye Visual Acuity Score (letters),FBCVA,65,65,letters,20/50,50,1,1,LAST,64,6400,0 <= CHG <= 5,N,-5 <= CHG <= -1,N,10 <= CHG <= 15,N,CHG <= -20,N,CHG <= 5,N,CHG <= 10,N,CHG >= -15,Y,CHG >= 15,Y,,,Y,,Y,55,BEST CORRECTED VISUAL ACUITY,OVERALL EVALUATION,2014-08-15,WEEK 12,9,84,65,65,65,Visual Acuity Score,VACSCORE,,LEFT,EYE,86,ETDRS EYE CHART,,,,PRE-DOSE,-0.5,RIGHT,Fellow Eye,
327,CDISCPILOT01,01-701-1317,OE,Xanomeline Low Dose,Xanomeline Low Dose,2014-05-22,2014-11-20,2014-09-11,113,Week 16,10,PRE-DOSE,-0.5,Fellow Eye Visual Acuity Score (letters),FBCVA,71,71,letters,20/40,40,1,1,LAST,70,7000,0 <= CHG <= 5,N,-5 <= CHG <= -1,N,10 <= CHG <= 15,N,CHG <= -20,N,CHG <= 5,N,CHG <= 10,N,CHG >= -15,Y,CHG >= 15,Y,,,Y,,Y,63,BEST CORRECTED VISUAL ACUITY,OVERALL EVALUATION,2014-09-11,WEEK 16,10,112,71,71,71,Visual Acuity Score,VACSCORE,,LEFT,EYE,113,ETDRS EYE CHART,,,,PRE-DOSE,-0.5,RIGHT,Fellow Eye,
328,CDISCPILOT01,01-701-1317,OE,Xanomeline Low Dose,Xanomeline Low Dose,2014-05-22,2014-11-20,2014-07-03,43,Week 6,7,PRE-DOSE,-0.5,Fellow Eye Visual Acuity Score (letters),FBCVA,79,79,letters,20/25,25,1,1,LAST,78,7800,0 <= CHG <= 5,N,-5 <= CHG <= -1,N,10 <= CHG <= 15,N,CHG <= -20,N,CHG <= 5,N,CHG <= 10,N,CHG >= -15,Y,CHG >= 15,Y,,,Y,,Y,31,BEST CORRECTED VISUAL ACUITY,OVERALL EVALUATION,2014-07-03,WEEK 6,7,42,79,79,79,Visual Acuity Score,VACSCORE,,LEFT,EYE,43,ETDRS EYE CHART,,,,PRE-DOSE,-0.5,RIGHT,Fellow Eye,
329,CDISCPILOT01,01-701-1317,OE,Xanomeline Low Dose,Xanomeline Low Dose,2014-05-22,2014-11-20,2014-11-06,169,Week 24,12,PRE-DOSE,-0.5,Fellow Eye Visual Acuity Score (letters),FBCVA,88,88,letters,20/20,20,1,1,LAST,87,8700,0 <= CHG <= 5,N,-5 <= CHG <= -1,N,10 <= CHG <= 15,N,CHG <= -20,N,CHG <= 5,N,CHG <= 10,N,CHG >= -15,Y,CHG >= 15,Y,,,Y,Y,Y,79,BEST CORRECTED VISUAL ACUITY,OVERALL EVALUATION,2014-11-06,WEEK 24,12,168,88,88,88,Visual Acuity Score,VACSCORE,,LEFT,EYE,169,ETDRS EYE CHART,,,,PRE-DOSE,-0.5,RIGHT,Fellow Eye,
330,CDISCPILOT01,01-701-1317,OE,Xanomeline Low Dose,Xanomeline Low Dose,2014-05-22,2014-11-20,2014-07-03,43,Week 6,7,PRE-DOSE,-0.5,Study Eye Visual Acuity Score (letters),SBCVA,13,13,letters,20/640,640,83,83,LAST,-70,-84.33734939759037,0 <= CHG <= 5,N,-5 <= CHG <= -1,N,10 <= CHG <= 15,N,CHG <= -20,Y,CHG <= 5,Y,CHG <= 10,Y,CHG >= -15,N,CHG >= 15,N,,,Y,,Y,32,BEST CORRECTED VISUAL ACUITY,OVERALL EVALUATION,2014-07-03,WEEK 6,7,42,13,13,13,Visual Acuity Score,VACSCORE,,RIGHT,EYE,43,ETDRS EYE CHART,,,,PRE-DOSE,-0.5,RIGHT,Study Eye,Y
331,CDISCPILOT01,01-701-1317,OE,Xanomeline Low Dose,Xanomeline Low Dose,2014-05-22,2014-11-20,2014-07-30,70,Week 10 (T),8,PRE-DOSE,-0.5,Study Eye Visual Acuity Score (letters),SBCVA,13,13,letters,20/640,640,83,83,LAST,-70,-84.33734939759037,0 <= CHG <= 5,N,-5 <= CHG <= -1,N,10 <= CHG <= 15,N,CHG <= -20,Y,CHG <= 5,Y,CHG <= 10,Y,CHG >= -15,N,CHG >= 15,N,,,Y,,Y,48,BEST CORRECTED VISUAL ACUITY,OVERALL EVALUATION,2014-07-30,WEEK 10 (T),8.1,70,13,13,13,Visual Acuity Score,VACSCORE,,RIGHT,EYE,70,ETDRS EYE CHART,,,,PRE-DOSE,-0.5,RIGHT,Study Eye,
332,CDISCPILOT01,01-701-1317,OE,Xanomeline Low Dose,Xanomeline Low Dose,2014-05-22,2014-11-20,2014-07-22,62,Week 8,8,PRE-DOSE,-0.5,Study Eye Visual Acuity Score (letters),SBCVA,24,24,letters,20/320,320,83,83,LAST,-59,-71.08433734939759,0 <= CHG <= 5,N,-5 <= CHG <= -1,N,10 <= CHG <= 15,N,CHG <= -20,Y,CHG <= 5,Y,CHG <= 10,Y,CHG >= -15,N,CHG >= 15,N,,,Y,,Y,40,BEST CORRECTED VISUAL ACUITY,OVERALL EVALUATION,2014-07-22,WEEK 8,8,56,24,24,24,Visual Acuity Score,VACSCORE,,RIGHT,EYE,62,ETDRS EYE CHART,,,,PRE-DOSE,-0.5,RIGHT,Study Eye,
333,CDISCPILOT01,01-701-1317,OE,Xanomeline Low Dose,Xanomeline Low Dose,2014-05-22,2014-11-20,2014-11-06,169,Week 24,12,PRE-DOSE,-0.5,Study Eye Visual Acuity Score (letters),SBCVA,36,36,letters,20/200,200,83,83,LAST,-47,-56.62650602409639,0 <= CHG <= 5,N,-5 <= CHG <= -1,N,10 <= CHG <= 15,N,CHG <= -20,Y,CHG <= 5,Y,CHG <= 10,Y,CHG >= -15,N,CHG >= 15,N,,,Y,Y,Y,80,BEST CORRECTED VISUAL ACUITY,OVERALL EVALUATION,2014-11-06,WEEK 24,12,168,36,36,36,Visual Acuity Score,VACSCORE,,RIGHT,EYE,169,ETDRS EYE CHART,,,,PRE-DOSE,-0.5,RIGHT,Study Eye,
334,CDISCPILOT01,01-701-1317,OE,Xanomeline Low Dose,Xanomeline Low Dose,2014-05-22,2014-11-20,2014-09-11,113,Week 16,10,PRE-DOSE,-0.5,Study Eye Visual Acuity Score (letters),SBCVA,40,40,letters,20/160,160,83,83,LAST,-43,-51.80722891566265,0 <= CHG <= 5,N,-5 <= CHG <= -1,N,10 <= CHG <= 15,N,CHG <= -20,Y,CHG <= 5,Y,CHG <= 10,Y,CHG >= -15,N,CHG >= 15,N,,,Y,,Y,64,BEST CORRECTED VISUAL ACUITY,OVERALL EVALUATION,2014-09-11,WEEK 16,10,112,40,40,40,Visual Acuity Score,VACSCORE,,RIGHT,EYE,113,ETDRS EYE CHART,,,,PRE-DOSE,-0.5,RIGHT,Study Eye,
335,CDISCPILOT01,01-701-1317,OE,Xanomeline Low Dose,Xanomeline Low Dose,2014-05-22,2014-11-20,2014-08-15,86,Week 12,9,PRE-DOSE,-0.5,Study Eye Visual Acuity Score (letters),SBCVA,49,49,letters,20/100,100,83,83,LAST,-34,-40.963855421686745,0 <= CHG <= 5,N,-5 <= CHG <= -1,N,10 <= CHG <= 15,N,CHG <= -20,Y,CHG <= 5,Y,CHG <= 10,Y,CHG >= -15,N,CHG >= 15,N,,,Y,,Y,56,BEST CORRECTED VISUAL ACUITY,OVERALL EVALUATION,2014-08-15,WEEK 12,9,84,49,49,49,Visual Acuity Score,VACSCORE,,RIGHT,EYE,86,ETDRS EYE CHART,,,,PRE-DOSE,-0.5,RIGHT,Study Eye,
336,CDISCPILOT01,01-701-1317,OE,Xanomeline Low Dose,Xanomeline Low Dose,2014-05-22,2014-11-20,2014-06-19,29,Week 4,5,PRE-DOSE,-0.5,Study Eye Visual Acuity Score (letters),SBCVA,52,52,letters,20/100,100,83,83,LAST,-31,-37.34939759036144,0 <= CHG <= 5,N,-5 <= CHG <= -1,N,10 <= CHG <= 15,N,CHG <= -20,Y,CHG <= 5,Y,CHG <= 10,Y,CHG >= -15,N,CHG >= 15,N,,,Y,,Y,24,BEST CORRECTED VISUAL ACUITY,OVERALL EVALUATION,2014-06-19,WEEK 4,5,28,52,52,52,Visual Acuity Score,VACSCORE,,RIGHT,EYE,29,ETDRS EYE CHART,,,,PRE-DOSE,-0.5,RIGHT,Study Eye,
337,CDISCPILOT01,01-701-1317,OE,Xanomeline Low Dose,Xanomeline Low Dose,2014-05-22,2014-11-20,2014-10-09,141,Week 20,11,PRE-DOSE,-0.5,Study Eye Visual Acuity Score (letters),SBCVA,66,66,letters,20/50,50,83,83,LAST,-17,-20.481927710843372,0 <= CHG <= 5,N,-5 <= CHG <= -1,N,10 <= CHG <= 15,N,CHG <= -20,N,CHG <= 5,Y,CHG <= 10,Y,CHG >= -15,N,CHG >= 15,N,,,Y,,Y,72,BEST CORRECTED VISUAL ACUITY,OVERALL EVALUATION,2014-10-09,WEEK 20,11,140,66,66,66,Visual Acuity Score,VACSCORE,,RIGHT,EYE,141,ETDRS EYE CHART,,,,PRE-DOSE,-0.5,RIGHT,Study Eye,
338,CDISCPILOT01,01-701-1317,OE,Xanomeline Low Dose,Xanomeline Low Dose,2014-05-22,2014-11-20,2014-05-22,1,Baseline,3,PRE-DOSE,-0.5,Study Eye Visual Acuity Score (letters),SBCVA,83,83,letters,20/25,25,83,83,LAST,0,0,0 <= CHG <= 5,Y,-5 <= CHG <= -1,N,10 <= CHG <= 15,N,CHG <= -20,N,CHG <= 5,Y,CHG <= 10,Y,CHG >= -15,Y,CHG >= 15,N,,Y,Y,Y,,16,BEST CORRECTED VISUAL ACUITY,OVERALL EVALUATION,2014-05-22,BASELINE,3,1,83,83,83,Visual Acuity Score,VACSCORE,,RIGHT,EYE,1,ETDRS EYE CHART,,,,PRE-DOSE,-0.5,RIGHT,Study Eye,
339,CDISCPILOT01,01-701-1324,OE,Xanomeline Low Dose,Xanomeline Low Dose,2012-10-02,2013-04-02,2012-11-13,43,Week 6,7,PRE-DOSE,-0.5,Fellow Eye Visual Acuity Score (letters),FBCVA,6,6,letters,20/800,800,39,39,LAST,-33,-84.61538461538461,0 <= CHG <= 5,N,-5 <= CHG <= -1,N,10 <= CHG <= 15,N,CHG <= -20,Y,CHG <= 5,Y,CHG <= 10,Y,CHG >= -15,N,CHG >= 15,N,,,Y,,Y,32,BEST CORRECTED VISUAL ACUITY,OVERALL EVALUATION,2012-11-13,WEEK 6,7,42,6,6,6,Visual Acuity Score,VACSCORE,,RIGHT,EYE,43,ETDRS EYE CHART,,,,PRE-DOSE,-0.5,LEFT,Fellow Eye,Y
340,CDISCPILOT01,01-701-1324,OE,Xanomeline Low Dose,Xanomeline Low Dose,2012-10-02,2013-04-02,2012-11-25,55,Week 8,8,PRE-DOSE,-0.5,Fellow Eye Visual Acuity Score (letters),FBCVA,19,19,letters,20/400,400,39,39,LAST,-20,-51.28205128205128,0 <= CHG <= 5,N,-5 <= CHG <= -1,N,10 <= CHG <= 15,N,CHG <= -20,Y,CHG <= 5,Y,CHG <= 10,Y,CHG >= -15,N,CHG >= 15,N,,,Y,,Y,40,BEST CORRECTED VISUAL ACUITY,OVERALL EVALUATION,2012-11-25,WEEK 8,8,56,19,19,19,Visual Acuity Score,VACSCORE,,RIGHT,EYE,55,ETDRS EYE CHART,,,,PRE-DOSE,-0.5,LEFT,Fellow Eye,
341,CDISCPILOT01,01-701-1324,OE,Xanomeline Low Dose,Xanomeline Low Dose,2012-10-02,2013-04-02,2012-10-30,29,Week 4,5,PRE-DOSE,-0.5,Fellow Eye Visual Acuity Score (letters),FBCVA,24,24,letters,20/320,320,39,39,LAST,-15,-38.46153846153847,0 <= CHG <= 5,N,-5 <= CHG <= -1,N,10 <= CHG <= 15,N,CHG <= -20,N,CHG <= 5,Y,CHG <= 10,Y,CHG >= -15,Y,CHG >= 15,N,,,Y,,Y,24,BEST CORRECTED VISUAL ACUITY,OVERALL EVALUATION,2012-10-30,WEEK 4,5,28,24,24,24,Visual Acuity Score,VACSCORE,,RIGHT,EYE,29,ETDRS EYE CHART,,,,PRE-DOSE,-0.5,LEFT,Fellow Eye,
342,CDISCPILOT01,01-701-1324,OE,Xanomeline Low Dose,Xanomeline Low Dose,2012-10-02,2013-04-02,2013-02-19,141,Week 20,11,PRE-DOSE,-0.5,Fellow Eye Visual Acuity Score (letters),FBCVA,24,24,letters,20/320,320,39,39,LAST,-15,-38.46153846153847,0 <= CHG <= 5,N,-5 <= CHG <= -1,N,10 <= CHG <= 15,N,CHG <= -20,N,CHG <= 5,Y,CHG <= 10,Y,CHG >= -15,Y,CHG >= 15,N,,,Y,,Y,72,BEST CORRECTED VISUAL ACUITY,OVERALL EVALUATION,2013-02-19,WEEK 20,11,140,24,24,24,Visual Acuity Score,VACSCORE,,RIGHT,EYE,141,ETDRS EYE CHART,,,,PRE-DOSE,-0.5,LEFT,Fellow Eye,
343,CDISCPILOT01,01-701-1324,OE,Xanomeline Low Dose,Xanomeline Low Dose,2012-10-02,2013-04-02,2012-10-02,1,Baseline,3,PRE-DOSE,-0.5,Fellow Eye Visual Acuity Score (letters),FBCVA,39,39,letters,20/160,160,39,39,LAST,0,0,0 <= CHG <= 5,Y,-5 <= CHG <= -1,N,10 <= CHG <= 15,N,CHG <= -20,N,CHG <= 5,Y,CHG <= 10,Y,CHG >= -15,Y,CHG >= 15,N,,Y,Y,Y,,16,BEST CORRECTED VISUAL ACUITY,OVERALL EVALUATION,2012-10-02,BASELINE,3,1,39,39,39,Visual Acuity Score,VACSCORE,,RIGHT,EYE,1,ETDRS EYE CHART,,,,PRE-DOSE,-0.5,LEFT,Fellow Eye,
344,CDISCPILOT01,01-701-1324,OE,Xanomeline Low Dose,Xanomeline Low Dose,2012-10-02,2013-04-02,2012-12-25,85,Week 12,9,PRE-DOSE,-0.5,Fellow Eye Visual Acuity Score (letters),FBCVA,41,41,letters,20/160,160,39,39,LAST,2,5.128205128205128,0 <= CHG <= 5,Y,-5 <= CHG <= -1,N,10 <= CHG <= 15,N,CHG <= -20,N,CHG <= 5,Y,CHG <= 10,Y,CHG >= -15,Y,CHG >= 15,N,,,Y,,Y,56,BEST CORRECTED VISUAL ACUITY,OVERALL EVALUATION,2012-12-25,WEEK 12,9,84,41,41,41,Visual Acuity Score,VACSCORE,,RIGHT,EYE,85,ETDRS EYE CHART,,,,PRE-DOSE,-0.5,LEFT,Fellow Eye,
345,CDISCPILOT01,01-701-1324,OE,Xanomeline Low Dose,Xanomeline Low Dose,2012-10-02,2013-04-02,2013-03-19,169,Week 24,12,PRE-DOSE,-0.5,Fellow Eye Visual Acuity Score (letters),FBCVA,67,67,letters,20/50,50,39,39,LAST,28,71.7948717948718,0 <= CHG <= 5,N,-5 <= CHG <= -1,N,10 <= CHG <= 15,N,CHG <= -20,N,CHG <= 5,N,CHG <= 10,N,CHG >= -15,Y,CHG >= 15,Y,,,Y,Y,Y,80,BEST CORRECTED VISUAL ACUITY,OVERALL EVALUATION,2013-03-19,WEEK 24,12,168,67,67,67,Visual Acuity Score,VACSCORE,,RIGHT,EYE,169,ETDRS EYE CHART,,,,PRE-DOSE,-0.5,LEFT,Fellow Eye,
346,CDISCPILOT01,01-701-1324,OE,Xanomeline Low Dose,Xanomeline Low Dose,2012-10-02,2013-04-02,2012-12-11,71,Week 10 (T),8,PRE-DOSE,-0.5,Fellow Eye Visual Acuity Score (letters),FBCVA,71,71,letters,20/40,40,39,39,LAST,32,82.05128205128204,0 <= CHG <= 5,N,-5 <= CHG <= -1,N,10 <= CHG <= 15,N,CHG <= -20,N,CHG <= 5,N,CHG <= 10,N,CHG >= -15,Y,CHG >= 15,Y,,,Y,,Y,48,BEST CORRECTED VISUAL ACUITY,OVERALL EVALUATION,2012-12-11,WEEK 10 (T),8.1,70,71,71,71,Visual Acuity Score,VACSCORE,,RIGHT,EYE,71,ETDRS EYE CHART,,,,PRE-DOSE,-0.5,LEFT,Fellow Eye,
347,CDISCPILOT01,01-701-1324,OE,Xanomeline Low Dose,Xanomeline Low Dose,2012-10-02,2013-04-02,2013-01-22,113,Week 16,10,PRE-DOSE,-0.5,Fellow Eye Visual Acuity Score (letters),FBCVA,77,77,letters,20/32,32,39,39,LAST,38,97.43589743589743,0 <= CHG <= 5,N,-5 <= CHG <= -1,N,10 <= CHG <= 15,N,CHG <= -20,N,CHG <= 5,N,CHG <= 10,N,CHG >= -15,Y,CHG >= 15,Y,,,Y,,Y,64,BEST CORRECTED VISUAL ACUITY,OVERALL EVALUATION,2013-01-22,WEEK 16,10,112,77,77,77,Visual Acuity Score,VACSCORE,,RIGHT,EYE,113,ETDRS EYE CHART,,,,PRE-DOSE,-0.5,LEFT,Fellow Eye,
348,CDISCPILOT01,01-701-1324,OE,Xanomeline Low Dose,Xanomeline Low Dose,2012-10-02,2013-04-02,2012-12-11,71,Week 10 (T),8,PRE-DOSE,-0.5,Study Eye Visual Acuity Score (letters),SBCVA,9,9,letters,20/640,640,32,32,LAST,-23,-71.875,0 <= CHG <= 5,N,-5 <= CHG <= -1,N,10 <= CHG <= 15,N,CHG <= -20,Y,CHG <= 5,Y,CHG <= 10,Y,CHG >= -15,N,CHG >= 15,N,,,Y,,Y,47,BEST CORRECTED VISUAL ACUITY,OVERALL EVALUATION,2012-12-11,WEEK 10 (T),8.1,70,9,9,9,Visual Acuity Score,VACSCORE,,LEFT,EYE,71,ETDRS EYE CHART,,,,PRE-DOSE,-0.5,LEFT,Study Eye,Y
349,CDISCPILOT01,01-701-1324,OE,Xanomeline Low Dose,Xanomeline Low Dose,2012-10-02,2013-04-02,2012-12-25,85,Week 12,9,PRE-DOSE,-0.5,Study Eye Visual Acuity Score (letters),SBCVA,22,22,letters,20/400,400,32,32,LAST,-10,-31.25,0 <= CHG <= 5,N,-5 <= CHG <= -1,N,10 <= CHG <= 15,N,CHG <= -20,N,CHG <= 5,Y,CHG <= 10,Y,CHG >= -15,Y,CHG >= 15,N,,,Y,,Y,55,BEST CORRECTED VISUAL ACUITY,OVERALL EVALUATION,2012-12-25,WEEK 12,9,84,22,22,22,Visual Acuity Score,VACSCORE,,LEFT,EYE,85,ETDRS EYE CHART,,,,PRE-DOSE,-0.5,LEFT,Study Eye,
350,CDISCPILOT01,01-701-1324,OE,Xanomeline Low Dose,Xanomeline Low Dose,2012-10-02,2013-04-02,2013-03-19,169,Week 24,12,PRE-DOSE,-0.5,Study Eye Visual Acuity Score (letters),SBCVA,23,23,letters,20/400,400,32,32,LAST,-9,-28.125,0 <= CHG <= 5,N,-5 <= CHG <= -1,N,10 <= CHG <= 15,N,CHG <= -20,N,CHG <= 5,Y,CHG <= 10,Y,CHG >= -15,Y,CHG >= 15,N,,,Y,Y,Y,79,BEST CORRECTED VISUAL ACUITY,OVERALL EVALUATION,2013-03-19,WEEK 24,12,168,23,23,23,Visual Acuity Score,VACSCORE,,LEFT,EYE,169,ETDRS EYE CHART,,,,PRE-DOSE,-0.5,LEFT,Study Eye,
351,CDISCPILOT01,01-701-1324,OE,Xanomeline Low Dose,Xanomeline Low Dose,2012-10-02,2013-04-02,2013-02-19,141,Week 20,11,PRE-DOSE,-0.5,Study Eye Visual Acuity Score (letters),SBCVA,26,26,letters,20/320,320,32,32,LAST,-6,-18.75,0 <= CHG <= 5,N,-5 <= CHG <= -1,N,10 <= CHG <= 15,N,CHG <= -20,N,CHG <= 5,Y,CHG <= 10,Y,CHG >= -15,Y,CHG >= 15,N,,,Y,,Y,71,BEST CORRECTED VISUAL ACUITY,OVERALL EVALUATION,2013-02-19,WEEK 20,11,140,26,26,26,Visual Acuity Score,VACSCORE,,LEFT,EYE,141,ETDRS EYE CHART,,,,PRE-DOSE,-0.5,LEFT,Study Eye,
352,CDISCPILOT01,01-701-1324,OE,Xanomeline Low Dose,Xanomeline Low Dose,2012-10-02,2013-04-02,2012-10-02,1,Baseline,3,PRE-DOSE,-0.5,Study Eye Visual Acuity Score (letters),SBCVA,32,32,letters,20/250,250,32,32,LAST,0,0,0 <= CHG <= 5,Y,-5 <= CHG <= -1,N,10 <= CHG <= 15,N,CHG <= -20,N,CHG <= 5,Y,CHG <= 10,Y,CHG >= -15,Y,CHG >= 15,N,,Y,Y,Y,,15,BEST CORRECTED VISUAL ACUITY,OVERALL EVALUATION,2012-10-02,BASELINE,3,1,32,32,32,Visual Acuity Score,VACSCORE,,LEFT,EYE,1,ETDRS EYE CHART,,,,PRE-DOSE,-0.5,LEFT,Study Eye,
353,CDISCPILOT01,01-701-1324,OE,Xanomeline Low Dose,Xanomeline Low Dose,2012-10-02,2013-04-02,2012-10-30,29,Week 4,5,PRE-DOSE,-0.5,Study Eye Visual Acuity Score (letters),SBCVA,42,42,letters,20/160,160,32,32,LAST,10,31.25,0 <= CHG <= 5,N,-5 <= CHG <= -1,N,10 <= CHG <= 15,Y,CHG <= -20,N,CHG <= 5,N,CHG <= 10,Y,CHG >= -15,Y,CHG >= 15,N,,,Y,,Y,23,BEST CORRECTED VISUAL ACUITY,OVERALL EVALUATION,2012-10-30,WEEK 4,5,28,42,42,42,Visual Acuity Score,VACSCORE,,LEFT,EYE,29,ETDRS EYE CHART,,,,PRE-DOSE,-0.5,LEFT,Study Eye,
354,CDISCPILOT01,01-701-1324,OE,Xanomeline Low Dose,Xanomeline Low Dose,2012-10-02,2013-04-02,2012-11-25,55,Week 8,8,PRE-DOSE,-0.5,Study Eye Visual Acuity Score (letters),SBCVA,42,42,letters,20/160,160,32,32,LAST,10,31.25,0 <= CHG <= 5,N,-5 <= CHG <= -1,N,10 <= CHG <= 15,Y,CHG <= -20,N,CHG <= 5,N,CHG <= 10,Y,CHG >= -15,Y,CHG >= 15,N,,,Y,,Y,39,BEST CORRECTED VISUAL ACUITY,OVERALL EVALUATION,2012-11-25,WEEK 8,8,56,42,42,42,Visual Acuity Score,VACSCORE,,LEFT,EYE,55,ETDRS EYE CHART,,,,PRE-DOSE,-0.5,LEFT,Study Eye,
355,CDISCPILOT01,01-701-1324,OE,Xanomeline Low Dose,Xanomeline Low Dose,2012-10-02,2013-04-02,2013-01-22,113,Week 16,10,PRE-DOSE,-0.5,Study Eye Visual Acuity Score (letters),SBCVA,44,44,letters,20/125,125,32,32,LAST,12,37.5,0 <= CHG <= 5,N,-5 <= CHG <= -1,N,10 <= CHG <= 15,Y,CHG <= -20,N,CHG <= 5,N,CHG <= 10,N,CHG >= -15,Y,CHG >= 15,N,,,Y,,Y,63,BEST CORRECTED VISUAL ACUITY,OVERALL EVALUATION,2013-01-22,WEEK 16,10,112,44,44,44,Visual Acuity Score,VACSCORE,,LEFT,EYE,113,ETDRS EYE CHART,,,,PRE-DOSE,-0.5,LEFT,Study Eye,
356,CDISCPILOT01,01-701-1324,OE,Xanomeline Low Dose,Xanomeline Low Dose,2012-10-02,2013-04-02,2012-11-13,43,Week 6,7,PRE-DOSE,-0.5,Study Eye Visual Acuity Score (letters),SBCVA,45,45,letters,20/125,125,32,32,LAST,13,40.625,0 <= CHG <= 5,N,-5 <= CHG <= -1,N,10 <= CHG <= 15,Y,CHG <= -20,N,CHG <= 5,N,CHG <= 10,N,CHG >= -15,Y,CHG >= 15,N,,,Y,,Y,31,BEST CORRECTED VISUAL ACUITY,OVERALL EVALUATION,2012-11-13,WEEK 6,7,42,45,45,45,Visual Acuity Score,VACSCORE,,LEFT,EYE,43,ETDRS EYE CHART,,,,PRE-DOSE,-0.5,LEFT,Study Eye,
357,CDISCPILOT01,01-701-1341,OE,Xanomeline Low Dose,Xanomeline Low Dose,2013-01-05,2013-01-26,2013-01-05,1,Baseline,3,PRE-DOSE,-0.5,Fellow Eye Visual Acuity Score (letters),FBCVA,12,12,letters,20/640,640,12,12,LAST,0,0,0 <= CHG <= 5,Y,-5 <= CHG <= -1,N,10 <= CHG <= 15,N,CHG <= -20,N,CHG <= 5,Y,CHG <= 10,Y,CHG >= -15,Y,CHG >= 15,N,,Y,Y,Y,,15,BEST CORRECTED VISUAL ACUITY,OVERALL EVALUATION,2013-01-05,BASELINE,3,1,12,12,12,Visual Acuity Score,VACSCORE,,LEFT,EYE,1,ETDRS EYE CHART,,,,PRE-DOSE,-0.5,RIGHT,Fellow Eye,Y
358,CDISCPILOT01,01-701-1341,OE,Xanomeline Low Dose,Xanomeline Low Dose,2013-01-05,2013-01-26,2013-01-05,1,Baseline,3,PRE-DOSE,-0.5,Study Eye Visual Acuity Score (letters),SBCVA,42,42,letters,20/160,160,42,42,LAST,0,0,0 <= CHG <= 5,Y,-5 <= CHG <= -1,N,10 <= CHG <= 15,N,CHG <= -20,N,CHG <= 5,Y,CHG <= 10,Y,CHG >= -15,Y,CHG >= 15,N,,Y,Y,Y,,16,BEST CORRECTED VISUAL ACUITY,OVERALL EVALUATION,2013-01-05,BASELINE,3,1,42,42,42,Visual Acuity Score,VACSCORE,,RIGHT,EYE,1,ETDRS EYE CHART,,,,PRE-DOSE,-0.5,RIGHT,Study Eye,Y
359,CDISCPILOT01,01-701-1345,OE,Placebo,Placebo,2013-10-08,2014-03-18,2014-03-18,162,Week 24,12,PRE-DOSE,-0.5,Fellow Eye Visual Acuity Score (letters),FBCVA,11,11,letters,20/640,640,92,92,LAST,-81,-88.04347826086956,0 <= CHG <= 5,N,-5 <= CHG <= -1,N,10 <= CHG <= 15,N,CHG <= -20,Y,CHG <= 5,Y,CHG <= 10,Y,CHG >= -15,N,CHG >= 15,N,,,Y,Y,Y,79,BEST CORRECTED VISUAL ACUITY,OVERALL EVALUATION,2014-03-18,WEEK 24,12,168,11,11,11,Visual Acuity Score,VACSCORE,,LEFT,EYE,162,ETDRS EYE CHART,,,,PRE-DOSE,-0.5,RIGHT,Fellow Eye,Y
360,CDISCPILOT01,01-701-1345,OE,Placebo,Placebo,2013-10-08,2014-03-18,2013-12-03,57,Week 8,8,PRE-DOSE,-0.5,Fellow Eye Visual Acuity Score (letters),FBCVA,28,28,letters,20/320,320,92,92,LAST,-64,-69.56521739130434,0 <= CHG <= 5,N,-5 <= CHG <= -1,N,10 <= CHG <= 15,N,CHG <= -20,Y,CHG <= 5,Y,CHG <= 10,Y,CHG >= -15,N,CHG >= 15,N,,,Y,,Y,39,BEST CORRECTED VISUAL ACUITY,OVERALL EVALUATION,2013-12-03,WEEK 8,8,56,28,28,28,Visual Acuity Score,VACSCORE,,LEFT,EYE,57,ETDRS EYE CHART,,,,PRE-DOSE,-0.5,RIGHT,Fellow Eye,
361,CDISCPILOT01,01-701-1345,OE,Placebo,Placebo,2013-10-08,2014-03-18,2014-01-27,112,Week 16,10,PRE-DOSE,-0.5,Fellow Eye Visual Acuity Score (letters),FBCVA,36,36,letters,20/200,200,92,92,LAST,-56,-60.86956521739131,0 <= CHG <= 5,N,-5 <= CHG <= -1,N,10 <= CHG <= 15,N,CHG <= -20,Y,CHG <= 5,Y,CHG <= 10,Y,CHG >= -15,N,CHG >= 15,N,,,Y,,Y,63,BEST CORRECTED VISUAL ACUITY,OVERALL EVALUATION,2014-01-27,WEEK 16,10,112,36,36,36,Visual Acuity Score,VACSCORE,,LEFT,EYE,112,ETDRS EYE CHART,,,,PRE-DOSE,-0.5,RIGHT,Fellow Eye,
362,CDISCPILOT01,01-701-1345,OE,Placebo,Placebo,2013-10-08,2014-03-18,2013-12-18,72,Week 10 (T),8,PRE-DOSE,-0.5,Fellow Eye Visual Acuity Score (letters),FBCVA,37,37,letters,20/200,200,92,92,LAST,-55,-59.78260869565217,0 <= CHG <= 5,N,-5 <= CHG <= -1,N,10 <= CHG <= 15,N,CHG <= -20,Y,CHG <= 5,Y,CHG <= 10,Y,CHG >= -15,N,CHG >= 15,N,,,Y,,Y,47,BEST CORRECTED VISUAL ACUITY,OVERALL EVALUATION,2013-12-18,WEEK 10 (T),8.1,70,37,37,37,Visual Acuity Score,VACSCORE,,LEFT,EYE,72,ETDRS EYE CHART,,,,PRE-DOSE,-0.5,RIGHT,Fellow Eye,
363,CDISCPILOT01,01-701-1345,OE,Placebo,Placebo,2013-10-08,2014-03-18,2013-11-19,43,Week 6,7,PRE-DOSE,-0.5,Fellow Eye Visual Acuity Score (letters),FBCVA,52,52,letters,20/100,100,92,92,LAST,-40,-43.47826086956522,0 <= CHG <= 5,N,-5 <= CHG <= -1,N,10 <= CHG <= 15,N,CHG <= -20,Y,CHG <= 5,Y,CHG <= 10,Y,CHG >= -15,N,CHG >= 15,N,,,Y,,Y,31,BEST CORRECTED VISUAL ACUITY,OVERALL EVALUATION,2013-11-19,WEEK 6,7,42,52,52,52,Visual Acuity Score,VACSCORE,,LEFT,EYE,43,ETDRS EYE CHART,,,,PRE-DOSE,-0.5,RIGHT,Fellow Eye,
364,CDISCPILOT01,01-701-1345,OE,Placebo,Placebo,2013-10-08,2014-03-18,2013-12-31,85,Week 12,9,PRE-DOSE,-0.5,Fellow Eye Visual Acuity Score (letters),FBCVA,52,52,letters,20/100,100,92,92,LAST,-40,-43.47826086956522,0 <= CHG <= 5,N,-5 <= CHG <= -1,N,10 <= CHG <= 15,N,CHG <= -20,Y,CHG <= 5,Y,CHG <= 10,Y,CHG >= -15,N,CHG >= 15,N,,,Y,,Y,55,BEST CORRECTED VISUAL ACUITY,OVERALL EVALUATION,2013-12-31,WEEK 12,9,84,52,52,52,Visual Acuity Score,VACSCORE,,LEFT,EYE,85,ETDRS EYE CHART,,,,PRE-DOSE,-0.5,RIGHT,Fellow Eye,
365,CDISCPILOT01,01-701-1345,OE,Placebo,Placebo,2013-10-08,2014-03-18,2013-11-08,32,Week 4,5,PRE-DOSE,-0.5,Fellow Eye Visual Acuity Score (letters),FBCVA,75,75,letters,20/32,32,92,92,LAST,-17,-18.478260869565215,0 <= CHG <= 5,N,-5 <= CHG <= -1,N,10 <= CHG <= 15,N,CHG <= -20,N,CHG <= 5,Y,CHG <= 10,Y,CHG >= -15,N,CHG >= 15,N,,,Y,,Y,23,BEST CORRECTED VISUAL ACUITY,OVERALL EVALUATION,2013-11-08,WEEK 4,5,28,75,75,75,Visual Acuity Score,VACSCORE,,LEFT,EYE,32,ETDRS EYE CHART,,,,PRE-DOSE,-0.5,RIGHT,Fellow Eye,
366,CDISCPILOT01,01-701-1345,OE,Placebo,Placebo,2013-10-08,2014-03-18,2014-02-25,141,Week 20,11,PRE-DOSE,-0.5,Fellow Eye Visual Acuity Score (letters),FBCVA,91,91,letters,20/16,16,92,92,LAST,-1,-1.0869565217391304,0 <= CHG <= 5,N,-5 <= CHG <= -1,Y,10 <= CHG <= 15,N,CHG <= -20,N,CHG <= 5,Y,CHG <= 10,Y,CHG >= -15,Y,CHG >= 15,N,,,Y,,Y,71,BEST CORRECTED VISUAL ACUITY,OVERALL EVALUATION,2014-02-25,WEEK 20,11,140,91,91,91,Visual Acuity Score,VACSCORE,,LEFT,EYE,141,ETDRS EYE CHART,,,,PRE-DOSE,-0.5,RIGHT,Fellow Eye,
367,CDISCPILOT01,01-701-1345,OE,Placebo,Placebo,2013-10-08,2014-03-18,2013-10-08,1,Baseline,3,PRE-DOSE,-0.5,Fellow Eye Visual Acuity Score (letters),FBCVA,92,92,letters,20/16,16,92,92,LAST,0,0,0 <= CHG <= 5,Y,-5 <= CHG <= -1,N,10 <= CHG <= 15,N,CHG <= -20,N,CHG <= 5,Y,CHG <= 10,Y,CHG >= -15,Y,CHG >= 15,N,,Y,Y,Y,,15,BEST CORRECTED VISUAL ACUITY,OVERALL EVALUATION,2013-10-08,BASELINE,3,1,92,92,92,Visual Acuity Score,VACSCORE,,LEFT,EYE,1,ETDRS EYE CHART,,,,PRE-DOSE,-0.5,RIGHT,Fellow Eye,
368,CDISCPILOT01,01-701-1345,OE,Placebo,Placebo,2013-10-08,2014-03-18,2013-10-08,1,Baseline,3,PRE-DOSE,-0.5,Study Eye Visual Acuity Score (letters),SBCVA,4,4,letters,20/800,800,4,4,LAST,0,0,0 <= CHG <= 5,Y,-5 <= CHG <= -1,N,10 <= CHG <= 15,N,CHG <= -20,N,CHG <= 5,Y,CHG <= 10,Y,CHG >= -15,Y,CHG >= 15,N,,Y,Y,Y,,16,BEST CORRECTED VISUAL ACUITY,OVERALL EVALUATION,2013-10-08,BASELINE,3,1,4,4,4,Visual Acuity Score,VACSCORE,,RIGHT,EYE,1,ETDRS EYE CHART,,,,PRE-DOSE,-0.5,RIGHT,Study Eye,Y
369,CDISCPILOT01,01-701-1345,OE,Placebo,Placebo,2013-10-08,2014-03-18,2013-11-08,32,Week 4,5,PRE-DOSE,-0.5,Study Eye Visual Acuity Score (letters),SBCVA,12,12,letters,20/640,640,4,4,LAST,8,200,0 <= CHG <= 5,N,-5 <= CHG <= -1,N,10 <= CHG <= 15,N,CHG <= -20,N,CHG <= 5,N,CHG <= 10,Y,CHG >= -15,Y,CHG >= 15,N,,,Y,,Y,24,BEST CORRECTED VISUAL ACUITY,OVERALL EVALUATION,2013-11-08,WEEK 4,5,28,12,12,12,Visual Acuity Score,VACSCORE,,RIGHT,EYE,32,ETDRS EYE CHART,,,,PRE-DOSE,-0.5,RIGHT,Study Eye,
370,CDISCPILOT01,01-701-1345,OE,Placebo,Placebo,2013-10-08,2014-03-18,2014-02-25,141,Week 20,11,PRE-DOSE,-0.5,Study Eye Visual Acuity Score (letters),SBCVA,33,33,letters,20/250,250,4,4,LAST,29,725,0 <= CHG <= 5,N,-5 <= CHG <= -1,N,10 <= CHG <= 15,N,CHG <= -20,N,CHG <= 5,N,CHG <= 10,N,CHG >= -15,Y,CHG >= 15,Y,,,Y,,Y,72,BEST CORRECTED VISUAL ACUITY,OVERALL EVALUATION,2014-02-25,WEEK 20,11,140,33,33,33,Visual Acuity Score,VACSCORE,,RIGHT,EYE,141,ETDRS EYE CHART,,,,PRE-DOSE,-0.5,RIGHT,Study Eye,
371,CDISCPILOT01,01-701-1345,OE,Placebo,Placebo,2013-10-08,2014-03-18,2013-12-31,85,Week 12,9,PRE-DOSE,-0.5,Study Eye Visual Acuity Score (letters),SBCVA,43,43,letters,20/160,160,4,4,LAST,39,975,0 <= CHG <= 5,N,-5 <= CHG <= -1,N,10 <= CHG <= 15,N,CHG <= -20,N,CHG <= 5,N,CHG <= 10,N,CHG >= -15,Y,CHG >= 15,Y,,,Y,,Y,56,BEST CORRECTED VISUAL ACUITY,OVERALL EVALUATION,2013-12-31,WEEK 12,9,84,43,43,43,Visual Acuity Score,VACSCORE,,RIGHT,EYE,85,ETDRS EYE CHART,,,,PRE-DOSE,-0.5,RIGHT,Study Eye,
372,CDISCPILOT01,01-701-1345,OE,Placebo,Placebo,2013-10-08,2014-03-18,2013-12-18,72,Week 10 (T),8,PRE-DOSE,-0.5,Study Eye Visual Acuity Score (letters),SBCVA,52,52,letters,20/100,100,4,4,LAST,48,1200,0 <= CHG <= 5,N,-5 <= CHG <= -1,N,10 <= CHG <= 15,N,CHG <= -20,N,CHG <= 5,N,CHG <= 10,N,CHG >= -15,Y,CHG >= 15,Y,,,Y,,Y,48,BEST CORRECTED VISUAL ACUITY,OVERALL EVALUATION,2013-12-18,WEEK 10 (T),8.1,70,52,52,52,Visual Acuity Score,VACSCORE,,RIGHT,EYE,72,ETDRS EYE CHART,,,,PRE-DOSE,-0.5,RIGHT,Study Eye,
373,CDISCPILOT01,01-701-1345,OE,Placebo,Placebo,2013-10-08,2014-03-18,2013-12-03,57,Week 8,8,PRE-DOSE,-0.5,Study Eye Visual Acuity Score (letters),SBCVA,54,54,letters,20/80,80,4,4,LAST,50,1250,0 <= CHG <= 5,N,-5 <= CHG <= -1,N,10 <= CHG <= 15,N,CHG <= -20,N,CHG <= 5,N,CHG <= 10,N,CHG >= -15,Y,CHG >= 15,Y,,,Y,,Y,40,BEST CORRECTED VISUAL ACUITY,OVERALL EVALUATION,2013-12-03,WEEK 8,8,56,54,54,54,Visual Acuity Score,VACSCORE,,RIGHT,EYE,57,ETDRS EYE CHART,,,,PRE-DOSE,-0.5,RIGHT,Study Eye,
374,CDISCPILOT01,01-701-1345,OE,Placebo,Placebo,2013-10-08,2014-03-18,2014-03-18,162,Week 24,12,PRE-DOSE,-0.5,Study Eye Visual Acuity Score (letters),SBCVA,66,66,letters,20/50,50,4,4,LAST,62,1550,0 <= CHG <= 5,N,-5 <= CHG <= -1,N,10 <= CHG <= 15,N,CHG <= -20,N,CHG <= 5,N,CHG <= 10,N,CHG >= -15,Y,CHG >= 15,Y,,,Y,Y,Y,80,BEST CORRECTED VISUAL ACUITY,OVERALL EVALUATION,2014-03-18,WEEK 24,12,168,66,66,66,Visual Acuity Score,VACSCORE,,RIGHT,EYE,162,ETDRS EYE CHART,,,,PRE-DOSE,-0.5,RIGHT,Study Eye,
375,CDISCPILOT01,01-701-1345,OE,Placebo,Placebo,2013-10-08,2014-03-18,2014-01-27,112,Week 16,10,PRE-DOSE,-0.5,Study Eye Visual Acuity Score (letters),SBCVA,68,68,letters,20/50,50,4,4,LAST,64,1600,0 <= CHG <= 5,N,-5 <= CHG <= -1,N,10 <= CHG <= 15,N,CHG <= -20,N,CHG <= 5,N,CHG <= 10,N,CHG >= -15,Y,CHG >= 15,Y,,,Y,,Y,64,BEST CORRECTED VISUAL ACUITY,OVERALL EVALUATION,2014-01-27,WEEK 16,10,112,68,68,68,Visual Acuity Score,VACSCORE,,RIGHT,EYE,112,ETDRS EYE CHART,,,,PRE-DOSE,-0.5,RIGHT,Study Eye,
376,CDISCPILOT01,01-701-1345,OE,Placebo,Placebo,2013-10-08,2014-03-18,2013-11-19,43,Week 6,7,PRE-DOSE,-0.5,Study Eye Visual Acuity Score (letters),SBCVA,74,74,letters,20/32,32,4,4,LAST,70,1750,0 <= CHG <= 5,N,-5 <= CHG <= -1,N,10 <= CHG <= 15,N,CHG <= -20,N,CHG <= 5,N,CHG <= 10,N,CHG >= -15,Y,CHG >= 15,Y,,,Y,,Y,32,BEST CORRECTED VISUAL ACUITY,OVERALL EVALUATION,2013-11-19,WEEK 6,7,42,74,74,74,Visual Acuity Score,VACSCORE,,RIGHT,EYE,43,ETDRS EYE CHART,,,,PRE-DOSE,-0.5,RIGHT,Study Eye,
377,CDISCPILOT01,01-701-1360,OE,Xanomeline High Dose,Xanomeline Low Dose,2013-07-31,2013-08-05,2013-07-31,1,Baseline,3,PRE-DOSE,-0.5,Fellow Eye Visual Acuity Score (letters),FBCVA,11,11,letters,20/640,640,11,11,LAST,0,0,0 <= CHG <= 5,Y,-5 <= CHG <= -1,N,10 <= CHG <= 15,N,CHG <= -20,N,CHG <= 5,Y,CHG <= 10,Y,CHG >= -15,Y,CHG >= 15,N,,Y,Y,Y,,15,BEST CORRECTED VISUAL ACUITY,OVERALL EVALUATION,2013-07-31,BASELINE,3,1,11,11,11,Visual Acuity Score,VACSCORE,,LEFT,EYE,1,ETDRS EYE CHART,,,,PRE-DOSE,-0.5,RIGHT,Fellow Eye,Y
378,CDISCPILOT01,01-701-1360,OE,Xanomeline High Dose,Xanomeline Low Dose,2013-07-31,2013-08-05,2013-07-31,1,Baseline,3,PRE-DOSE,-0.5,Study Eye Visual Acuity Score (letters),SBCVA,76,76,letters,20/32,32,76,76,LAST,0,0,0 <= CHG <= 5,Y,-5 <= CHG <= -1,N,10 <= CHG <= 15,N,CHG <= -20,N,CHG <= 5,Y,CHG <= 10,Y,CHG >= -15,Y,CHG >= 15,N,,Y,Y,Y,,16,BEST CORRECTED VISUAL ACUITY,OVERALL EVALUATION,2013-07-31,BASELINE,3,1,76,76,76,Visual Acuity Score,VACSCORE,,RIGHT,EYE,1,ETDRS EYE CHART,,,,PRE-DOSE,-0.5,RIGHT,Study Eye,Y
379,CDISCPILOT01,01-701-1363,OE,Placebo,Placebo,2013-05-30,2013-11-27,2013-07-10,42,Week 6,7,PRE-DOSE,-0.5,Fellow Eye Visual Acuity Score (letters),FBCVA,7,7,letters,20/800,800,41,41,LAST,-34,-82.92682926829268,0 <= CHG <= 5,N,-5 <= CHG <= -1,N,10 <= CHG <= 15,N,CHG <= -20,Y,CHG <= 5,Y,CHG <= 10,Y,CHG >= -15,N,CHG >= 15,N,,,Y,,Y,32,BEST CORRECTED VISUAL ACUITY,OVERALL EVALUATION,2013-07-10,WEEK 6,7,42,7,7,7,Visual Acuity Score,VACSCORE,,RIGHT,EYE,42,ETDRS EYE CHART,,,,PRE-DOSE,-0.5,LEFT,Fellow Eye,Y
380,CDISCPILOT01,01-701-1363,OE,Placebo,Placebo,2013-05-30,2013-11-27,2013-07-24,56,Week 8,8,PRE-DOSE,-0.5,Fellow Eye Visual Acuity Score (letters),FBCVA,32,32,letters,20/250,250,41,41,LAST,-9,-21.951219512195124,0 <= CHG <= 5,N,-5 <= CHG <= -1,N,10 <= CHG <= 15,N,CHG <= -20,N,CHG <= 5,Y,CHG <= 10,Y,CHG >= -15,Y,CHG >= 15,N,,,Y,,Y,40,BEST CORRECTED VISUAL ACUITY,OVERALL EVALUATION,2013-07-24,WEEK 8,8,56,32,32,32,Visual Acuity Score,VACSCORE,,RIGHT,EYE,56,ETDRS EYE CHART,,,,PRE-DOSE,-0.5,LEFT,Fellow Eye,
381,CDISCPILOT01,01-701-1363,OE,Placebo,Placebo,2013-05-30,2013-11-27,2013-06-25,27,Week 4,5,PRE-DOSE,-0.5,Fellow Eye Visual Acuity Score (letters),FBCVA,37,37,letters,20/200,200,41,41,LAST,-4,-9.75609756097561,0 <= CHG <= 5,N,-5 <= CHG <= -1,Y,10 <= CHG <= 15,N,CHG <= -20,N,CHG <= 5,Y,CHG <= 10,Y,CHG >= -15,Y,CHG >= 15,N,,,Y,,Y,24,BEST CORRECTED VISUAL ACUITY,OVERALL EVALUATION,2013-06-25,WEEK 4,5,28,37,37,37,Visual Acuity Score,VACSCORE,,RIGHT,EYE,27,ETDRS EYE CHART,,,,PRE-DOSE,-0.5,LEFT,Fellow Eye,
382,CDISCPILOT01,01-701-1363,OE,Placebo,Placebo,2013-05-30,2013-11-27,2013-05-30,1,Baseline,3,PRE-DOSE,-0.5,Fellow Eye Visual Acuity Score (letters),FBCVA,41,41,letters,20/160,160,41,41,LAST,0,0,0 <= CHG <= 5,Y,-5 <= CHG <= -1,N,10 <= CHG <= 15,N,CHG <= -20,N,CHG <= 5,Y,CHG <= 10,Y,CHG >= -15,Y,CHG >= 15,N,,Y,Y,Y,,16,BEST CORRECTED VISUAL ACUITY,OVERALL EVALUATION,2013-05-30,BASELINE,3,1,41,41,41,Visual Acuity Score,VACSCORE,,RIGHT,EYE,1,ETDRS EYE CHART,,,,PRE-DOSE,-0.5,LEFT,Fellow Eye,
383,CDISCPILOT01,01-701-1363,OE,Placebo,Placebo,2013-05-30,2013-11-27,2013-11-13,168,Week 24,12,PRE-DOSE,-0.5,Fellow Eye Visual Acuity Score (letters),FBCVA,65,65,letters,20/50,50,41,41,LAST,24,58.536585365853654,0 <= CHG <= 5,N,-5 <= CHG <= -1,N,10 <= CHG <= 15,N,CHG <= -20,N,CHG <= 5,N,CHG <= 10,N,CHG >= -15,Y,CHG >= 15,Y,,,Y,Y,Y,80,BEST CORRECTED VISUAL ACUITY,OVERALL EVALUATION,2013-11-13,WEEK 24,12,168,65,65,65,Visual Acuity Score,VACSCORE,,RIGHT,EYE,168,ETDRS EYE CHART,,,,PRE-DOSE,-0.5,LEFT,Fellow Eye,
