rownames,STUDYID,USUBJID,SUBJID,SITEID,COUNTRY,DOMAIN,ASEQ,AGE,AGEU,SEX,RACE,ETHNIC,TRT01P,TRT01A,TRTSDT,TRTEDT,APERSDT,APEREDT,APERSTDY,CESEQ,CETERM,CEDECOD,CECAT,CESCAT,CESTDTC,ASTDT,CEENDTC,AENDT,ASTDY,AENDY,ADURN,ADURU,CEDUR,APERIOD,CEOCCUR,CEPRESP,AOCC01FL,ASEV,ASEVN,AREL,CELNKID,CELNKGRP,CELAT,CELOC,CESEV,CEREL,CEOUT,EPOCH,CEDTC,CETPT,CETPTNUM,CETPTREF,CERFTDTC,CEEVINTX,CESTAT,CEREASND
1,ABC,ABC-1001,1001,1001,USA,CE,1,74,YEARS,F,WHITE,NOT HISPANIC OR LATINO,VACCINE A,VACCINE A,2021-11-03,2021-12-30,2021-11-03,2021-12-29,2,9,NEW OR WORSENED JOINT PAIN,Arthralgia,REACTOGENICITY,SYSTEMIC,2021-11-04,2021-11-04,2021-11-04,2021-11-04,2,2,1,days,P1D,1,Y,Y,,MILD,1,RELATED,VACCINATION 1-NEW OR WORSENED JOINT PAIN,VACCINATION 1 - NEW OR WORSENED JOINT PAIN,,,MILD,RELATED,RECOVERED/RESOLVED,VACCINATION 1,2021-11-06,DAY 7,7,VACCINATION 1,2021-11-03T10:50:00,SINCE VACCINATION,,
2,ABC,ABC-1001,1001,1001,USA,CE,2,74,YEARS,F,WHITE,NOT HISPANIC OR LATINO,VACCINE A,VACCINE A,2021-11-03,2021-12-30,,,,20,NEW OR WORSENED JOINT PAIN,Arthralgia,REACTOGENICITY,SYSTEMIC,,,,,,,,,,,,Y,,,,,VACCINATION 2-NEW OR WORSENED JOINT PAIN,VACCINATION 2 - NEW OR WORSENED JOINT PAIN,,,,,,,,DAY 7,7,VACCINATION 2,2021-12-30T09:10:00,SINCE VACCINATION,NOT DONE,SUBJECT DID NOT COMPLETE ELECTRONIC DIARY
3,ABC,ABC-1001,1001,1001,USA,CE,3,74,YEARS,F,WHITE,NOT HISPANIC OR LATINO,VACCINE A,VACCINE A,2021-11-03,2021-12-30,,,,1,CHILLS,Chills,REACTOGENICITY,SYSTEMIC,,,,,,,,,,,N,Y,,,,,VACCINATION 1-CHILLS,VACCINATION 1 - CHILLS,,,,,,,,DAY 7,7,VACCINATION 1,2021-11-03T10:50:00,SINCE VACCINATION,,
4,ABC,ABC-1001,1001,1001,USA,CE,4,74,YEARS,F,WHITE,NOT HISPANIC OR LATINO,VACCINE A,VACCINE A,2021-11-03,2021-12-30,,,,12,CHILLS,Chills,REACTOGENICITY,SYSTEMIC,,,,,,,,,,,,Y,,,,,VACCINATION 2-CHILLS,VACCINATION 2 - CHILLS,,,,,,,,DAY 7,7,VACCINATION 2,2021-12-30T09:10:00,SINCE VACCINATION,NOT DONE,SUBJECT DID NOT COMPLETE ELECTRONIC DIARY
5,ABC,ABC-1001,1001,1001,USA,CE,5,74,YEARS,F,WHITE,NOT HISPANIC OR LATINO,VACCINE A,VACCINE A,2021-11-03,2021-12-30,,,,5,DIARRHEA,Diarrhoea,REACTOGENICITY,SYSTEMIC,,,,,,,,,,,N,Y,,,,,VACCINATION 1-DIARRHEA,VACCINATION 1 - DIARRHEA,,,,,,,,DAY 7,7,VACCINATION 1,2021-11-03T10:50:00,SINCE VACCINATION,,
6,ABC,ABC-1001,1001,1001,USA,CE,6,74,YEARS,F,WHITE,NOT HISPANIC OR LATINO,VACCINE A,VACCINE A,2021-11-03,2021-12-30,,,,16,DIARRHEA,Diarrhoea,REACTOGENICITY,SYSTEMIC,,,,,,,,,,,,Y,,,,,VACCINATION 2-DIARRHEA,VACCINATION 2 - DIARRHEA,,,,,,,,DAY 7,7,VACCINATION 2,2021-12-30T09:10:00,SINCE VACCINATION,NOT DONE,SUBJECT DID NOT COMPLETE ELECTRONIC DIARY
7,ABC,ABC-1001,1001,1001,USA,CE,7,74,YEARS,F,WHITE,NOT HISPANIC OR LATINO,VACCINE A,VACCINE A,2021-11-03,2021-12-30,2021-11-03,2021-12-29,2,3,REDNESS,Erythema,REACTOGENICITY,ADMINISTRATION SITE,2021-11-04,2021-11-04,2021-11-04,2021-11-04,2,2,1,days,P1D,1,Y,Y,,MODERATE,2,RELATED,VACCINATION 1-DELTOID MUSCLE-LEFT-REDNESS,VACCINATION 1 - REDNESS,LEFT,DELTOID MUSCLE,MODERATE,RELATED,RECOVERED/RESOLVED,VACCINATION 1,2021-11-06,DAY 7,7,VACCINATION 1,2021-11-03T10:50:00,SINCE VACCINATION,,
8,ABC,ABC-1001,1001,1001,USA,CE,8,74,YEARS,F,WHITE,NOT HISPANIC OR LATINO,VACCINE A,VACCINE A,2021-11-03,2021-12-30,,,,14,REDNESS,Erythema,REACTOGENICITY,ADMINISTRATION SITE,,,,,,,,,,,,Y,,,,,VACCINATION 2-DELTOID MUSCLE-LEFT-REDNESS,VACCINATION 2 - REDNESS,LEFT,DELTOID MUSCLE,,,,,,DAY 7,7,VACCINATION 2,2021-12-30T09:10:00,SINCE VACCINATION,NOT DONE,SUBJECT DID NOT COMPLETE ELECTRONIC DIARY
9,ABC,ABC-1001,1001,1001,USA,CE,9,74,YEARS,F,WHITE,NOT HISPANIC OR LATINO,VACCINE A,VACCINE A,2021-11-03,2021-12-30,2021-11-03,2021-12-29,1,6,FATIGUE,Fatigue,REACTOGENICITY,SYSTEMIC,2021-11-03,2021-11-03,2021-11-04,2021-11-04,1,2,2,days,P2D,1,Y,Y,,MILD,1,RELATED,VACCINATION 1-FATIGUE,VACCINATION 1 - FATIGUE,,,MILD,RELATED,RECOVERED/RESOLVED,VACCINATION 1,2021-11-06,DAY 7,7,VACCINATION 1,2021-11-03T10:50:00,SINCE VACCINATION,,
10,ABC,ABC-1001,1001,1001,USA,CE,10,74,YEARS,F,WHITE,NOT HISPANIC OR LATINO,VACCINE A,VACCINE A,2021-11-03,2021-12-30,,,,17,FATIGUE,Fatigue,REACTOGENICITY,SYSTEMIC,,,,,,,,,,,,Y,,,,,VACCINATION 2-FATIGUE,VACCINATION 2 - FATIGUE,,,,,,,,DAY 7,7,VACCINATION 2,2021-12-30T09:10:00,SINCE VACCINATION,NOT DONE,SUBJECT DID NOT COMPLETE ELECTRONIC DIARY
11,ABC,ABC-1001,1001,1001,USA,CE,11,74,YEARS,F,WHITE,NOT HISPANIC OR LATINO,VACCINE A,VACCINE A,2021-11-03,2021-12-30,,,,8,HEADACHE,Headache,REACTOGENICITY,SYSTEMIC,,,,,,,,,,,N,Y,,,,,VACCINATION 1-HEADACHE,VACCINATION 1 - HEADACHE,,,,,,,,DAY 7,7,VACCINATION 1,2021-11-03T10:50:00,SINCE VACCINATION,,
12,ABC,ABC-1001,1001,1001,USA,CE,12,74,YEARS,F,WHITE,NOT HISPANIC OR LATINO,VACCINE A,VACCINE A,2021-11-03,2021-12-30,,,,19,HEADACHE,Headache,REACTOGENICITY,SYSTEMIC,,,,,,,,,,,,Y,,,,,VACCINATION 2-HEADACHE,VACCINATION 2 - HEADACHE,,,,,,,,DAY 7,7,VACCINATION 2,2021-12-30T09:10:00,SINCE VACCINATION,NOT DONE,SUBJECT DID NOT COMPLETE ELECTRONIC DIARY
13,ABC,ABC-1001,1001,1001,USA,CE,13,74,YEARS,F,WHITE,NOT HISPANIC OR LATINO,VACCINE A,VACCINE A,2021-11-03,2021-12-30,2021-11-03,2021-12-29,2,2,PAIN AT INJECTION SITE,Injection site pain,REACTOGENICITY,ADMINISTRATION SITE,2021-11-04,2021-11-04,2021-11-07,2021-11-07,2,5,4,days,P4D,1,Y,Y,,MODERATE,2,RELATED,VACCINATION 1-DELTOID MUSCLE-LEFT-PAIN AT INJECTION SITE,VACCINATION 1 - PAIN AT INJECTION SITE,LEFT,DELTOID MUSCLE,MODERATE,RELATED,RECOVERED/RESOLVED,VACCINATION 1,2021-11-09,DAY 7,7,VACCINATION 1,2021-11-03T10:50:00,SINCE VACCINATION,,
14,ABC,ABC-1001,1001,1001,USA,CE,14,74,YEARS,F,WHITE,NOT HISPANIC OR LATINO,VACCINE A,VACCINE A,2021-11-03,2021-12-30,,,,13,PAIN AT INJECTION SITE,Injection site pain,REACTOGENICITY,ADMINISTRATION SITE,,,,,,,,,,,,Y,,,,,VACCINATION 2-DELTOID MUSCLE-LEFT-PAIN AT INJECTION SITE,VACCINATION 2 - PAIN AT INJECTION SITE,LEFT,DELTOID MUSCLE,,,,,,DAY 7,7,VACCINATION 2,2021-12-30T09:10:00,SINCE VACCINATION,NOT DONE,SUBJECT DID NOT COMPLETE ELECTRONIC DIARY
15,ABC,ABC-1001,1001,1001,USA,CE,15,74,YEARS,F,WHITE,NOT HISPANIC OR LATINO,VACCINE A,VACCINE A,2021-11-03,2021-12-30,2021-11-03,2021-12-29,2,10,NEW OR WORSENED MUSCLE PAIN,Myalgia,REACTOGENICITY,SYSTEMIC,2021-11-04,2021-11-04,2021-11-04,2021-11-04,2,2,1,days,P1D,1,Y,Y,,MILD,1,RELATED,VACCINATION 1-NEW OR WORSENED MUSCLE PAIN,VACCINATION 1 - NEW OR WORSENED MUSCLE PAIN,,,MILD,RELATED,RECOVERED/RESOLVED,VACCINATION 1,2021-11-06,DAY 7,7,VACCINATION 1,2021-11-03T10:50:00,SINCE VACCINATION,,
16,ABC,ABC-1001,1001,1001,USA,CE,16,74,YEARS,F,WHITE,NOT HISPANIC OR LATINO,VACCINE A,VACCINE A,2021-11-03,2021-12-30,,,,21,NEW OR WORSENED MUSCLE PAIN,Myalgia,REACTOGENICITY,SYSTEMIC,,,,,,,,,,,,Y,,,,,VACCINATION 2-NEW OR WORSENED MUSCLE PAIN,VACCINATION 2 - NEW OR WORSENED MUSCLE PAIN,,,,,,,,DAY 7,7,VACCINATION 2,2021-12-30T09:10:00,SINCE VACCINATION,NOT DONE,SUBJECT DID NOT COMPLETE ELECTRONIC DIARY
17,ABC,ABC-1001,1001,1001,USA,CE,17,74,YEARS,F,WHITE,NOT HISPANIC OR LATINO,VACCINE A,VACCINE A,2021-11-03,2021-12-30,,,,7,FEVER,Pyrexia,REACTOGENICITY,SYSTEMIC,,,,,,,,,,,N,Y,,,,,VACCINATION 1-FEVER,VACCINATION 1 - FEVER,,,,,,,,DAY 7,7,VACCINATION 1,2021-11-03T10:50:00,SINCE VACCINATION,,
18,ABC,ABC-1001,1001,1001,USA,CE,18,74,YEARS,F,WHITE,NOT HISPANIC OR LATINO,VACCINE A,VACCINE A,2021-11-03,2021-12-30,,,,18,FEVER,Pyrexia,REACTOGENICITY,SYSTEMIC,,,,,,,,,,,,Y,,,,,VACCINATION 2-FEVER,VACCINATION 2 - FEVER,,,,,,,,DAY 7,7,VACCINATION 2,2021-12-30T09:10:00,SINCE VACCINATION,NOT DONE,SUBJECT DID NOT COMPLETE ELECTRONIC DIARY
19,ABC,ABC-1001,1001,1001,USA,CE,19,74,YEARS,F,WHITE,NOT HISPANIC OR LATINO,VACCINE A,VACCINE A,2021-11-03,2021-12-30,2021-11-03,2021-12-29,1,4,SWELLING,Swelling,REACTOGENICITY,ADMINISTRATION SITE,2021-11-03,2021-11-03,2021-11-09,2021-11-09,1,7,7,days,P7D,1,Y,Y,Y,MODERATE,2,RELATED,VACCINATION 1-DELTOID MUSCLE-LEFT-SWELLING,VACCINATION 1 - SWELLING,LEFT,DELTOID MUSCLE,MODERATE,RELATED,RECOVERED/RESOLVED,VACCINATION 1,2021-11-11,DAY 7,7,VACCINATION 1,2021-11-03T10:50:00,SINCE VACCINATION,,
20,ABC,ABC-1001,1001,1001,USA,CE,20,74,YEARS,F,WHITE,NOT HISPANIC OR LATINO,VACCINE A,VACCINE A,2021-11-03,2021-12-30,,,,15,SWELLING,Swelling,REACTOGENICITY,ADMINISTRATION SITE,,,,,,,,,,,,Y,,,,,VACCINATION 2-DELTOID MUSCLE-LEFT-SWELLING,VACCINATION 2 - SWELLING,LEFT,DELTOID MUSCLE,,,,,,DAY 7,7,VACCINATION 2,2021-12-30T09:10:00,SINCE VACCINATION,NOT DONE,SUBJECT DID NOT COMPLETE ELECTRONIC DIARY
21,ABC,ABC-1001,1001,1001,USA,CE,21,74,YEARS,F,WHITE,NOT HISPANIC OR LATINO,VACCINE A,VACCINE A,2021-11-03,2021-12-30,,,,11,VOMITING,Vomiting,REACTOGENICITY,SYSTEMIC,,,,,,,,,,,N,Y,,,,,VACCINATION 1-VOMITING,VACCINATION 1 - VOMITING,,,,,,,,DAY 7,7,VACCINATION 1,2021-11-03T10:50:00,SINCE VACCINATION,,
22,ABC,ABC-1001,1001,1001,USA,CE,22,74,YEARS,F,WHITE,NOT HISPANIC OR LATINO,VACCINE A,VACCINE A,2021-11-03,2021-12-30,,,,22,VOMITING,Vomiting,REACTOGENICITY,SYSTEMIC,,,,,,,,,,,,Y,,,,,VACCINATION 2-VOMITING,VACCINATION 2 - VOMITING,,,,,,,,DAY 7,7,VACCINATION 2,2021-12-30T09:10:00,SINCE VACCINATION,NOT DONE,SUBJECT DID NOT COMPLETE ELECTRONIC DIARY
23,ABC,ABC-1002,1002,1002,USA,CE,1,70,YEARS,F,BLACK OR AFRICAN AMERICAN,HISPANIC OR LATINO,VACCINE A,VACCINE A,2021-10-07,2021-12-16,,,,9,NEW OR WORSENED JOINT PAIN,Arthralgia,REACTOGENICITY,SYSTEMIC,,,,,,,,,,,N,Y,,,,,VACCINATION 1-NEW OR WORSENED JOINT PAIN,VACCINATION 1 - NEW OR WORSENED JOINT PAIN,,,,,,,,DAY 7,7,VACCINATION 1,2021-10-07T12:48:00,SINCE VACCINATION,,
24,ABC,ABC-1002,1002,1002,USA,CE,2,70,YEARS,F,BLACK OR AFRICAN AMERICAN,HISPANIC OR LATINO,VACCINE A,VACCINE A,2021-10-07,2021-12-16,,,,20,NEW OR WORSENED JOINT PAIN,Arthralgia,REACTOGENICITY,SYSTEMIC,,,,,,,,,,,N,Y,,,,,VACCINATION 2-NEW OR WORSENED JOINT PAIN,VACCINATION 2 - NEW OR WORSENED JOINT PAIN,,,,,,,,DAY 7,7,VACCINATION 2,2021-12-16T12:41:00,SINCE VACCINATION,,
25,ABC,ABC-1002,1002,1002,USA,CE,3,70,YEARS,F,BLACK OR AFRICAN AMERICAN,HISPANIC OR LATINO,VACCINE A,VACCINE A,2021-10-07,2021-12-16,,,,1,CHILLS,Chills,REACTOGENICITY,SYSTEMIC,,,,,,,,,,,N,Y,,,,,VACCINATION 1-CHILLS,VACCINATION 1 - CHILLS,,,,,,,,DAY 7,7,VACCINATION 1,2021-10-07T12:48:00,SINCE VACCINATION,,
26,ABC,ABC-1002,1002,1002,USA,CE,4,70,YEARS,F,BLACK OR AFRICAN AMERICAN,HISPANIC OR LATINO,VACCINE A,VACCINE A,2021-10-07,2021-12-16,,,,12,CHILLS,Chills,REACTOGENICITY,SYSTEMIC,,,,,,,,,,,N,Y,,,,,VACCINATION 2-CHILLS,VACCINATION 2 - CHILLS,,,,,,,,DAY 7,7,VACCINATION 2,2021-12-16T12:41:00,SINCE VACCINATION,,
27,ABC,ABC-1002,1002,1002,USA,CE,5,70,YEARS,F,BLACK OR AFRICAN AMERICAN,HISPANIC OR LATINO,VACCINE A,VACCINE A,2021-10-07,2021-12-16,,,,5,DIARRHEA,Diarrhoea,REACTOGENICITY,SYSTEMIC,,,,,,,,,,,N,Y,,,,,VACCINATION 1-DIARRHEA,VACCINATION 1 - DIARRHEA,,,,,,,,DAY 7,7,VACCINATION 1,2021-10-07T12:48:00,SINCE VACCINATION,,
28,ABC,ABC-1002,1002,1002,USA,CE,6,70,YEARS,F,BLACK OR AFRICAN AMERICAN,HISPANIC OR LATINO,VACCINE A,VACCINE A,2021-10-07,2021-12-16,,,,16,DIARRHEA,Diarrhoea,REACTOGENICITY,SYSTEMIC,,,,,,,,,,,N,Y,,,,,VACCINATION 2-DIARRHEA,VACCINATION 2 - DIARRHEA,,,,,,,,DAY 7,7,VACCINATION 2,2021-12-16T12:41:00,SINCE VACCINATION,,
29,ABC,ABC-1002,1002,1002,USA,CE,7,70,YEARS,F,BLACK OR AFRICAN AMERICAN,HISPANIC OR LATINO,VACCINE A,VACCINE A,2021-10-07,2021-12-16,2021-10-07,2021-12-15,3,3,REDNESS,Erythema,REACTOGENICITY,ADMINISTRATION SITE,2021-10-09,2021-10-09,2021-10-09,2021-10-09,3,3,1,days,P1D,1,Y,Y,,MILD,1,RELATED,VACCINATION 1-DELTOID MUSCLE-LEFT-REDNESS,VACCINATION 1 - REDNESS,LEFT,DELTOID MUSCLE,MILD,RELATED,RECOVERED/RESOLVED,VACCINATION 1,2021-10-11,DAY 7,7,VACCINATION 1,2021-10-07T12:48:00,SINCE VACCINATION,,
30,ABC,ABC-1002,1002,1002,USA,CE,8,70,YEARS,F,BLACK OR AFRICAN AMERICAN,HISPANIC OR LATINO,VACCINE A,VACCINE A,2021-10-07,2021-12-16,2021-12-16,2022-06-14,2,14,REDNESS,Erythema,REACTOGENICITY,ADMINISTRATION SITE,2021-12-17,2021-12-17,2021-12-21,2021-12-21,72,76,5,days,P5D,2,Y,Y,,MILD,1,RELATED,VACCINATION 2-DELTOID MUSCLE-LEFT-REDNESS,VACCINATION 2 - REDNESS,LEFT,DELTOID MUSCLE,MILD,RELATED,RECOVERED/RESOLVED,VACCINATION 2,2021-12-23,DAY 7,7,VACCINATION 2,2021-12-16T12:41:00,SINCE VACCINATION,,
31,ABC,ABC-1002,1002,1002,USA,CE,9,70,YEARS,F,BLACK OR AFRICAN AMERICAN,HISPANIC OR LATINO,VACCINE A,VACCINE A,2021-10-07,2021-12-16,,,,6,FATIGUE,Fatigue,REACTOGENICITY,SYSTEMIC,,,,,,,,,,,N,Y,,,,,VACCINATION 1-FATIGUE,VACCINATION 1 - FATIGUE,,,,,,,,DAY 7,7,VACCINATION 1,2021-10-07T12:48:00,SINCE VACCINATION,,
32,ABC,ABC-1002,1002,1002,USA,CE,10,70,YEARS,F,BLACK OR AFRICAN AMERICAN,HISPANIC OR LATINO,VACCINE A,VACCINE A,2021-10-07,2021-12-16,,,,17,FATIGUE,Fatigue,REACTOGENICITY,SYSTEMIC,,,,,,,,,,,N,Y,,,,,VACCINATION 2-FATIGUE,VACCINATION 2 - FATIGUE,,,,,,,,DAY 7,7,VACCINATION 2,2021-12-16T12:41:00,SINCE VACCINATION,,
33,ABC,ABC-1002,1002,1002,USA,CE,11,70,YEARS,F,BLACK OR AFRICAN AMERICAN,HISPANIC OR LATINO,VACCINE A,VACCINE A,2021-10-07,2021-12-16,2021-10-07,2021-12-15,5,8,HEADACHE,Headache,REACTOGENICITY,SYSTEMIC,2021-10-11,2021-10-11,2021-10-11,2021-10-11,5,5,1,days,P1D,1,Y,Y,Y,MODERATE,2,RELATED,VACCINATION 1-HEADACHE,VACCINATION 1 - HEADACHE,,,MODERATE,RELATED,RECOVERED/RESOLVED,VACCINATION 1,2021-10-13,DAY 7,7,VACCINATION 1,2021-10-07T12:48:00,SINCE VACCINATION,,
34,ABC,ABC-1002,1002,1002,USA,CE,12,70,YEARS,F,BLACK OR AFRICAN AMERICAN,HISPANIC OR LATINO,VACCINE A,VACCINE A,2021-10-07,2021-12-16,2021-12-16,2022-06-14,6,19,HEADACHE,Headache,REACTOGENICITY,SYSTEMIC,2021-12-21,2021-12-21,2021-12-21,2021-12-21,76,76,1,days,P1D,2,Y,Y,,MILD,1,RELATED,VACCINATION 2-HEADACHE,VACCINATION 2 - HEADACHE,,,MILD,RELATED,RECOVERED/RESOLVED,VACCINATION 2,2021-12-23,DAY 7,7,VACCINATION 2,2021-12-16T12:41:00,SINCE VACCINATION,,
35,ABC,ABC-1002,1002,1002,USA,CE,13,70,YEARS,F,BLACK OR AFRICAN AMERICAN,HISPANIC OR LATINO,VACCINE A,VACCINE A,2021-10-07,2021-12-16,,,,2,PAIN AT INJECTION SITE,Injection site pain,REACTOGENICITY,ADMINISTRATION SITE,,,,,,,,,,,N,Y,,,,,VACCINATION 1-DELTOID MUSCLE-LEFT-PAIN AT INJECTION SITE,VACCINATION 1 - PAIN AT INJECTION SITE,LEFT,DELTOID MUSCLE,,,,,,DAY 7,7,VACCINATION 1,2021-10-07T12:48:00,SINCE VACCINATION,,
36,ABC,ABC-1002,1002,1002,USA,CE,14,70,YEARS,F,BLACK OR AFRICAN AMERICAN,HISPANIC OR LATINO,VACCINE A,VACCINE A,2021-10-07,2021-12-16,2021-12-16,2022-06-14,1,13,PAIN AT INJECTION SITE,Injection site pain,REACTOGENICITY,ADMINISTRATION SITE,2021-12-16,2021-12-16,2021-12-19,2021-12-19,71,74,4,days,P4D,2,Y,Y,Y,MILD,1,RELATED,VACCINATION 2-DELTOID MUSCLE-LEFT-PAIN AT INJECTION SITE,VACCINATION 2 - PAIN AT INJECTION SITE,LEFT,DELTOID MUSCLE,MILD,RELATED,RECOVERED/RESOLVED,VACCINATION 2,2021-12-21,DAY 7,7,VACCINATION 2,2021-12-16T12:41:00,SINCE VACCINATION,,
37,ABC,ABC-1002,1002,1002,USA,CE,15,70,YEARS,F,BLACK OR AFRICAN AMERICAN,HISPANIC OR LATINO,VACCINE A,VACCINE A,2021-10-07,2021-12-16,,,,10,NEW OR WORSENED MUSCLE PAIN,Myalgia,REACTOGENICITY,SYSTEMIC,,,,,,,,,,,N,Y,,,,,VACCINATION 1-NEW OR WORSENED MUSCLE PAIN,VACCINATION 1 - NEW OR WORSENED MUSCLE PAIN,,,,,,,,DAY 7,7,VACCINATION 1,2021-10-07T12:48:00,SINCE VACCINATION,,
38,ABC,ABC-1002,1002,1002,USA,CE,16,70,YEARS,F,BLACK OR AFRICAN AMERICAN,HISPANIC OR LATINO,VACCINE A,VACCINE A,2021-10-07,2021-12-16,,,,21,NEW OR WORSENED MUSCLE PAIN,Myalgia,REACTOGENICITY,SYSTEMIC,,,,,,,,,,,N,Y,,,,,VACCINATION 2-NEW OR WORSENED MUSCLE PAIN,VACCINATION 2 - NEW OR WORSENED MUSCLE PAIN,,,,,,,,DAY 7,7,VACCINATION 2,2021-12-16T12:41:00,SINCE VACCINATION,,
39,ABC,ABC-1002,1002,1002,USA,CE,17,70,YEARS,F,BLACK OR AFRICAN AMERICAN,HISPANIC OR LATINO,VACCINE A,VACCINE A,2021-10-07,2021-12-16,,,,7,FEVER,Pyrexia,REACTOGENICITY,SYSTEMIC,,,,,,,,,,,N,Y,,,,,VACCINATION 1-FEVER,VACCINATION 1 - FEVER,,,,,,,,DAY 7,7,VACCINATION 1,2021-10-07T12:48:00,SINCE VACCINATION,,
40,ABC,ABC-1002,1002,1002,USA,CE,18,70,YEARS,F,BLACK OR AFRICAN AMERICAN,HISPANIC OR LATINO,VACCINE A,VACCINE A,2021-10-07,2021-12-16,,,,18,FEVER,Pyrexia,REACTOGENICITY,SYSTEMIC,,,,,,,,,,,N,Y,,,,,VACCINATION 2-FEVER,VACCINATION 2 - FEVER,,,,,,,,DAY 7,7,VACCINATION 2,2021-12-16T12:41:00,SINCE VACCINATION,,
41,ABC,ABC-1002,1002,1002,USA,CE,19,70,YEARS,F,BLACK OR AFRICAN AMERICAN,HISPANIC OR LATINO,VACCINE A,VACCINE A,2021-10-07,2021-12-16,,,,4,SWELLING,Swelling,REACTOGENICITY,ADMINISTRATION SITE,,,,,,,,,,,N,Y,,,,,VACCINATION 1-DELTOID MUSCLE-LEFT-SWELLING,VACCINATION 1 - SWELLING,LEFT,DELTOID MUSCLE,,,,,,DAY 7,7,VACCINATION 1,2021-10-07T12:48:00,SINCE VACCINATION,,
42,ABC,ABC-1002,1002,1002,USA,CE,20,70,YEARS,F,BLACK OR AFRICAN AMERICAN,HISPANIC OR LATINO,VACCINE A,VACCINE A,2021-10-07,2021-12-16,2021-12-16,2022-06-14,2,15,SWELLING,Swelling,REACTOGENICITY,ADMINISTRATION SITE,2021-12-17,2021-12-17,2021-12-19,2021-12-19,72,74,3,days,P3D,2,Y,Y,,MILD,1,RELATED,VACCINATION 2-DELTOID MUSCLE-LEFT-SWELLING,VACCINATION 2 - SWELLING,LEFT,DELTOID MUSCLE,MILD,RELATED,RECOVERED/RESOLVED,VACCINATION 2,2021-12-21,DAY 7,7,VACCINATION 2,2021-12-16T12:41:00,SINCE VACCINATION,,
43,ABC,ABC-1002,1002,1002,USA,CE,21,70,YEARS,F,BLACK OR AFRICAN AMERICAN,HISPANIC OR LATINO,VACCINE A,VACCINE A,2021-10-07,2021-12-16,,,,11,VOMITING,Vomiting,REACTOGENICITY,SYSTEMIC,,,,,,,,,,,N,Y,,,,,VACCINATION 1-VOMITING,VACCINATION 1 - VOMITING,,,,,,,,DAY 7,7,VACCINATION 1,2021-10-07T12:48:00,SINCE VACCINATION,,
44,ABC,ABC-1002,1002,1002,USA,CE,22,70,YEARS,F,BLACK OR AFRICAN AMERICAN,HISPANIC OR LATINO,VACCINE A,VACCINE A,2021-10-07,2021-12-16,,,,22,VOMITING,Vomiting,REACTOGENICITY,SYSTEMIC,,,,,,,,,,,N,Y,,,,,VACCINATION 2-VOMITING,VACCINATION 2 - VOMITING,,,,,,,,DAY 7,7,VACCINATION 2,2021-12-16T12:41:00,SINCE VACCINATION,,
