rownames,STUDYID,USUBJID,SUBJID,SITEID,AGE,AGEU,SEX,RACE,SAFFL,ARM,ARMCD,ACTARM,ACTARMCD,TRTP,TRTA,TRT01P,TRT01A,TRT02P,TRT02A,TRTSDT,TRTSDTM,TRTEDT,TRTEDTM,APERSDT,APEREDT,ADT,ADTM,ADY,ATPT,ATPTN,ATPTREF,APERIOD,PARAM,PARAMCD,PARAMN,PARCAT1,PARCAT2,AVAL,AVALC,ANL01FL,ANL02FL,ANL03FL,FATEST,FALNKID,FALNKGRP,FATESTCD,FAOBJ,FASTAT,FAREASND,FAEVAL,EPOCH,FAEVINTX,EXDOSE,EXTRT,EXSTDTC,EXENDTC,FAORRES,VAX01DT,VAX02DT,EVENTFL,EVENTDFL
1,ABC,ABC-1001,1001,1001,74,YEARS,F,WHITE,Y,VACCINE A VACCINE B,VAXAB,VACCINE A VACCINE B,VAXAB,VACCINE A,VACCINE A,VACCINE A,VACCINE A,VACCINE B,VACCINE B,2021-11-03,2021-11-03T10:50:00Z,2021-12-30,2021-12-30T09:10:00Z,2021-11-03,2021-12-29,2021-11-04,2021-11-04T18:01:09Z,2,DAY 2,2,VACCINATION 1,1,Redness severity/intensity deltoid muscle left,SEVREDN,1,REACTOGENICITY,ADMINISTRATION SITE,2,MODERATE,Y,Y,Y,,,,,,,,,VACCINATION 1,,1,VACCINE A,2021-11-03T10:50:00,2021-11-03T10:50:00,,2021-11-03,2021-12-30,Y,Y
2,ABC,ABC-1001,1001,1001,74,YEARS,F,WHITE,Y,VACCINE A VACCINE B,VAXAB,VACCINE A VACCINE B,VAXAB,VACCINE A,VACCINE A,VACCINE A,VACCINE A,VACCINE B,VACCINE B,2021-11-03,2021-11-03T10:50:00Z,2021-12-30,2021-12-30T09:10:00Z,2021-11-03,2021-12-29,2021-11-03,2021-11-03T18:00:23Z,1,DAY 1,1,VACCINATION 1,1,Swelling severity/intensity deltoid muscle left,SEVSWEL,22,REACTOGENICITY,ADMINISTRATION SITE,0,NONE,Y,,,,,,,,,,,VACCINATION 1,,1,VACCINE A,2021-11-03T10:50:00,2021-11-03T10:50:00,,2021-11-03,2021-12-30,Y,N
3,ABC,ABC-1001,1001,1001,74,YEARS,F,WHITE,Y,VACCINE A VACCINE B,VAXAB,VACCINE A VACCINE B,VAXAB,VACCINE A,VACCINE A,VACCINE A,VACCINE A,VACCINE B,VACCINE B,2021-11-03,2021-11-03T10:50:00Z,2021-12-30,2021-12-30T09:10:00Z,2021-11-03,2021-12-29,2021-11-04,2021-11-04T18:01:09Z,2,DAY 2,2,VACCINATION 1,1,Swelling severity/intensity deltoid muscle left,SEVSWEL,22,REACTOGENICITY,ADMINISTRATION SITE,2,MODERATE,Y,Y,Y,,,,,,,,,VACCINATION 1,,1,VACCINE A,2021-11-03T10:50:00,2021-11-03T10:50:00,,2021-11-03,2021-12-30,Y,Y
4,ABC,ABC-1001,1001,1001,74,YEARS,F,WHITE,Y,VACCINE A VACCINE B,VAXAB,VACCINE A VACCINE B,VAXAB,VACCINE A,VACCINE A,VACCINE A,VACCINE A,VACCINE B,VACCINE B,2021-11-03,2021-11-03T10:50:00Z,2021-12-30,2021-12-30T09:10:00Z,2021-11-03,2021-12-29,2021-11-05,2021-11-05T19:04:07Z,3,DAY 3,3,VACCINATION 1,1,Swelling severity/intensity deltoid muscle left,SEVSWEL,22,REACTOGENICITY,ADMINISTRATION SITE,1,MILD,Y,,,,,,,,,,,FOLLOW-UP,,1,VACCINE A,2021-11-03T10:50:00,2021-11-03T10:50:00,,2021-11-03,2021-12-30,Y,Y
5,ABC,ABC-1001,1001,1001,74,YEARS,F,WHITE,Y,VACCINE A VACCINE B,VAXAB,VACCINE A VACCINE B,VAXAB,VACCINE A,VACCINE A,VACCINE A,VACCINE A,VACCINE B,VACCINE B,2021-11-03,2021-11-03T10:50:00Z,2021-12-30,2021-12-30T09:10:00Z,2021-11-03,2021-12-29,2021-11-06,2021-11-06T18:00:33Z,4,DAY 4,4,VACCINATION 1,1,Swelling severity/intensity deltoid muscle left,SEVSWEL,22,REACTOGENICITY,ADMINISTRATION SITE,1,MILD,Y,,,,,,,,,,,FOLLOW-UP,,1,VACCINE A,2021-11-03T10:50:00,2021-11-03T10:50:00,,2021-11-03,2021-12-30,Y,Y
6,ABC,ABC-1001,1001,1001,74,YEARS,F,WHITE,Y,VACCINE A VACCINE B,VAXAB,VACCINE A VACCINE B,VAXAB,VACCINE A,VACCINE A,VACCINE A,VACCINE A,VACCINE B,VACCINE B,2021-11-03,2021-11-03T10:50:00Z,2021-12-30,2021-12-30T09:10:00Z,2021-11-03,2021-12-29,2021-11-07,2021-11-07T18:01:25Z,5,DAY 5,5,VACCINATION 1,1,Swelling severity/intensity deltoid muscle left,SEVSWEL,22,REACTOGENICITY,ADMINISTRATION SITE,1,MILD,Y,,,,,,,,,,,FOLLOW-UP,,1,VACCINE A,2021-11-03T10:50:00,2021-11-03T10:50:00,,2021-11-03,2021-12-30,Y,Y
7,ABC,ABC-1001,1001,1001,74,YEARS,F,WHITE,Y,VACCINE A VACCINE B,VAXAB,VACCINE A VACCINE B,VAXAB,VACCINE A,VACCINE A,VACCINE A,VACCINE A,VACCINE B,VACCINE B,2021-11-03,2021-11-03T10:50:00Z,2021-12-30,2021-12-30T09:10:00Z,2021-11-03,2021-12-29,2021-11-08,2021-11-08T18:00:26Z,6,DAY 6,6,VACCINATION 1,1,Swelling severity/intensity deltoid muscle left,SEVSWEL,22,REACTOGENICITY,ADMINISTRATION SITE,1,MILD,Y,,,,,,,,,,,FOLLOW-UP,,1,VACCINE A,2021-11-03T10:50:00,2021-11-03T10:50:00,,2021-11-03,2021-12-30,Y,Y
8,ABC,ABC-1001,1001,1001,74,YEARS,F,WHITE,Y,VACCINE A VACCINE B,VAXAB,VACCINE A VACCINE B,VAXAB,VACCINE A,VACCINE A,VACCINE A,VACCINE A,VACCINE B,VACCINE B,2021-11-03,2021-11-03T10:50:00Z,2021-12-30,2021-12-30T09:10:00Z,2021-11-03,2021-12-29,2021-11-09,2021-11-09T18:08:04Z,7,DAY 7,7,VACCINATION 1,1,Swelling severity/intensity deltoid muscle left,SEVSWEL,22,REACTOGENICITY,ADMINISTRATION SITE,0,NONE,Y,,,,,,,,,,,FOLLOW-UP,,1,VACCINE A,2021-11-03T10:50:00,2021-11-03T10:50:00,,2021-11-03,2021-12-30,Y,N
9,ABC,ABC-1002,1002,1002,70,YEARS,F,BLACK OR AFRICAN AMERICAN,Y,VACCINE A VACCINE B,VAXAB,VACCINE A VACCINE B,VAXAB,VACCINE A,VACCINE A,VACCINE A,VACCINE A,VACCINE B,VACCINE B,2021-10-07,2021-10-07T12:48:00Z,2021-12-16,2021-12-16T12:41:00Z,2021-10-07,2021-12-15,2021-10-09,2021-10-09T18:02:12Z,3,DAY 3,3,VACCINATION 1,1,Redness severity/intensity deltoid muscle left,SEVREDN,1,REACTOGENICITY,ADMINISTRATION SITE,1,MILD,Y,Y,,,,,,,,,,VACCINATION 1,,1,VACCINE A,2021-10-07T12:48:00,2021-10-07T12:48:00,,2021-10-07,2021-12-16,Y,Y
10,ABC,ABC-1002,1002,1002,70,YEARS,F,BLACK OR AFRICAN AMERICAN,Y,VACCINE A VACCINE B,VAXAB,VACCINE A VACCINE B,VAXAB,VACCINE B,VACCINE B,VACCINE A,VACCINE A,VACCINE B,VACCINE B,2021-10-07,2021-10-07T12:48:00Z,2021-12-16,2021-12-16T12:41:00Z,2021-12-16,2022-06-14,2021-12-17,2021-12-17T18:22:25Z,72,DAY 2,2,VACCINATION 2,2,Redness severity/intensity deltoid muscle left,SEVREDN,1,REACTOGENICITY,ADMINISTRATION SITE,1,MILD,Y,Y,Y,,,,,,,,,VACCINATION 2,,1,VACCINE B,2021-12-16T12:41:00,2021-12-16T12:41:00,,2021-10-07,2021-12-16,Y,Y
11,ABC,ABC-1002,1002,1002,70,YEARS,F,BLACK OR AFRICAN AMERICAN,Y,VACCINE A VACCINE B,VAXAB,VACCINE A VACCINE B,VAXAB,VACCINE B,VACCINE B,VACCINE A,VACCINE A,VACCINE B,VACCINE B,2021-10-07,2021-10-07T12:48:00Z,2021-12-16,2021-12-16T12:41:00Z,2021-12-16,2022-06-14,2021-12-18,2021-12-18T18:34:53Z,73,DAY 3,3,VACCINATION 2,2,Redness severity/intensity deltoid muscle left,SEVREDN,1,REACTOGENICITY,ADMINISTRATION SITE,1,MILD,Y,,,,,,,,,,,VACCINATION 2,,1,VACCINE B,2021-12-16T12:41:00,2021-12-16T12:41:00,,2021-10-07,2021-12-16,Y,Y
12,ABC,ABC-1002,1002,1002,70,YEARS,F,BLACK OR AFRICAN AMERICAN,Y,VACCINE A VACCINE B,VAXAB,VACCINE A VACCINE B,VAXAB,VACCINE B,VACCINE B,VACCINE A,VACCINE A,VACCINE B,VACCINE B,2021-10-07,2021-10-07T12:48:00Z,2021-12-16,2021-12-16T12:41:00Z,2021-12-16,2022-06-14,2021-12-19,2021-12-19T18:40:14Z,74,DAY 4,4,VACCINATION 2,2,Redness severity/intensity deltoid muscle left,SEVREDN,1,REACTOGENICITY,ADMINISTRATION SITE,1,MILD,Y,,,,,,,,,,,VACCINATION 2,,1,VACCINE B,2021-12-16T12:41:00,2021-12-16T12:41:00,,2021-10-07,2021-12-16,Y,Y
13,ABC,ABC-1002,1002,1002,70,YEARS,F,BLACK OR AFRICAN AMERICAN,Y,VACCINE A VACCINE B,VAXAB,VACCINE A VACCINE B,VAXAB,VACCINE B,VACCINE B,VACCINE A,VACCINE A,VACCINE B,VACCINE B,2021-10-07,2021-10-07T12:48:00Z,2021-12-16,2021-12-16T12:41:00Z,2021-12-16,2022-06-14,2021-12-21,2021-12-21T18:20:15Z,76,DAY 6,6,VACCINATION 2,2,Redness severity/intensity deltoid muscle left,SEVREDN,1,REACTOGENICITY,ADMINISTRATION SITE,0,NONE,Y,,,,,,,,,,,VACCINATION 2,,1,VACCINE B,2021-12-16T12:41:00,2021-12-16T12:41:00,,2021-10-07,2021-12-16,Y,N
14,ABC,ABC-1002,1002,1002,70,YEARS,F,BLACK OR AFRICAN AMERICAN,Y,VACCINE A VACCINE B,VAXAB,VACCINE A VACCINE B,VAXAB,VACCINE B,VACCINE B,VACCINE A,VACCINE A,VACCINE B,VACCINE B,2021-10-07,2021-10-07T12:48:00Z,2021-12-16,2021-12-16T12:41:00Z,2021-12-16,2022-06-14,2021-12-17,2021-12-17T18:22:25Z,72,DAY 2,2,VACCINATION 2,2,Swelling severity/intensity deltoid muscle left,SEVSWEL,22,REACTOGENICITY,ADMINISTRATION SITE,1,MILD,Y,Y,Y,,,,,,,,,VACCINATION 2,,1,VACCINE B,2021-12-16T12:41:00,2021-12-16T12:41:00,,2021-10-07,2021-12-16,Y,Y
15,ABC,ABC-1002,1002,1002,70,YEARS,F,BLACK OR AFRICAN AMERICAN,Y,VACCINE A VACCINE B,VAXAB,VACCINE A VACCINE B,VAXAB,VACCINE B,VACCINE B,VACCINE A,VACCINE A,VACCINE B,VACCINE B,2021-10-07,2021-10-07T12:48:00Z,2021-12-16,2021-12-16T12:41:00Z,2021-12-16,2022-06-14,2021-12-19,2021-12-19T18:40:14Z,74,DAY 4,4,VACCINATION 2,2,Swelling severity/intensity deltoid muscle left,SEVSWEL,22,REACTOGENICITY,ADMINISTRATION SITE,1,MILD,Y,,,,,,,,,,,VACCINATION 2,,1,VACCINE B,2021-12-16T12:41:00,2021-12-16T12:41:00,,2021-10-07,2021-12-16,Y,Y
16,ABC,ABC-1001,1001,1001,74,YEARS,F,WHITE,Y,VACCINE A VACCINE B,VAXAB,VACCINE A VACCINE B,VAXAB,VACCINE A,VACCINE A,VACCINE A,VACCINE A,VACCINE B,VACCINE B,2021-11-03,2021-11-03T10:50:00Z,2021-12-30,2021-12-30T09:10:00Z,2021-11-03,2021-12-29,2021-11-03,2021-11-03T18:00:23Z,1,DAY 1,1,VACCINATION 1,1,Chills occurrence indicator,OCCHILLS,18,REACTOGENICITY,SYSTEMIC,,N,Y,,,Occurrence Indicator,VACCINATION 1-CHILLS-DAY 1,VACCINATION 1-CHILLS,OCCUR,CHILLS,,,STUDY SUBJECT,VACCINATION 1,SINCE VACCINATION,1,VACCINE A,2021-11-03T10:50:00,2021-11-03T10:50:00,N,2021-11-03,2021-12-30,N,N
17,ABC,ABC-1001,1001,1001,74,YEARS,F,WHITE,Y,VACCINE A VACCINE B,VAXAB,VACCINE A VACCINE B,VAXAB,VACCINE A,VACCINE A,VACCINE A,VACCINE A,VACCINE B,VACCINE B,2021-11-03,2021-11-03T10:50:00Z,2021-12-30,2021-12-30T09:10:00Z,2021-11-03,2021-12-29,2021-11-04,2021-11-04T18:01:09Z,2,DAY 2,2,VACCINATION 1,1,Chills occurrence indicator,OCCHILLS,18,REACTOGENICITY,SYSTEMIC,,N,Y,,,Occurrence Indicator,VACCINATION 1-CHILLS-DAY 2,VACCINATION 1-CHILLS,OCCUR,CHILLS,,,STUDY SUBJECT,VACCINATION 1,,1,VACCINE A,2021-11-03T10:50:00,2021-11-03T10:50:00,N,2021-11-03,2021-12-30,N,N
18,ABC,ABC-1001,1001,1001,74,YEARS,F,WHITE,Y,VACCINE A VACCINE B,VAXAB,VACCINE A VACCINE B,VAXAB,VACCINE A,VACCINE A,VACCINE A,VACCINE A,VACCINE B,VACCINE B,2021-11-03,2021-11-03T10:50:00Z,2021-12-30,2021-12-30T09:10:00Z,2021-11-03,2021-12-29,2021-11-05,2021-11-05T19:04:07Z,3,DAY 3,3,VACCINATION 1,1,Chills occurrence indicator,OCCHILLS,18,REACTOGENICITY,SYSTEMIC,,N,Y,,,Occurrence Indicator,VACCINATION 1-CHILLS-DAY 3,VACCINATION 1-CHILLS,OCCUR,CHILLS,,,STUDY SUBJECT,FOLLOW-UP,,1,VACCINE A,2021-11-03T10:50:00,2021-11-03T10:50:00,N,2021-11-03,2021-12-30,N,N
19,ABC,ABC-1001,1001,1001,74,YEARS,F,WHITE,Y,VACCINE A VACCINE B,VAXAB,VACCINE A VACCINE B,VAXAB,VACCINE A,VACCINE A,VACCINE A,VACCINE A,VACCINE B,VACCINE B,2021-11-03,2021-11-03T10:50:00Z,2021-12-30,2021-12-30T09:10:00Z,2021-11-03,2021-12-29,2021-11-06,2021-11-06T18:00:33Z,4,DAY 4,4,VACCINATION 1,1,Chills occurrence indicator,OCCHILLS,18,REACTOGENICITY,SYSTEMIC,,N,Y,,,Occurrence Indicator,VACCINATION 1-CHILLS-DAY 4,VACCINATION 1-CHILLS,OCCUR,CHILLS,,,STUDY SUBJECT,FOLLOW-UP,,1,VACCINE A,2021-11-03T10:50:00,2021-11-03T10:50:00,N,2021-11-03,2021-12-30,N,N
20,ABC,ABC-1001,1001,1001,74,YEARS,F,WHITE,Y,VACCINE A VACCINE B,VAXAB,VACCINE A VACCINE B,VAXAB,VACCINE A,VACCINE A,VACCINE A,VACCINE A,VACCINE B,VACCINE B,2021-11-03,2021-11-03T10:50:00Z,2021-12-30,2021-12-30T09:10:00Z,2021-11-03,2021-12-29,2021-11-07,2021-11-07T18:01:25Z,5,DAY 5,5,VACCINATION 1,1,Chills occurrence indicator,OCCHILLS,18,REACTOGENICITY,SYSTEMIC,,N,Y,,,Occurrence Indicator,VACCINATION 1-CHILLS-DAY 5,VACCINATION 1-CHILLS,OCCUR,CHILLS,,,STUDY SUBJECT,FOLLOW-UP,,1,VACCINE A,2021-11-03T10:50:00,2021-11-03T10:50:00,N,2021-11-03,2021-12-30,N,N
21,ABC,ABC-1001,1001,1001,74,YEARS,F,WHITE,Y,VACCINE A VACCINE B,VAXAB,VACCINE A VACCINE B,VAXAB,VACCINE A,VACCINE A,VACCINE A,VACCINE A,VACCINE B,VACCINE B,2021-11-03,2021-11-03T10:50:00Z,2021-12-30,2021-12-30T09:10:00Z,2021-11-03,2021-12-29,2021-11-08,2021-11-08T18:00:26Z,6,DAY 6,6,VACCINATION 1,1,Chills occurrence indicator,OCCHILLS,18,REACTOGENICITY,SYSTEMIC,,N,Y,,,Occurrence Indicator,VACCINATION 1-CHILLS-DAY 6,VACCINATION 1-CHILLS,OCCUR,CHILLS,,,STUDY SUBJECT,FOLLOW-UP,,1,VACCINE A,2021-11-03T10:50:00,2021-11-03T10:50:00,N,2021-11-03,2021-12-30,N,N
22,ABC,ABC-1001,1001,1001,74,YEARS,F,WHITE,Y,VACCINE A VACCINE B,VAXAB,VACCINE A VACCINE B,VAXAB,VACCINE A,VACCINE A,VACCINE A,VACCINE A,VACCINE B,VACCINE B,2021-11-03,2021-11-03T10:50:00Z,2021-12-30,2021-12-30T09:10:00Z,2021-11-03,2021-12-29,2021-11-09,2021-11-09T18:08:04Z,7,DAY 7,7,VACCINATION 1,1,Chills occurrence indicator,OCCHILLS,18,REACTOGENICITY,SYSTEMIC,,N,Y,,,Occurrence Indicator,VACCINATION 1-CHILLS-DAY 7,VACCINATION 1-CHILLS,OCCUR,CHILLS,,,STUDY SUBJECT,FOLLOW-UP,,1,VACCINE A,2021-11-03T10:50:00,2021-11-03T10:50:00,N,2021-11-03,2021-12-30,N,N
23,ABC,ABC-1001,1001,1001,74,YEARS,F,WHITE,Y,VACCINE A VACCINE B,VAXAB,VACCINE A VACCINE B,VAXAB,VACCINE A,VACCINE A,VACCINE A,VACCINE A,VACCINE B,VACCINE B,2021-11-03,2021-11-03T10:50:00Z,2021-12-30,2021-12-30T09:10:00Z,2021-11-03,2021-12-29,2021-11-03,2021-11-03T18:00:23Z,1,DAY 1,1,VACCINATION 1,1,Diarrhea occurrence indicator,OCDIAR,19,REACTOGENICITY,SYSTEMIC,,N,Y,,,Occurrence Indicator,VACCINATION 1-DIARRHEA-DAY 1,VACCINATION 1-DIARRHEA,OCCUR,DIARRHEA,,,STUDY SUBJECT,VACCINATION 1,SINCE VACCINATION,1,VACCINE A,2021-11-03T10:50:00,2021-11-03T10:50:00,N,2021-11-03,2021-12-30,N,N
24,ABC,ABC-1001,1001,1001,74,YEARS,F,WHITE,Y,VACCINE A VACCINE B,VAXAB,VACCINE A VACCINE B,VAXAB,VACCINE A,VACCINE A,VACCINE A,VACCINE A,VACCINE B,VACCINE B,2021-11-03,2021-11-03T10:50:00Z,2021-12-30,2021-12-30T09:10:00Z,2021-11-03,2021-12-29,2021-11-04,2021-11-04T18:01:09Z,2,DAY 2,2,VACCINATION 1,1,Diarrhea occurrence indicator,OCDIAR,19,REACTOGENICITY,SYSTEMIC,,N,Y,,,Occurrence Indicator,VACCINATION 1-DIARRHEA-DAY 2,VACCINATION 1-DIARRHEA,OCCUR,DIARRHEA,,,STUDY SUBJECT,VACCINATION 1,,1,VACCINE A,2021-11-03T10:50:00,2021-11-03T10:50:00,N,2021-11-03,2021-12-30,N,N
25,ABC,ABC-1001,1001,1001,74,YEARS,F,WHITE,Y,VACCINE A VACCINE B,VAXAB,VACCINE A VACCINE B,VAXAB,VACCINE A,VACCINE A,VACCINE A,VACCINE A,VACCINE B,VACCINE B,2021-11-03,2021-11-03T10:50:00Z,2021-12-30,2021-12-30T09:10:00Z,2021-11-03,2021-12-29,2021-11-05,2021-11-05T19:04:07Z,3,DAY 3,3,VACCINATION 1,1,Diarrhea occurrence indicator,OCDIAR,19,REACTOGENICITY,SYSTEMIC,,N,Y,,,Occurrence Indicator,VACCINATION 1-DIARRHEA-DAY 3,VACCINATION 1-DIARRHEA,OCCUR,DIARRHEA,,,STUDY SUBJECT,FOLLOW-UP,,1,VACCINE A,2021-11-03T10:50:00,2021-11-03T10:50:00,N,2021-11-03,2021-12-30,N,N
26,ABC,ABC-1001,1001,1001,74,YEARS,F,WHITE,Y,VACCINE A VACCINE B,VAXAB,VACCINE A VACCINE B,VAXAB,VACCINE A,VACCINE A,VACCINE A,VACCINE A,VACCINE B,VACCINE B,2021-11-03,2021-11-03T10:50:00Z,2021-12-30,2021-12-30T09:10:00Z,2021-11-03,2021-12-29,2021-11-06,2021-11-06T18:00:33Z,4,DAY 4,4,VACCINATION 1,1,Diarrhea occurrence indicator,OCDIAR,19,REACTOGENICITY,SYSTEMIC,,N,Y,,,Occurrence Indicator,VACCINATION 1-DIARRHEA-DAY 4,VACCINATION 1-DIARRHEA,OCCUR,DIARRHEA,,,STUDY SUBJECT,FOLLOW-UP,,1,VACCINE A,2021-11-03T10:50:00,2021-11-03T10:50:00,N,2021-11-03,2021-12-30,N,N
27,ABC,ABC-1001,1001,1001,74,YEARS,F,WHITE,Y,VACCINE A VACCINE B,VAXAB,VACCINE A VACCINE B,VAXAB,VACCINE A,VACCINE A,VACCINE A,VACCINE A,VACCINE B,VACCINE B,2021-11-03,2021-11-03T10:50:00Z,2021-12-30,2021-12-30T09:10:00Z,2021-11-03,2021-12-29,2021-11-07,2021-11-07T18:01:25Z,5,DAY 5,5,VACCINATION 1,1,Diarrhea occurrence indicator,OCDIAR,19,REACTOGENICITY,SYSTEMIC,,N,Y,,,Occurrence Indicator,VACCINATION 1-DIARRHEA-DAY 5,VACCINATION 1-DIARRHEA,OCCUR,DIARRHEA,,,STUDY SUBJECT,FOLLOW-UP,,1,VACCINE A,2021-11-03T10:50:00,2021-11-03T10:50:00,N,2021-11-03,2021-12-30,N,N
28,ABC,ABC-1001,1001,1001,74,YEARS,F,WHITE,Y,VACCINE A VACCINE B,VAXAB,VACCINE A VACCINE B,VAXAB,VACCINE A,VACCINE A,VACCINE A,VACCINE A,VACCINE B,VACCINE B,2021-11-03,2021-11-03T10:50:00Z,2021-12-30,2021-12-30T09:10:00Z,2021-11-03,2021-12-29,2021-11-08,2021-11-08T18:00:26Z,6,DAY 6,6,VACCINATION 1,1,Diarrhea occurrence indicator,OCDIAR,19,REACTOGENICITY,SYSTEMIC,,N,Y,,,Occurrence Indicator,VACCINATION 1-DIARRHEA-DAY 6,VACCINATION 1-DIARRHEA,OCCUR,DIARRHEA,,,STUDY SUBJECT,FOLLOW-UP,,1,VACCINE A,2021-11-03T10:50:00,2021-11-03T10:50:00,N,2021-11-03,2021-12-30,N,N
29,ABC,ABC-1001,1001,1001,74,YEARS,F,WHITE,Y,VACCINE A VACCINE B,VAXAB,VACCINE A VACCINE B,VAXAB,VACCINE A,VACCINE A,VACCINE A,VACCINE A,VACCINE B,VACCINE B,2021-11-03,2021-11-03T10:50:00Z,2021-12-30,2021-12-30T09:10:00Z,2021-11-03,2021-12-29,2021-11-09,2021-11-09T18:08:04Z,7,DAY 7,7,VACCINATION 1,1,Diarrhea occurrence indicator,OCDIAR,19,REACTOGENICITY,SYSTEMIC,,N,Y,,,Occurrence Indicator,VACCINATION 1-DIARRHEA-DAY 7,VACCINATION 1-DIARRHEA,OCCUR,DIARRHEA,,,STUDY SUBJECT,FOLLOW-UP,,1,VACCINE A,2021-11-03T10:50:00,2021-11-03T10:50:00,N,2021-11-03,2021-12-30,N,N
30,ABC,ABC-1001,1001,1001,74,YEARS,F,WHITE,Y,VACCINE A VACCINE B,VAXAB,VACCINE A VACCINE B,VAXAB,VACCINE A,VACCINE A,VACCINE A,VACCINE A,VACCINE B,VACCINE B,2021-11-03,2021-11-03T10:50:00Z,2021-12-30,2021-12-30T09:10:00Z,2021-11-03,2021-12-29,2021-11-03,2021-11-03T18:00:23Z,1,DAY 1,1,VACCINATION 1,1,Fatigue occurrence indicator,OCFATIG,16,REACTOGENICITY,SYSTEMIC,,Y,Y,,,Occurrence Indicator,VACCINATION 1-FATIGUE-DAY 1,VACCINATION 1-FATIGUE,OCCUR,FATIGUE,,,STUDY SUBJECT,VACCINATION 1,SINCE VACCINATION,1,VACCINE A,2021-11-03T10:50:00,2021-11-03T10:50:00,Y,2021-11-03,2021-12-30,Y,Y
31,ABC,ABC-1001,1001,1001,74,YEARS,F,WHITE,Y,VACCINE A VACCINE B,VAXAB,VACCINE A VACCINE B,VAXAB,VACCINE A,VACCINE A,VACCINE A,VACCINE A,VACCINE B,VACCINE B,2021-11-03,2021-11-03T10:50:00Z,2021-12-30,2021-12-30T09:10:00Z,2021-11-03,2021-12-29,2021-11-04,2021-11-04T18:01:09Z,2,DAY 2,2,VACCINATION 1,1,Fatigue occurrence indicator,OCFATIG,16,REACTOGENICITY,SYSTEMIC,,Y,Y,,,Occurrence Indicator,VACCINATION 1-FATIGUE-DAY 2,VACCINATION 1-FATIGUE,OCCUR,FATIGUE,,,STUDY SUBJECT,VACCINATION 1,,1,VACCINE A,2021-11-03T10:50:00,2021-11-03T10:50:00,Y,2021-11-03,2021-12-30,Y,Y
32,ABC,ABC-1001,1001,1001,74,YEARS,F,WHITE,Y,VACCINE A VACCINE B,VAXAB,VACCINE A VACCINE B,VAXAB,VACCINE A,VACCINE A,VACCINE A,VACCINE A,VACCINE B,VACCINE B,2021-11-03,2021-11-03T10:50:00Z,2021-12-30,2021-12-30T09:10:00Z,2021-11-03,2021-12-29,2021-11-05,2021-11-05T19:04:07Z,3,DAY 3,3,VACCINATION 1,1,Fatigue occurrence indicator,OCFATIG,16,REACTOGENICITY,SYSTEMIC,,N,Y,,,Occurrence Indicator,VACCINATION 1-FATIGUE-DAY 3,VACCINATION 1-FATIGUE,OCCUR,FATIGUE,,,STUDY SUBJECT,FOLLOW-UP,,1,VACCINE A,2021-11-03T10:50:00,2021-11-03T10:50:00,N,2021-11-03,2021-12-30,Y,N
33,ABC,ABC-1001,1001,1001,74,YEARS,F,WHITE,Y,VACCINE A VACCINE B,VAXAB,VACCINE A VACCINE B,VAXAB,VACCINE A,VACCINE A,VACCINE A,VACCINE A,VACCINE B,VACCINE B,2021-11-03,2021-11-03T10:50:00Z,2021-12-30,2021-12-30T09:10:00Z,2021-11-03,2021-12-29,2021-11-06,2021-11-06T18:00:33Z,4,DAY 4,4,VACCINATION 1,1,Fatigue occurrence indicator,OCFATIG,16,REACTOGENICITY,SYSTEMIC,,N,Y,,,Occurrence Indicator,VACCINATION 1-FATIGUE-DAY 4,VACCINATION 1-FATIGUE,OCCUR,FATIGUE,,,STUDY SUBJECT,FOLLOW-UP,,1,VACCINE A,2021-11-03T10:50:00,2021-11-03T10:50:00,N,2021-11-03,2021-12-30,Y,N
34,ABC,ABC-1001,1001,1001,74,YEARS,F,WHITE,Y,VACCINE A VACCINE B,VAXAB,VACCINE A VACCINE B,VAXAB,VACCINE A,VACCINE A,VACCINE A,VACCINE A,VACCINE B,VACCINE B,2021-11-03,2021-11-03T10:50:00Z,2021-12-30,2021-12-30T09:10:00Z,2021-11-03,2021-12-29,2021-11-07,2021-11-07T18:01:25Z,5,DAY 5,5,VACCINATION 1,1,Fatigue occurrence indicator,OCFATIG,16,REACTOGENICITY,SYSTEMIC,,N,Y,,,Occurrence Indicator,VACCINATION 1-FATIGUE-DAY 5,VACCINATION 1-FATIGUE,OCCUR,FATIGUE,,,STUDY SUBJECT,FOLLOW-UP,,1,VACCINE A,2021-11-03T10:50:00,2021-11-03T10:50:00,N,2021-11-03,2021-12-30,Y,N
35,ABC,ABC-1001,1001,1001,74,YEARS,F,WHITE,Y,VACCINE A VACCINE B,VAXAB,VACCINE A VACCINE B,VAXAB,VACCINE A,VACCINE A,VACCINE A,VACCINE A,VACCINE B,VACCINE B,2021-11-03,2021-11-03T10:50:00Z,2021-12-30,2021-12-30T09:10:00Z,2021-11-03,2021-12-29,2021-11-08,2021-11-08T18:00:26Z,6,DAY 6,6,VACCINATION 1,1,Fatigue occurrence indicator,OCFATIG,16,REACTOGENICITY,SYSTEMIC,,N,Y,,,Occurrence Indicator,VACCINATION 1-FATIGUE-DAY 6,VACCINATION 1-FATIGUE,OCCUR,FATIGUE,,,STUDY SUBJECT,FOLLOW-UP,,1,VACCINE A,2021-11-03T10:50:00,2021-11-03T10:50:00,N,2021-11-03,2021-12-30,Y,N
36,ABC,ABC-1001,1001,1001,74,YEARS,F,WHITE,Y,VACCINE A VACCINE B,VAXAB,VACCINE A VACCINE B,VAXAB,VACCINE A,VACCINE A,VACCINE A,VACCINE A,VACCINE B,VACCINE B,2021-11-03,2021-11-03T10:50:00Z,2021-12-30,2021-12-30T09:10:00Z,2021-11-03,2021-12-29,2021-11-09,2021-11-09T18:08:04Z,7,DAY 7,7,VACCINATION 1,1,Fatigue occurrence indicator,OCFATIG,16,REACTOGENICITY,SYSTEMIC,,N,Y,,,Occurrence Indicator,VACCINATION 1-FATIGUE-DAY 7,VACCINATION 1-FATIGUE,OCCUR,FATIGUE,,,STUDY SUBJECT,FOLLOW-UP,,1,VACCINE A,2021-11-03T10:50:00,2021-11-03T10:50:00,N,2021-11-03,2021-12-30,Y,N
37,ABC,ABC-1001,1001,1001,74,YEARS,F,WHITE,Y,VACCINE A VACCINE B,VAXAB,VACCINE A VACCINE B,VAXAB,VACCINE A,VACCINE A,VACCINE A,VACCINE A,VACCINE B,VACCINE B,2021-11-03,2021-11-03T10:50:00Z,2021-12-30,2021-12-30T09:10:00Z,2021-11-03,2021-12-29,2021-11-03,2021-11-03T18:00:23Z,1,DAY 1,1,VACCINATION 1,1,Fatigue severity/intensity,SEVFAT,24,REACTOGENICITY,SYSTEMIC,1,MILD,Y,Y,Y,Severity/Intensity,VACCINATION 1-FATIGUE-DAY 1,VACCINATION 1-FATIGUE,SEV,FATIGUE,,,STUDY SUBJECT,VACCINATION 1,SINCE VACCINATION,1,VACCINE A,2021-11-03T10:50:00,2021-11-03T10:50:00,MILD,2021-11-03,2021-12-30,Y,Y
38,ABC,ABC-1001,1001,1001,74,YEARS,F,WHITE,Y,VACCINE A VACCINE B,VAXAB,VACCINE A VACCINE B,VAXAB,VACCINE A,VACCINE A,VACCINE A,VACCINE A,VACCINE B,VACCINE B,2021-11-03,2021-11-03T10:50:00Z,2021-12-30,2021-12-30T09:10:00Z,2021-11-03,2021-12-29,2021-11-04,2021-11-04T18:01:09Z,2,DAY 2,2,VACCINATION 1,1,Fatigue severity/intensity,SEVFAT,24,REACTOGENICITY,SYSTEMIC,1,MILD,Y,,,Severity/Intensity,VACCINATION 1-FATIGUE-DAY 2,VACCINATION 1-FATIGUE,SEV,FATIGUE,,,STUDY SUBJECT,VACCINATION 1,,1,VACCINE A,2021-11-03T10:50:00,2021-11-03T10:50:00,MILD,2021-11-03,2021-12-30,Y,Y
39,ABC,ABC-1001,1001,1001,74,YEARS,F,WHITE,Y,VACCINE A VACCINE B,VAXAB,VACCINE A VACCINE B,VAXAB,VACCINE A,VACCINE A,VACCINE A,VACCINE A,VACCINE B,VACCINE B,2021-11-03,2021-11-03T10:50:00Z,2021-12-30,2021-12-30T09:10:00Z,2021-11-03,2021-12-29,2021-11-03,2021-11-03T18:00:23Z,,DAY 1,1,VACCINATION 1,1,Fever occurrence indicator,OCFEVER,5,REACTOGENICITY,SYSTEMIC,,N,Y,,,,,,,,,,,VACCINATION 1,,,,,,,2021-11-03,2021-12-30,N,N
40,ABC,ABC-1001,1001,1001,74,YEARS,F,WHITE,Y,VACCINE A VACCINE B,VAXAB,VACCINE A VACCINE B,VAXAB,VACCINE A,VACCINE A,VACCINE A,VACCINE A,VACCINE B,VACCINE B,2021-11-03,2021-11-03T10:50:00Z,2021-12-30,2021-12-30T09:10:00Z,2021-11-03,2021-12-29,2021-11-04,2021-11-04T18:01:09Z,,DAY 2,2,VACCINATION 1,1,Fever occurrence indicator,OCFEVER,5,REACTOGENICITY,SYSTEMIC,,N,Y,,,,,,,,,,,VACCINATION 1,,,,,,,2021-11-03,2021-12-30,N,N
41,ABC,ABC-1001,1001,1001,74,YEARS,F,WHITE,Y,VACCINE A VACCINE B,VAXAB,VACCINE A VACCINE B,VAXAB,VACCINE A,VACCINE A,VACCINE A,VACCINE A,VACCINE B,VACCINE B,2021-11-03,2021-11-03T10:50:00Z,2021-12-30,2021-12-30T09:10:00Z,2021-11-03,2021-12-29,2021-11-05,2021-11-05T19:04:07Z,,DAY 3,3,VACCINATION 1,1,Fever occurrence indicator,OCFEVER,5,REACTOGENICITY,SYSTEMIC,,N,Y,,,,,,,,,,,VACCINATION 1,,,,,,,2021-11-03,2021-12-30,N,N
42,ABC,ABC-1001,1001,1001,74,YEARS,F,WHITE,Y,VACCINE A VACCINE B,VAXAB,VACCINE A VACCINE B,VAXAB,VACCINE A,VACCINE A,VACCINE A,VACCINE A,VACCINE B,VACCINE B,2021-11-03,2021-11-03T10:50:00Z,2021-12-30,2021-12-30T09:10:00Z,2021-11-03,2021-12-29,2021-11-06,2021-11-06T18:00:33Z,,DAY 4,4,VACCINATION 1,1,Fever occurrence indicator,OCFEVER,5,REACTOGENICITY,SYSTEMIC,,N,Y,,,,,,,,,,,VACCINATION 1,,,,,,,2021-11-03,2021-12-30,N,N
43,ABC,ABC-1001,1001,1001,74,YEARS,F,WHITE,Y,VACCINE A VACCINE B,VAXAB,VACCINE A VACCINE B,VAXAB,VACCINE A,VACCINE A,VACCINE A,VACCINE A,VACCINE B,VACCINE B,2021-11-03,2021-11-03T10:50:00Z,2021-12-30,2021-12-30T09:10:00Z,2021-11-03,2021-12-29,2021-11-07,2021-11-07T18:01:25Z,,DAY 5,5,VACCINATION 1,1,Fever occurrence indicator,OCFEVER,5,REACTOGENICITY,SYSTEMIC,,N,Y,,,,,,,,,,,VACCINATION 1,,,,,,,2021-11-03,2021-12-30,N,N
44,ABC,ABC-1001,1001,1001,74,YEARS,F,WHITE,Y,VACCINE A VACCINE B,VAXAB,VACCINE A VACCINE B,VAXAB,VACCINE A,VACCINE A,VACCINE A,VACCINE A,VACCINE B,VACCINE B,2021-11-03,2021-11-03T10:50:00Z,2021-12-30,2021-12-30T09:10:00Z,2021-11-03,2021-12-29,2021-11-08,2021-11-08T18:00:26Z,,DAY 6,6,VACCINATION 1,1,Fever occurrence indicator,OCFEVER,5,REACTOGENICITY,SYSTEMIC,,N,Y,,,,,,,,,,,VACCINATION 1,,,,,,,2021-11-03,2021-12-30,N,N
45,ABC,ABC-1001,1001,1001,74,YEARS,F,WHITE,Y,VACCINE A VACCINE B,VAXAB,VACCINE A VACCINE B,VAXAB,VACCINE A,VACCINE A,VACCINE A,VACCINE A,VACCINE B,VACCINE B,2021-11-03,2021-11-03T10:50:00Z,2021-12-30,2021-12-30T09:10:00Z,2021-11-03,2021-12-29,2021-11-09,2021-11-09T18:08:04Z,,DAY 7,7,VACCINATION 1,1,Fever occurrence indicator,OCFEVER,5,REACTOGENICITY,SYSTEMIC,,N,Y,,,,,,,,,,,VACCINATION 1,,,,,,,2021-11-03,2021-12-30,N,N
46,ABC,ABC-1001,1001,1001,74,YEARS,F,WHITE,Y,VACCINE A VACCINE B,VAXAB,VACCINE A VACCINE B,VAXAB,VACCINE A,VACCINE A,VACCINE A,VACCINE A,VACCINE B,VACCINE B,2021-11-03,2021-11-03T10:50:00Z,2021-12-30,2021-12-30T09:10:00Z,2021-11-03,2021-12-29,2021-11-03,2021-11-03T18:00:23Z,1,DAY 1,1,VACCINATION 1,1,Headache occurrence indicator,OCHEAD,17,REACTOGENICITY,SYSTEMIC,,N,Y,,,Occurrence Indicator,VACCINATION 1-HEADACHE-DAY 1,VACCINATION 1-HEADACHE,OCCUR,HEADACHE,,,STUDY SUBJECT,VACCINATION 1,SINCE VACCINATION,1,VACCINE A,2021-11-03T10:50:00,2021-11-03T10:50:00,N,2021-11-03,2021-12-30,N,N
47,ABC,ABC-1001,1001,1001,74,YEARS,F,WHITE,Y,VACCINE A VACCINE B,VAXAB,VACCINE A VACCINE B,VAXAB,VACCINE A,VACCINE A,VACCINE A,VACCINE A,VACCINE B,VACCINE B,2021-11-03,2021-11-03T10:50:00Z,2021-12-30,2021-12-30T09:10:00Z,2021-11-03,2021-12-29,2021-11-04,2021-11-04T18:01:09Z,2,DAY 2,2,VACCINATION 1,1,Headache occurrence indicator,OCHEAD,17,REACTOGENICITY,SYSTEMIC,,N,Y,,,Occurrence Indicator,VACCINATION 1-HEADACHE-DAY 2,VACCINATION 1-HEADACHE,OCCUR,HEADACHE,,,STUDY SUBJECT,VACCINATION 1,,1,VACCINE A,2021-11-03T10:50:00,2021-11-03T10:50:00,N,2021-11-03,2021-12-30,N,N
48,ABC,ABC-1001,1001,1001,74,YEARS,F,WHITE,Y,VACCINE A VACCINE B,VAXAB,VACCINE A VACCINE B,VAXAB,VACCINE A,VACCINE A,VACCINE A,VACCINE A,VACCINE B,VACCINE B,2021-11-03,2021-11-03T10:50:00Z,2021-12-30,2021-12-30T09:10:00Z,2021-11-03,2021-12-29,2021-11-05,2021-11-05T19:04:07Z,3,DAY 3,3,VACCINATION 1,1,Headache occurrence indicator,OCHEAD,17,REACTOGENICITY,SYSTEMIC,,N,Y,,,Occurrence Indicator,VACCINATION 1-HEADACHE-DAY 3,VACCINATION 1-HEADACHE,OCCUR,HEADACHE,,,STUDY SUBJECT,FOLLOW-UP,,1,VACCINE A,2021-11-03T10:50:00,2021-11-03T10:50:00,N,2021-11-03,2021-12-30,N,N
49,ABC,ABC-1001,1001,1001,74,YEARS,F,WHITE,Y,VACCINE A VACCINE B,VAXAB,VACCINE A VACCINE B,VAXAB,VACCINE A,VACCINE A,VACCINE A,VACCINE A,VACCINE B,VACCINE B,2021-11-03,2021-11-03T10:50:00Z,2021-12-30,2021-12-30T09:10:00Z,2021-11-03,2021-12-29,2021-11-06,2021-11-06T18:00:33Z,4,DAY 4,4,VACCINATION 1,1,Headache occurrence indicator,OCHEAD,17,REACTOGENICITY,SYSTEMIC,,N,Y,,,Occurrence Indicator,VACCINATION 1-HEADACHE-DAY 4,VACCINATION 1-HEADACHE,OCCUR,HEADACHE,,,STUDY SUBJECT,FOLLOW-UP,,1,VACCINE A,2021-11-03T10:50:00,2021-11-03T10:50:00,N,2021-11-03,2021-12-30,N,N
50,ABC,ABC-1001,1001,1001,74,YEARS,F,WHITE,Y,VACCINE A VACCINE B,VAXAB,VACCINE A VACCINE B,VAXAB,VACCINE A,VACCINE A,VACCINE A,VACCINE A,VACCINE B,VACCINE B,2021-11-03,2021-11-03T10:50:00Z,2021-12-30,2021-12-30T09:10:00Z,2021-11-03,2021-12-29,2021-11-07,2021-11-07T18:01:25Z,5,DAY 5,5,VACCINATION 1,1,Headache occurrence indicator,OCHEAD,17,REACTOGENICITY,SYSTEMIC,,N,Y,,,Occurrence Indicator,VACCINATION 1-HEADACHE-DAY 5,VACCINATION 1-HEADACHE,OCCUR,HEADACHE,,,STUDY SUBJECT,FOLLOW-UP,,1,VACCINE A,2021-11-03T10:50:00,2021-11-03T10:50:00,N,2021-11-03,2021-12-30,N,N
51,ABC,ABC-1001,1001,1001,74,YEARS,F,WHITE,Y,VACCINE A VACCINE B,VAXAB,VACCINE A VACCINE B,VAXAB,VACCINE A,VACCINE A,VACCINE A,VACCINE A,VACCINE B,VACCINE B,2021-11-03,2021-11-03T10:50:00Z,2021-12-30,2021-12-30T09:10:00Z,2021-11-03,2021-12-29,2021-11-08,2021-11-08T18:00:26Z,6,DAY 6,6,VACCINATION 1,1,Headache occurrence indicator,OCHEAD,17,REACTOGENICITY,SYSTEMIC,,N,Y,,,Occurrence Indicator,VACCINATION 1-HEADACHE-DAY 6,VACCINATION 1-HEADACHE,OCCUR,HEADACHE,,,STUDY SUBJECT,FOLLOW-UP,,1,VACCINE A,2021-11-03T10:50:00,2021-11-03T10:50:00,N,2021-11-03,2021-12-30,N,N
52,ABC,ABC-1001,1001,1001,74,YEARS,F,WHITE,Y,VACCINE A VACCINE B,VAXAB,VACCINE A VACCINE B,VAXAB,VACCINE A,VACCINE A,VACCINE A,VACCINE A,VACCINE B,VACCINE B,2021-11-03,2021-11-03T10:50:00Z,2021-12-30,2021-12-30T09:10:00Z,2021-11-03,2021-12-29,2021-11-09,2021-11-09T18:08:04Z,7,DAY 7,7,VACCINATION 1,1,Headache occurrence indicator,OCHEAD,17,REACTOGENICITY,SYSTEMIC,,N,Y,,,Occurrence Indicator,VACCINATION 1-HEADACHE-DAY 7,VACCINATION 1-HEADACHE,OCCUR,HEADACHE,,,STUDY SUBJECT,FOLLOW-UP,,1,VACCINE A,2021-11-03T10:50:00,2021-11-03T10:50:00,N,2021-11-03,2021-12-30,N,N
53,ABC,ABC-1001,1001,1001,74,YEARS,F,WHITE,Y,VACCINE A VACCINE B,VAXAB,VACCINE A VACCINE B,VAXAB,VACCINE A,VACCINE A,VACCINE A,VACCINE A,VACCINE B,VACCINE B,2021-11-03,2021-11-03T10:50:00Z,2021-12-30,2021-12-30T09:10:00Z,2021-11-03,2021-12-29,2021-11-03,2021-11-03T18:00:23Z,1,DAY 1,1,VACCINATION 1,1,New or worsened joint pain occurrence indicator,OCCNWJP,20,REACTOGENICITY,SYSTEMIC,,N,Y,,,Occurrence Indicator,VACCINATION 1-NEW OR WORSENED JOINT PAIN-DAY 1,VACCINATION 1-NEW OR WORSENED JOINT PAIN,OCCUR,NEW OR WORSENED JOINT PAIN,,,STUDY SUBJECT,VACCINATION 1,SINCE VACCINATION,1,VACCINE A,2021-11-03T10:50:00,2021-11-03T10:50:00,N,2021-11-03,2021-12-30,Y,N
54,ABC,ABC-1001,1001,1001,74,YEARS,F,WHITE,Y,VACCINE A VACCINE B,VAXAB,VACCINE A VACCINE B,VAXAB,VACCINE A,VACCINE A,VACCINE A,VACCINE A,VACCINE B,VACCINE B,2021-11-03,2021-11-03T10:50:00Z,2021-12-30,2021-12-30T09:10:00Z,2021-11-03,2021-12-29,2021-11-04,2021-11-04T18:01:09Z,2,DAY 2,2,VACCINATION 1,1,New or worsened joint pain occurrence indicator,OCCNWJP,20,REACTOGENICITY,SYSTEMIC,,Y,Y,,,Occurrence Indicator,VACCINATION 1-NEW OR WORSENED JOINT PAIN-DAY 2,VACCINATION 1-NEW OR WORSENED JOINT PAIN,OCCUR,NEW OR WORSENED JOINT PAIN,,,STUDY SUBJECT,VACCINATION 1,,1,VACCINE A,2021-11-03T10:50:00,2021-11-03T10:50:00,Y,2021-11-03,2021-12-30,Y,Y
55,ABC,ABC-1001,1001,1001,74,YEARS,F,WHITE,Y,VACCINE A VACCINE B,VAXAB,VACCINE A VACCINE B,VAXAB,VACCINE A,VACCINE A,VACCINE A,VACCINE A,VACCINE B,VACCINE B,2021-11-03,2021-11-03T10:50:00Z,2021-12-30,2021-12-30T09:10:00Z,2021-11-03,2021-12-29,2021-11-05,2021-11-05T19:04:07Z,3,DAY 3,3,VACCINATION 1,1,New or worsened joint pain occurrence indicator,OCCNWJP,20,REACTOGENICITY,SYSTEMIC,,N,Y,,,Occurrence Indicator,VACCINATION 1-NEW OR WORSENED JOINT PAIN-DAY 3,VACCINATION 1-NEW OR WORSENED JOINT PAIN,OCCUR,NEW OR WORSENED JOINT PAIN,,,STUDY SUBJECT,FOLLOW-UP,,1,VACCINE A,2021-11-03T10:50:00,2021-11-03T10:50:00,N,2021-11-03,2021-12-30,Y,N
56,ABC,ABC-1001,1001,1001,74,YEARS,F,WHITE,Y,VACCINE A VACCINE B,VAXAB,VACCINE A VACCINE B,VAXAB,VACCINE A,VACCINE A,VACCINE A,VACCINE A,VACCINE B,VACCINE B,2021-11-03,2021-11-03T10:50:00Z,2021-12-30,2021-12-30T09:10:00Z,2021-11-03,2021-12-29,2021-11-06,2021-11-06T18:00:33Z,4,DAY 4,4,VACCINATION 1,1,New or worsened joint pain occurrence indicator,OCCNWJP,20,REACTOGENICITY,SYSTEMIC,,N,Y,,,Occurrence Indicator,VACCINATION 1-NEW OR WORSENED JOINT PAIN-DAY 4,VACCINATION 1-NEW OR WORSENED JOINT PAIN,OCCUR,NEW OR WORSENED JOINT PAIN,,,STUDY SUBJECT,FOLLOW-UP,,1,VACCINE A,2021-11-03T10:50:00,2021-11-03T10:50:00,N,2021-11-03,2021-12-30,Y,N
57,ABC,ABC-1001,1001,1001,74,YEARS,F,WHITE,Y,VACCINE A VACCINE B,VAXAB,VACCINE A VACCINE B,VAXAB,VACCINE A,VACCINE A,VACCINE A,VACCINE A,VACCINE B,VACCINE B,2021-11-03,2021-11-03T10:50:00Z,2021-12-30,2021-12-30T09:10:00Z,2021-11-03,2021-12-29,2021-11-07,2021-11-07T18:01:25Z,5,DAY 5,5,VACCINATION 1,1,New or worsened joint pain occurrence indicator,OCCNWJP,20,REACTOGENICITY,SYSTEMIC,,N,Y,,,Occurrence Indicator,VACCINATION 1-NEW OR WORSENED JOINT PAIN-DAY 5,VACCINATION 1-NEW OR WORSENED JOINT PAIN,OCCUR,NEW OR WORSENED JOINT PAIN,,,STUDY SUBJECT,FOLLOW-UP,,1,VACCINE A,2021-11-03T10:50:00,2021-11-03T10:50:00,N,2021-11-03,2021-12-30,Y,N
58,ABC,ABC-1001,1001,1001,74,YEARS,F,WHITE,Y,VACCINE A VACCINE B,VAXAB,VACCINE A VACCINE B,VAXAB,VACCINE A,VACCINE A,VACCINE A,VACCINE A,VACCINE B,VACCINE B,2021-11-03,2021-11-03T10:50:00Z,2021-12-30,2021-12-30T09:10:00Z,2021-11-03,2021-12-29,2021-11-08,2021-11-08T18:00:26Z,6,DAY 6,6,VACCINATION 1,1,New or worsened joint pain occurrence indicator,OCCNWJP,20,REACTOGENICITY,SYSTEMIC,,N,Y,,,Occurrence Indicator,VACCINATION 1-NEW OR WORSENED JOINT PAIN-DAY 6,VACCINATION 1-NEW OR WORSENED JOINT PAIN,OCCUR,NEW OR WORSENED JOINT PAIN,,,STUDY SUBJECT,FOLLOW-UP,,1,VACCINE A,2021-11-03T10:50:00,2021-11-03T10:50:00,N,2021-11-03,2021-12-30,Y,N
59,ABC,ABC-1001,1001,1001,74,YEARS,F,WHITE,Y,VACCINE A VACCINE B,VAXAB,VACCINE A VACCINE B,VAXAB,VACCINE A,VACCINE A,VACCINE A,VACCINE A,VACCINE B,VACCINE B,2021-11-03,2021-11-03T10:50:00Z,2021-12-30,2021-12-30T09:10:00Z,2021-11-03,2021-12-29,2021-11-09,2021-11-09T18:08:04Z,7,DAY 7,7,VACCINATION 1,1,New or worsened joint pain occurrence indicator,OCCNWJP,20,REACTOGENICITY,SYSTEMIC,,N,Y,,,Occurrence Indicator,VACCINATION 1-NEW OR WORSENED JOINT PAIN-DAY 7,VACCINATION 1-NEW OR WORSENED JOINT PAIN,OCCUR,NEW OR WORSENED JOINT PAIN,,,STUDY SUBJECT,FOLLOW-UP,,1,VACCINE A,2021-11-03T10:50:00,2021-11-03T10:50:00,N,2021-11-03,2021-12-30,Y,N
60,ABC,ABC-1001,1001,1001,74,YEARS,F,WHITE,Y,VACCINE A VACCINE B,VAXAB,VACCINE A VACCINE B,VAXAB,VACCINE A,VACCINE A,VACCINE A,VACCINE A,VACCINE B,VACCINE B,2021-11-03,2021-11-03T10:50:00Z,2021-12-30,2021-12-30T09:10:00Z,2021-11-03,2021-12-29,2021-11-04,2021-11-04T18:01:09Z,2,DAY 2,2,VACCINATION 1,1,New or worsened joint pain severity/intensity,SEVNWJP,27,REACTOGENICITY,SYSTEMIC,1,MILD,Y,Y,Y,Severity/Intensity,VACCINATION 1-NEW OR WORSENED JOINT PAIN-DAY 2,VACCINATION 1-NEW OR WORSENED JOINT PAIN,SEV,NEW OR WORSENED JOINT PAIN,,,STUDY SUBJECT,VACCINATION 1,,1,VACCINE A,2021-11-03T10:50:00,2021-11-03T10:50:00,MILD,2021-11-03,2021-12-30,Y,Y
61,ABC,ABC-1001,1001,1001,74,YEARS,F,WHITE,Y,VACCINE A VACCINE B,VAXAB,VACCINE A VACCINE B,VAXAB,VACCINE A,VACCINE A,VACCINE A,VACCINE A,VACCINE B,VACCINE B,2021-11-03,2021-11-03T10:50:00Z,2021-12-30,2021-12-30T09:10:00Z,2021-11-03,2021-12-29,2021-11-03,2021-11-03T18:00:23Z,1,DAY 1,1,VACCINATION 1,1,New or worsened muscle pain occurrence indicator,OCCNWMP,21,REACTOGENICITY,SYSTEMIC,,N,Y,,,Occurrence Indicator,VACCINATION 1-NEW OR WORSENED MUSCLE PAIN-DAY 1,VACCINATION 1-NEW OR WORSENED MUSCLE PAIN,OCCUR,NEW OR WORSENED MUSCLE PAIN,,,STUDY SUBJECT,VACCINATION 1,SINCE VACCINATION,1,VACCINE A,2021-11-03T10:50:00,2021-11-03T10:50:00,N,2021-11-03,2021-12-30,Y,N
62,ABC,ABC-1001,1001,1001,74,YEARS,F,WHITE,Y,VACCINE A VACCINE B,VAXAB,VACCINE A VACCINE B,VAXAB,VACCINE A,VACCINE A,VACCINE A,VACCINE A,VACCINE B,VACCINE B,2021-11-03,2021-11-03T10:50:00Z,2021-12-30,2021-12-30T09:10:00Z,2021-11-03,2021-12-29,2021-11-04,2021-11-04T18:01:09Z,2,DAY 2,2,VACCINATION 1,1,New or worsened muscle pain occurrence indicator,OCCNWMP,21,REACTOGENICITY,SYSTEMIC,,Y,Y,,,Occurrence Indicator,VACCINATION 1-NEW OR WORSENED MUSCLE PAIN-DAY 2,VACCINATION 1-NEW OR WORSENED MUSCLE PAIN,OCCUR,NEW OR WORSENED MUSCLE PAIN,,,STUDY SUBJECT,VACCINATION 1,,1,VACCINE A,2021-11-03T10:50:00,2021-11-03T10:50:00,Y,2021-11-03,2021-12-30,Y,Y
63,ABC,ABC-1001,1001,1001,74,YEARS,F,WHITE,Y,VACCINE A VACCINE B,VAXAB,VACCINE A VACCINE B,VAXAB,VACCINE A,VACCINE A,VACCINE A,VACCINE A,VACCINE B,VACCINE B,2021-11-03,2021-11-03T10:50:00Z,2021-12-30,2021-12-30T09:10:00Z,2021-11-03,2021-12-29,2021-11-05,2021-11-05T19:04:07Z,3,DAY 3,3,VACCINATION 1,1,New or worsened muscle pain occurrence indicator,OCCNWMP,21,REACTOGENICITY,SYSTEMIC,,N,Y,,,Occurrence Indicator,VACCINATION 1-NEW OR WORSENED MUSCLE PAIN-DAY 3,VACCINATION 1-NEW OR WORSENED MUSCLE PAIN,OCCUR,NEW OR WORSENED MUSCLE PAIN,,,STUDY SUBJECT,FOLLOW-UP,,1,VACCINE A,2021-11-03T10:50:00,2021-11-03T10:50:00,N,2021-11-03,2021-12-30,Y,N
64,ABC,ABC-1001,1001,1001,74,YEARS,F,WHITE,Y,VACCINE A VACCINE B,VAXAB,VACCINE A VACCINE B,VAXAB,VACCINE A,VACCINE A,VACCINE A,VACCINE A,VACCINE B,VACCINE B,2021-11-03,2021-11-03T10:50:00Z,2021-12-30,2021-12-30T09:10:00Z,2021-11-03,2021-12-29,2021-11-06,2021-11-06T18:00:33Z,4,DAY 4,4,VACCINATION 1,1,New or worsened muscle pain occurrence indicator,OCCNWMP,21,REACTOGENICITY,SYSTEMIC,,N,Y,,,Occurrence Indicator,VACCINATION 1-NEW OR WORSENED MUSCLE PAIN-DAY 4,VACCINATION 1-NEW OR WORSENED MUSCLE PAIN,OCCUR,NEW OR WORSENED MUSCLE PAIN,,,STUDY SUBJECT,FOLLOW-UP,,1,VACCINE A,2021-11-03T10:50:00,2021-11-03T10:50:00,N,2021-11-03,2021-12-30,Y,N
65,ABC,ABC-1001,1001,1001,74,YEARS,F,WHITE,Y,VACCINE A VACCINE B,VAXAB,VACCINE A VACCINE B,VAXAB,VACCINE A,VACCINE A,VACCINE A,VACCINE A,VACCINE B,VACCINE B,2021-11-03,2021-11-03T10:50:00Z,2021-12-30,2021-12-30T09:10:00Z,2021-11-03,2021-12-29,2021-11-07,2021-11-07T18:01:25Z,5,DAY 5,5,VACCINATION 1,1,New or worsened muscle pain occurrence indicator,OCCNWMP,21,REACTOGENICITY,SYSTEMIC,,N,Y,,,Occurrence Indicator,VACCINATION 1-NEW OR WORSENED MUSCLE PAIN-DAY 5,VACCINATION 1-NEW OR WORSENED MUSCLE PAIN,OCCUR,NEW OR WORSENED MUSCLE PAIN,,,STUDY SUBJECT,FOLLOW-UP,,1,VACCINE A,2021-11-03T10:50:00,2021-11-03T10:50:00,N,2021-11-03,2021-12-30,Y,N
66,ABC,ABC-1001,1001,1001,74,YEARS,F,WHITE,Y,VACCINE A VACCINE B,VAXAB,VACCINE A VACCINE B,VAXAB,VACCINE A,VACCINE A,VACCINE A,VACCINE A,VACCINE B,VACCINE B,2021-11-03,2021-11-03T10:50:00Z,2021-12-30,2021-12-30T09:10:00Z,2021-11-03,2021-12-29,2021-11-08,2021-11-08T18:00:26Z,6,DAY 6,6,VACCINATION 1,1,New or worsened muscle pain occurrence indicator,OCCNWMP,21,REACTOGENICITY,SYSTEMIC,,N,Y,,,Occurrence Indicator,VACCINATION 1-NEW OR WORSENED MUSCLE PAIN-DAY 6,VACCINATION 1-NEW OR WORSENED MUSCLE PAIN,OCCUR,NEW OR WORSENED MUSCLE PAIN,,,STUDY SUBJECT,FOLLOW-UP,,1,VACCINE A,2021-11-03T10:50:00,2021-11-03T10:50:00,N,2021-11-03,2021-12-30,Y,N
67,ABC,ABC-1001,1001,1001,74,YEARS,F,WHITE,Y,VACCINE A VACCINE B,VAXAB,VACCINE A VACCINE B,VAXAB,VACCINE A,VACCINE A,VACCINE A,VACCINE A,VACCINE B,VACCINE B,2021-11-03,2021-11-03T10:50:00Z,2021-12-30,2021-12-30T09:10:00Z,2021-11-03,2021-12-29,2021-11-09,2021-11-09T18:08:04Z,7,DAY 7,7,VACCINATION 1,1,New or worsened muscle pain occurrence indicator,OCCNWMP,21,REACTOGENICITY,SYSTEMIC,,N,Y,,,Occurrence Indicator,VACCINATION 1-NEW OR WORSENED MUSCLE PAIN-DAY 7,VACCINATION 1-NEW OR WORSENED MUSCLE PAIN,OCCUR,NEW OR WORSENED MUSCLE PAIN,,,STUDY SUBJECT,FOLLOW-UP,,1,VACCINE A,2021-11-03T10:50:00,2021-11-03T10:50:00,N,2021-11-03,2021-12-30,Y,N
68,ABC,ABC-1001,1001,1001,74,YEARS,F,WHITE,Y,VACCINE A VACCINE B,VAXAB,VACCINE A VACCINE B,VAXAB,VACCINE A,VACCINE A,VACCINE A,VACCINE A,VACCINE B,VACCINE B,2021-11-03,2021-11-03T10:50:00Z,2021-12-30,2021-12-30T09:10:00Z,2021-11-03,2021-12-29,2021-11-04,2021-11-04T18:01:09Z,2,DAY 2,2,VACCINATION 1,1,New or worsened muscle pain severity/intensity,SEVNWMP,28,REACTOGENICITY,SYSTEMIC,1,MILD,Y,Y,Y,Severity/Intensity,VACCINATION 1-NEW OR WORSENED MUSCLE PAIN-DAY 2,VACCINATION 1-NEW OR WORSENED MUSCLE PAIN,SEV,NEW OR WORSENED MUSCLE PAIN,,,STUDY SUBJECT,VACCINATION 1,,1,VACCINE A,2021-11-03T10:50:00,2021-11-03T10:50:00,MILD,2021-11-03,2021-12-30,Y,Y
69,ABC,ABC-1001,1001,1001,74,YEARS,F,WHITE,Y,VACCINE A VACCINE B,VAXAB,VACCINE A VACCINE B,VAXAB,VACCINE A,VACCINE A,VACCINE A,VACCINE A,VACCINE B,VACCINE B,2021-11-03,2021-11-03T10:50:00Z,2021-12-30,2021-12-30T09:10:00Z,2021-11-03,2021-12-29,2021-11-03,2021-11-03T18:00:23Z,1,DAY 1,1,VACCINATION 1,1,Pain at injection site occurrence indicator deltoid muscle left,OCPIS,15,REACTOGENICITY,ADMINISTRATION SITE,,N,Y,,,Occurrence Indicator,VACCINATION 1-DELTOID MUSCLE-LEFT-PAIN AT INJECTION SITE-DAY 1,VACCINATION 1-DELTOID MUSCLE-LEFT-PAIN AT INJECTION SITE,OCCUR,PAIN AT INJECTION SITE,,,STUDY SUBJECT,VACCINATION 1,SINCE VACCINATION,1,VACCINE A,2021-11-03T10:50:00,2021-11-03T10:50:00,N,2021-11-03,2021-12-30,Y,N
70,ABC,ABC-1001,1001,1001,74,YEARS,F,WHITE,Y,VACCINE A VACCINE B,VAXAB,VACCINE A VACCINE B,VAXAB,VACCINE A,VACCINE A,VACCINE A,VACCINE A,VACCINE B,VACCINE B,2021-11-03,2021-11-03T10:50:00Z,2021-12-30,2021-12-30T09:10:00Z,2021-11-03,2021-12-29,2021-11-04,2021-11-04T18:01:09Z,2,DAY 2,2,VACCINATION 1,1,Pain at injection site occurrence indicator deltoid muscle left,OCPIS,15,REACTOGENICITY,ADMINISTRATION SITE,,Y,Y,,,Occurrence Indicator,VACCINATION 1-DELTOID MUSCLE-LEFT-PAIN AT INJECTION SITE-DAY 2,VACCINATION 1-DELTOID MUSCLE-LEFT-PAIN AT INJECTION SITE,OCCUR,PAIN AT INJECTION SITE,,,STUDY SUBJECT,VACCINATION 1,,1,VACCINE A,2021-11-03T10:50:00,2021-11-03T10:50:00,Y,2021-11-03,2021-12-30,Y,Y
71,ABC,ABC-1001,1001,1001,74,YEARS,F,WHITE,Y,VACCINE A VACCINE B,VAXAB,VACCINE A VACCINE B,VAXAB,VACCINE A,VACCINE A,VACCINE A,VACCINE A,VACCINE B,VACCINE B,2021-11-03,2021-11-03T10:50:00Z,2021-12-30,2021-12-30T09:10:00Z,2021-11-03,2021-12-29,2021-11-05,2021-11-05T19:04:07Z,3,DAY 3,3,VACCINATION 1,1,Pain at injection site occurrence indicator deltoid muscle left,OCPIS,15,REACTOGENICITY,ADMINISTRATION SITE,,Y,Y,,,Occurrence Indicator,VACCINATION 1-DELTOID MUSCLE-LEFT-PAIN AT INJECTION SITE-DAY 3,VACCINATION 1-DELTOID MUSCLE-LEFT-PAIN AT INJECTION SITE,OCCUR,PAIN AT INJECTION SITE,,,STUDY SUBJECT,FOLLOW-UP,,1,VACCINE A,2021-11-03T10:50:00,2021-11-03T10:50:00,Y,2021-11-03,2021-12-30,Y,Y
72,ABC,ABC-1001,1001,1001,74,YEARS,F,WHITE,Y,VACCINE A VACCINE B,VAXAB,VACCINE A VACCINE B,VAXAB,VACCINE A,VACCINE A,VACCINE A,VACCINE A,VACCINE B,VACCINE B,2021-11-03,2021-11-03T10:50:00Z,2021-12-30,2021-12-30T09:10:00Z,2021-11-03,2021-12-29,2021-11-06,2021-11-06T18:00:33Z,4,DAY 4,4,VACCINATION 1,1,Pain at injection site occurrence indicator deltoid muscle left,OCPIS,15,REACTOGENICITY,ADMINISTRATION SITE,,Y,Y,,,Occurrence Indicator,VACCINATION 1-DELTOID MUSCLE-LEFT-PAIN AT INJECTION SITE-DAY 4,VACCINATION 1-DELTOID MUSCLE-LEFT-PAIN AT INJECTION SITE,OCCUR,PAIN AT INJECTION SITE,,,STUDY SUBJECT,FOLLOW-UP,,1,VACCINE A,2021-11-03T10:50:00,2021-11-03T10:50:00,Y,2021-11-03,2021-12-30,Y,Y
73,ABC,ABC-1001,1001,1001,74,YEARS,F,WHITE,Y,VACCINE A VACCINE B,VAXAB,VACCINE A VACCINE B,VAXAB,VACCINE A,VACCINE A,VACCINE A,VACCINE A,VACCINE B,VACCINE B,2021-11-03,2021-11-03T10:50:00Z,2021-12-30,2021-12-30T09:10:00Z,2021-11-03,2021-12-29,2021-11-07,2021-11-07T18:01:25Z,5,DAY 5,5,VACCINATION 1,1,Pain at injection site occurrence indicator deltoid muscle left,OCPIS,15,REACTOGENICITY,ADMINISTRATION SITE,,Y,Y,,,Occurrence Indicator,VACCINATION 1-DELTOID MUSCLE-LEFT-PAIN AT INJECTION SITE-DAY 5,VACCINATION 1-DELTOID MUSCLE-LEFT-PAIN AT INJECTION SITE,OCCUR,PAIN AT INJECTION SITE,,,STUDY SUBJECT,FOLLOW-UP,,1,VACCINE A,2021-11-03T10:50:00,2021-11-03T10:50:00,Y,2021-11-03,2021-12-30,Y,Y
74,ABC,ABC-1001,1001,1001,74,YEARS,F,WHITE,Y,VACCINE A VACCINE B,VAXAB,VACCINE A VACCINE B,VAXAB,VACCINE A,VACCINE A,VACCINE A,VACCINE A,VACCINE B,VACCINE B,2021-11-03,2021-11-03T10:50:00Z,2021-12-30,2021-12-30T09:10:00Z,2021-11-03,2021-12-29,2021-11-08,2021-11-08T18:00:26Z,6,DAY 6,6,VACCINATION 1,1,Pain at injection site occurrence indicator deltoid muscle left,OCPIS,15,REACTOGENICITY,ADMINISTRATION SITE,,N,Y,,,Occurrence Indicator,VACCINATION 1-DELTOID MUSCLE-LEFT-PAIN AT INJECTION SITE-DAY 6,VACCINATION 1-DELTOID MUSCLE-LEFT-PAIN AT INJECTION SITE,OCCUR,PAIN AT INJECTION SITE,,,STUDY SUBJECT,FOLLOW-UP,,1,VACCINE A,2021-11-03T10:50:00,2021-11-03T10:50:00,N,2021-11-03,2021-12-30,Y,N
75,ABC,ABC-1001,1001,1001,74,YEARS,F,WHITE,Y,VACCINE A VACCINE B,VAXAB,VACCINE A VACCINE B,VAXAB,VACCINE A,VACCINE A,VACCINE A,VACCINE A,VACCINE B,VACCINE B,2021-11-03,2021-11-03T10:50:00Z,2021-12-30,2021-12-30T09:10:00Z,2021-11-03,2021-12-29,2021-11-09,2021-11-09T18:08:04Z,7,DAY 7,7,VACCINATION 1,1,Pain at injection site occurrence indicator deltoid muscle left,OCPIS,15,REACTOGENICITY,ADMINISTRATION SITE,,N,Y,,,Occurrence Indicator,VACCINATION 1-DELTOID MUSCLE-LEFT-PAIN AT INJECTION SITE-DAY 7,VACCINATION 1-DELTOID MUSCLE-LEFT-PAIN AT INJECTION SITE,OCCUR,PAIN AT INJECTION SITE,,,STUDY SUBJECT,FOLLOW-UP,,1,VACCINE A,2021-11-03T10:50:00,2021-11-03T10:50:00,N,2021-11-03,2021-12-30,Y,N
76,ABC,ABC-1001,1001,1001,74,YEARS,F,WHITE,Y,VACCINE A VACCINE B,VAXAB,VACCINE A VACCINE B,VAXAB,VACCINE A,VACCINE A,VACCINE A,VACCINE A,VACCINE B,VACCINE B,2021-11-03,2021-11-03T10:50:00Z,2021-12-30,2021-12-30T09:10:00Z,2021-11-03,2021-12-29,2021-11-04,2021-11-04T18:01:09Z,2,DAY 2,2,VACCINATION 1,1,Pain at injection site severity/intensity deltoid muscle left,SEVPIS,23,REACTOGENICITY,ADMINISTRATION SITE,2,MODERATE,Y,Y,Y,Severity/Intensity,VACCINATION 1-DELTOID MUSCLE-LEFT-PAIN AT INJECTION SITE-DAY 2,VACCINATION 1-DELTOID MUSCLE-LEFT-PAIN AT INJECTION SITE,SEV,PAIN AT INJECTION SITE,,,STUDY SUBJECT,VACCINATION 1,,1,VACCINE A,2021-11-03T10:50:00,2021-11-03T10:50:00,MODERATE,2021-11-03,2021-12-30,Y,Y
77,ABC,ABC-1001,1001,1001,74,YEARS,F,WHITE,Y,VACCINE A VACCINE B,VAXAB,VACCINE A VACCINE B,VAXAB,VACCINE A,VACCINE A,VACCINE A,VACCINE A,VACCINE B,VACCINE B,2021-11-03,2021-11-03T10:50:00Z,2021-12-30,2021-12-30T09:10:00Z,2021-11-03,2021-12-29,2021-11-05,2021-11-05T19:04:07Z,3,DAY 3,3,VACCINATION 1,1,Pain at injection site severity/intensity deltoid muscle left,SEVPIS,23,REACTOGENICITY,ADMINISTRATION SITE,1,MILD,Y,,,Severity/Intensity,VACCINATION 1-DELTOID MUSCLE-LEFT-PAIN AT INJECTION SITE-DAY 3,VACCINATION 1-DELTOID MUSCLE-LEFT-PAIN AT INJECTION SITE,SEV,PAIN AT INJECTION SITE,,,STUDY SUBJECT,FOLLOW-UP,,1,VACCINE A,2021-11-03T10:50:00,2021-11-03T10:50:00,MILD,2021-11-03,2021-12-30,Y,Y
78,ABC,ABC-1001,1001,1001,74,YEARS,F,WHITE,Y,VACCINE A VACCINE B,VAXAB,VACCINE A VACCINE B,VAXAB,VACCINE A,VACCINE A,VACCINE A,VACCINE A,VACCINE B,VACCINE B,2021-11-03,2021-11-03T10:50:00Z,2021-12-30,2021-12-30T09:10:00Z,2021-11-03,2021-12-29,2021-11-06,2021-11-06T18:00:33Z,4,DAY 4,4,VACCINATION 1,1,Pain at injection site severity/intensity deltoid muscle left,SEVPIS,23,REACTOGENICITY,ADMINISTRATION SITE,1,MILD,Y,,,Severity/Intensity,VACCINATION 1-DELTOID MUSCLE-LEFT-PAIN AT INJECTION SITE-DAY 4,VACCINATION 1-DELTOID MUSCLE-LEFT-PAIN AT INJECTION SITE,SEV,PAIN AT INJECTION SITE,,,STUDY SUBJECT,FOLLOW-UP,,1,VACCINE A,2021-11-03T10:50:00,2021-11-03T10:50:00,MILD,2021-11-03,2021-12-30,Y,Y
79,ABC,ABC-1001,1001,1001,74,YEARS,F,WHITE,Y,VACCINE A VACCINE B,VAXAB,VACCINE A VACCINE B,VAXAB,VACCINE A,VACCINE A,VACCINE A,VACCINE A,VACCINE B,VACCINE B,2021-11-03,2021-11-03T10:50:00Z,2021-12-30,2021-12-30T09:10:00Z,2021-11-03,2021-12-29,2021-11-07,2021-11-07T18:01:25Z,5,DAY 5,5,VACCINATION 1,1,Pain at injection site severity/intensity deltoid muscle left,SEVPIS,23,REACTOGENICITY,ADMINISTRATION SITE,1,MILD,Y,,,Severity/Intensity,VACCINATION 1-DELTOID MUSCLE-LEFT-PAIN AT INJECTION SITE-DAY 5,VACCINATION 1-DELTOID MUSCLE-LEFT-PAIN AT INJECTION SITE,SEV,PAIN AT INJECTION SITE,,,STUDY SUBJECT,FOLLOW-UP,,1,VACCINE A,2021-11-03T10:50:00,2021-11-03T10:50:00,MILD,2021-11-03,2021-12-30,Y,Y
80,ABC,ABC-1001,1001,1001,74,YEARS,F,WHITE,Y,VACCINE A VACCINE B,VAXAB,VACCINE A VACCINE B,VAXAB,VACCINE A,VACCINE A,VACCINE A,VACCINE A,VACCINE B,VACCINE B,2021-11-03,2021-11-03T10:50:00Z,2021-12-30,2021-12-30T09:10:00Z,2021-11-03,2021-12-29,2021-11-04,2021-11-04T18:01:09Z,2,DAY 2,2,VACCINATION 1,1,Redness diameter deltoid muscle left,DIARE,2,REACTOGENICITY,ADMINISTRATION SITE,5.5,5.5,Y,Y,Y,Diameter,VACCINATION 1-DELTOID MUSCLE-LEFT-REDNESS-DAY 2,VACCINATION 1-DELTOID MUSCLE-LEFT-REDNESS,DIAMETER,REDNESS,,,STUDY SUBJECT,VACCINATION 1,,1,VACCINE A,2021-11-03T10:50:00,2021-11-03T10:50:00,11,2021-11-03,2021-12-30,Y,Y
81,ABC,ABC-1001,1001,1001,74,YEARS,F,WHITE,Y,VACCINE A VACCINE B,VAXAB,VACCINE A VACCINE B,VAXAB,VACCINE A,VACCINE A,VACCINE A,VACCINE A,VACCINE B,VACCINE B,2021-11-03,2021-11-03T10:50:00Z,2021-12-30,2021-12-30T09:10:00Z,2021-11-03,2021-12-29,2021-11-03,2021-11-03T18:00:23Z,1,DAY 1,1,VACCINATION 1,1,Redness occurrence indicator deltoid muscle left,OCISR,13,REACTOGENICITY,ADMINISTRATION SITE,,N,Y,,,,,,,,,,,VACCINATION 1,,1,VACCINE A,2021-11-03T10:50:00,2021-11-03T10:50:00,,2021-11-03,2021-12-30,Y,N
82,ABC,ABC-1001,1001,1001,74,YEARS,F,WHITE,Y,VACCINE A VACCINE B,VAXAB,VACCINE A VACCINE B,VAXAB,VACCINE A,VACCINE A,VACCINE A,VACCINE A,VACCINE B,VACCINE B,2021-11-03,2021-11-03T10:50:00Z,2021-12-30,2021-12-30T09:10:00Z,2021-11-03,2021-12-29,2021-11-04,2021-11-04T18:01:09Z,2,DAY 2,2,VACCINATION 1,1,Redness occurrence indicator deltoid muscle left,OCISR,13,REACTOGENICITY,ADMINISTRATION SITE,,Y,Y,,,,,,,,,,,VACCINATION 1,,1,VACCINE A,2021-11-03T10:50:00,2021-11-03T10:50:00,,2021-11-03,2021-12-30,Y,Y
83,ABC,ABC-1001,1001,1001,74,YEARS,F,WHITE,Y,VACCINE A VACCINE B,VAXAB,VACCINE A VACCINE B,VAXAB,VACCINE A,VACCINE A,VACCINE A,VACCINE A,VACCINE B,VACCINE B,2021-11-03,2021-11-03T10:50:00Z,2021-12-30,2021-12-30T09:10:00Z,2021-11-03,2021-12-29,2021-11-05,2021-11-05T19:04:07Z,3,DAY 3,3,VACCINATION 1,1,Redness occurrence indicator deltoid muscle left,OCISR,13,REACTOGENICITY,ADMINISTRATION SITE,,N,Y,,,,,,,,,,,FOLLOW-UP,,1,VACCINE A,2021-11-03T10:50:00,2021-11-03T10:50:00,,2021-11-03,2021-12-30,Y,N
84,ABC,ABC-1001,1001,1001,74,YEARS,F,WHITE,Y,VACCINE A VACCINE B,VAXAB,VACCINE A VACCINE B,VAXAB,VACCINE A,VACCINE A,VACCINE A,VACCINE A,VACCINE B,VACCINE B,2021-11-03,2021-11-03T10:50:00Z,2021-12-30,2021-12-30T09:10:00Z,2021-11-03,2021-12-29,2021-11-06,2021-11-06T18:00:33Z,4,DAY 4,4,VACCINATION 1,1,Redness occurrence indicator deltoid muscle left,OCISR,13,REACTOGENICITY,ADMINISTRATION SITE,,N,Y,,,,,,,,,,,FOLLOW-UP,,1,VACCINE A,2021-11-03T10:50:00,2021-11-03T10:50:00,,2021-11-03,2021-12-30,Y,N
85,ABC,ABC-1001,1001,1001,74,YEARS,F,WHITE,Y,VACCINE A VACCINE B,VAXAB,VACCINE A VACCINE B,VAXAB,VACCINE A,VACCINE A,VACCINE A,VACCINE A,VACCINE B,VACCINE B,2021-11-03,2021-11-03T10:50:00Z,2021-12-30,2021-12-30T09:10:00Z,2021-11-03,2021-12-29,2021-11-07,2021-11-07T18:01:25Z,5,DAY 5,5,VACCINATION 1,1,Redness occurrence indicator deltoid muscle left,OCISR,13,REACTOGENICITY,ADMINISTRATION SITE,,N,Y,,,,,,,,,,,FOLLOW-UP,,1,VACCINE A,2021-11-03T10:50:00,2021-11-03T10:50:00,,2021-11-03,2021-12-30,Y,N
86,ABC,ABC-1001,1001,1001,74,YEARS,F,WHITE,Y,VACCINE A VACCINE B,VAXAB,VACCINE A VACCINE B,VAXAB,VACCINE A,VACCINE A,VACCINE A,VACCINE A,VACCINE B,VACCINE B,2021-11-03,2021-11-03T10:50:00Z,2021-12-30,2021-12-30T09:10:00Z,2021-11-03,2021-12-29,2021-11-08,2021-11-08T18:00:26Z,6,DAY 6,6,VACCINATION 1,1,Redness occurrence indicator deltoid muscle left,OCISR,13,REACTOGENICITY,ADMINISTRATION SITE,,N,Y,,,,,,,,,,,FOLLOW-UP,,1,VACCINE A,2021-11-03T10:50:00,2021-11-03T10:50:00,,2021-11-03,2021-12-30,Y,N
87,ABC,ABC-1001,1001,1001,74,YEARS,F,WHITE,Y,VACCINE A VACCINE B,VAXAB,VACCINE A VACCINE B,VAXAB,VACCINE A,VACCINE A,VACCINE A,VACCINE A,VACCINE B,VACCINE B,2021-11-03,2021-11-03T10:50:00Z,2021-12-30,2021-12-30T09:10:00Z,2021-11-03,2021-12-29,2021-11-09,2021-11-09T18:08:04Z,7,DAY 7,7,VACCINATION 1,1,Redness occurrence indicator deltoid muscle left,OCISR,13,REACTOGENICITY,ADMINISTRATION SITE,,N,Y,,,,,,,,,,,FOLLOW-UP,,1,VACCINE A,2021-11-03T10:50:00,2021-11-03T10:50:00,,2021-11-03,2021-12-30,Y,N
88,ABC,ABC-1001,1001,1001,74,YEARS,F,WHITE,Y,VACCINE A VACCINE B,VAXAB,VACCINE A VACCINE B,VAXAB,VACCINE A,VACCINE A,VACCINE A,VACCINE A,VACCINE B,VACCINE B,2021-11-03,2021-11-03T10:50:00Z,2021-12-30,2021-12-30T09:10:00Z,2021-11-03,2021-12-29,2021-11-03,2021-11-03T18:00:23Z,1,DAY 1,1,VACCINATION 1,1,Swelling diameter deltoid muscle left,DIASWEL,32,REACTOGENICITY,ADMINISTRATION SITE,0.5,0.5,Y,,,Diameter,VACCINATION 1-DELTOID MUSCLE-LEFT-SWELLING-DAY 1,VACCINATION 1-DELTOID MUSCLE-LEFT-SWELLING,DIAMETER,SWELLING,,,STUDY SUBJECT,VACCINATION 1,SINCE VACCINATION,1,VACCINE A,2021-11-03T10:50:00,2021-11-03T10:50:00,1,2021-11-03,2021-12-30,Y,N
89,ABC,ABC-1001,1001,1001,74,YEARS,F,WHITE,Y,VACCINE A VACCINE B,VAXAB,VACCINE A VACCINE B,VAXAB,VACCINE A,VACCINE A,VACCINE A,VACCINE A,VACCINE B,VACCINE B,2021-11-03,2021-11-03T10:50:00Z,2021-12-30,2021-12-30T09:10:00Z,2021-11-03,2021-12-29,2021-11-04,2021-11-04T18:01:09Z,2,DAY 2,2,VACCINATION 1,1,Swelling diameter deltoid muscle left,DIASWEL,32,REACTOGENICITY,ADMINISTRATION SITE,5.5,5.5,Y,Y,Y,Diameter,VACCINATION 1-DELTOID MUSCLE-LEFT-SWELLING-DAY 2,VACCINATION 1-DELTOID MUSCLE-LEFT-SWELLING,DIAMETER,SWELLING,,,STUDY SUBJECT,VACCINATION 1,,1,VACCINE A,2021-11-03T10:50:00,2021-11-03T10:50:00,11,2021-11-03,2021-12-30,Y,Y
90,ABC,ABC-1001,1001,1001,74,YEARS,F,WHITE,Y,VACCINE A VACCINE B,VAXAB,VACCINE A VACCINE B,VAXAB,VACCINE A,VACCINE A,VACCINE A,VACCINE A,VACCINE B,VACCINE B,2021-11-03,2021-11-03T10:50:00Z,2021-12-30,2021-12-30T09:10:00Z,2021-11-03,2021-12-29,2021-11-05,2021-11-05T19:04:07Z,3,DAY 3,3,VACCINATION 1,1,Swelling diameter deltoid muscle left,DIASWEL,32,REACTOGENICITY,ADMINISTRATION SITE,4,4,Y,,,Diameter,VACCINATION 1-DELTOID MUSCLE-LEFT-SWELLING-DAY 3,VACCINATION 1-DELTOID MUSCLE-LEFT-SWELLING,DIAMETER,SWELLING,,,STUDY SUBJECT,FOLLOW-UP,,1,VACCINE A,2021-11-03T10:50:00,2021-11-03T10:50:00,8,2021-11-03,2021-12-30,Y,Y
91,ABC,ABC-1001,1001,1001,74,YEARS,F,WHITE,Y,VACCINE A VACCINE B,VAXAB,VACCINE A VACCINE B,VAXAB,VACCINE A,VACCINE A,VACCINE A,VACCINE A,VACCINE B,VACCINE B,2021-11-03,2021-11-03T10:50:00Z,2021-12-30,2021-12-30T09:10:00Z,2021-11-03,2021-12-29,2021-11-06,2021-11-06T18:00:33Z,4,DAY 4,4,VACCINATION 1,1,Swelling diameter deltoid muscle left,DIASWEL,32,REACTOGENICITY,ADMINISTRATION SITE,4,4,Y,,,Diameter,VACCINATION 1-DELTOID MUSCLE-LEFT-SWELLING-DAY 4,VACCINATION 1-DELTOID MUSCLE-LEFT-SWELLING,DIAMETER,SWELLING,,,STUDY SUBJECT,FOLLOW-UP,,1,VACCINE A,2021-11-03T10:50:00,2021-11-03T10:50:00,8,2021-11-03,2021-12-30,Y,Y
92,ABC,ABC-1001,1001,1001,74,YEARS,F,WHITE,Y,VACCINE A VACCINE B,VAXAB,VACCINE A VACCINE B,VAXAB,VACCINE A,VACCINE A,VACCINE A,VACCINE A,VACCINE B,VACCINE B,2021-11-03,2021-11-03T10:50:00Z,2021-12-30,2021-12-30T09:10:00Z,2021-11-03,2021-12-29,2021-11-07,2021-11-07T18:01:25Z,5,DAY 5,5,VACCINATION 1,1,Swelling diameter deltoid muscle left,DIASWEL,32,REACTOGENICITY,ADMINISTRATION SITE,3,3,Y,,,Diameter,VACCINATION 1-DELTOID MUSCLE-LEFT-SWELLING-DAY 5,VACCINATION 1-DELTOID MUSCLE-LEFT-SWELLING,DIAMETER,SWELLING,,,STUDY SUBJECT,FOLLOW-UP,,1,VACCINE A,2021-11-03T10:50:00,2021-11-03T10:50:00,6,2021-11-03,2021-12-30,Y,Y
93,ABC,ABC-1001,1001,1001,74,YEARS,F,WHITE,Y,VACCINE A VACCINE B,VAXAB,VACCINE A VACCINE B,VAXAB,VACCINE A,VACCINE A,VACCINE A,VACCINE A,VACCINE B,VACCINE B,2021-11-03,2021-11-03T10:50:00Z,2021-12-30,2021-12-30T09:10:00Z,2021-11-03,2021-12-29,2021-11-08,2021-11-08T18:00:26Z,6,DAY 6,6,VACCINATION 1,1,Swelling diameter deltoid muscle left,DIASWEL,32,REACTOGENICITY,ADMINISTRATION SITE,3.5,3.5,Y,,,Diameter,VACCINATION 1-DELTOID MUSCLE-LEFT-SWELLING-DAY 6,VACCINATION 1-DELTOID MUSCLE-LEFT-SWELLING,DIAMETER,SWELLING,,,STUDY SUBJECT,FOLLOW-UP,,1,VACCINE A,2021-11-03T10:50:00,2021-11-03T10:50:00,7,2021-11-03,2021-12-30,Y,Y
94,ABC,ABC-1001,1001,1001,74,YEARS,F,WHITE,Y,VACCINE A VACCINE B,VAXAB,VACCINE A VACCINE B,VAXAB,VACCINE A,VACCINE A,VACCINE A,VACCINE A,VACCINE B,VACCINE B,2021-11-03,2021-11-03T10:50:00Z,2021-12-30,2021-12-30T09:10:00Z,2021-11-03,2021-12-29,2021-11-09,2021-11-09T18:08:04Z,7,DAY 7,7,VACCINATION 1,1,Swelling diameter deltoid muscle left,DIASWEL,32,REACTOGENICITY,ADMINISTRATION SITE,2,2,Y,,,Diameter,VACCINATION 1-DELTOID MUSCLE-LEFT-SWELLING-DAY 7,VACCINATION 1-DELTOID MUSCLE-LEFT-SWELLING,DIAMETER,SWELLING,,,STUDY SUBJECT,FOLLOW-UP,,1,VACCINE A,2021-11-03T10:50:00,2021-11-03T10:50:00,4,2021-11-03,2021-12-30,Y,N
95,ABC,ABC-1001,1001,1001,74,YEARS,F,WHITE,Y,VACCINE A VACCINE B,VAXAB,VACCINE A VACCINE B,VAXAB,VACCINE A,VACCINE A,VACCINE A,VACCINE A,VACCINE B,VACCINE B,2021-11-03,2021-11-03T10:50:00Z,2021-12-30,2021-12-30T09:10:00Z,2021-11-03,2021-12-29,2021-11-03,2021-11-03T18:00:23Z,1,DAY 1,1,VACCINATION 1,1,Swelling occurrence indicator deltoid muscle left,OCINS,14,REACTOGENICITY,ADMINISTRATION SITE,,Y,Y,,,,,,,,,,,VACCINATION 1,,1,VACCINE A,2021-11-03T10:50:00,2021-11-03T10:50:00,,2021-11-03,2021-12-30,Y,Y
96,ABC,ABC-1001,1001,1001,74,YEARS,F,WHITE,Y,VACCINE A VACCINE B,VAXAB,VACCINE A VACCINE B,VAXAB,VACCINE A,VACCINE A,VACCINE A,VACCINE A,VACCINE B,VACCINE B,2021-11-03,2021-11-03T10:50:00Z,2021-12-30,2021-12-30T09:10:00Z,2021-11-03,2021-12-29,2021-11-04,2021-11-04T18:01:09Z,2,DAY 2,2,VACCINATION 1,1,Swelling occurrence indicator deltoid muscle left,OCINS,14,REACTOGENICITY,ADMINISTRATION SITE,,Y,Y,,,,,,,,,,,VACCINATION 1,,1,VACCINE A,2021-11-03T10:50:00,2021-11-03T10:50:00,,2021-11-03,2021-12-30,Y,Y
97,ABC,ABC-1001,1001,1001,74,YEARS,F,WHITE,Y,VACCINE A VACCINE B,VAXAB,VACCINE A VACCINE B,VAXAB,VACCINE A,VACCINE A,VACCINE A,VACCINE A,VACCINE B,VACCINE B,2021-11-03,2021-11-03T10:50:00Z,2021-12-30,2021-12-30T09:10:00Z,2021-11-03,2021-12-29,2021-11-05,2021-11-05T19:04:07Z,3,DAY 3,3,VACCINATION 1,1,Swelling occurrence indicator deltoid muscle left,OCINS,14,REACTOGENICITY,ADMINISTRATION SITE,,Y,Y,,,,,,,,,,,FOLLOW-UP,,1,VACCINE A,2021-11-03T10:50:00,2021-11-03T10:50:00,,2021-11-03,2021-12-30,Y,Y
98,ABC,ABC-1001,1001,1001,74,YEARS,F,WHITE,Y,VACCINE A VACCINE B,VAXAB,VACCINE A VACCINE B,VAXAB,VACCINE A,VACCINE A,VACCINE A,VACCINE A,VACCINE B,VACCINE B,2021-11-03,2021-11-03T10:50:00Z,2021-12-30,2021-12-30T09:10:00Z,2021-11-03,2021-12-29,2021-11-06,2021-11-06T18:00:33Z,4,DAY 4,4,VACCINATION 1,1,Swelling occurrence indicator deltoid muscle left,OCINS,14,REACTOGENICITY,ADMINISTRATION SITE,,Y,Y,,,,,,,,,,,FOLLOW-UP,,1,VACCINE A,2021-11-03T10:50:00,2021-11-03T10:50:00,,2021-11-03,2021-12-30,Y,Y
99,ABC,ABC-1001,1001,1001,74,YEARS,F,WHITE,Y,VACCINE A VACCINE B,VAXAB,VACCINE A VACCINE B,VAXAB,VACCINE A,VACCINE A,VACCINE A,VACCINE A,VACCINE B,VACCINE B,2021-11-03,2021-11-03T10:50:00Z,2021-12-30,2021-12-30T09:10:00Z,2021-11-03,2021-12-29,2021-11-07,2021-11-07T18:01:25Z,5,DAY 5,5,VACCINATION 1,1,Swelling occurrence indicator deltoid muscle left,OCINS,14,REACTOGENICITY,ADMINISTRATION SITE,,Y,Y,,,,,,,,,,,FOLLOW-UP,,1,VACCINE A,2021-11-03T10:50:00,2021-11-03T10:50:00,,2021-11-03,2021-12-30,Y,Y
100,ABC,ABC-1001,1001,1001,74,YEARS,F,WHITE,Y,VACCINE A VACCINE B,VAXAB,VACCINE A VACCINE B,VAXAB,VACCINE A,VACCINE A,VACCINE A,VACCINE A,VACCINE B,VACCINE B,2021-11-03,2021-11-03T10:50:00Z,2021-12-30,2021-12-30T09:10:00Z,2021-11-03,2021-12-29,2021-11-08,2021-11-08T18:00:26Z,6,DAY 6,6,VACCINATION 1,1,Swelling occurrence indicator deltoid muscle left,OCINS,14,REACTOGENICITY,ADMINISTRATION SITE,,Y,Y,,,,,,,,,,,FOLLOW-UP,,1,VACCINE A,2021-11-03T10:50:00,2021-11-03T10:50:00,,2021-11-03,2021-12-30,Y,Y
101,ABC,ABC-1001,1001,1001,74,YEARS,F,WHITE,Y,VACCINE A VACCINE B,VAXAB,VACCINE A VACCINE B,VAXAB,VACCINE A,VACCINE A,VACCINE A,VACCINE A,VACCINE B,VACCINE B,2021-11-03,2021-11-03T10:50:00Z,2021-12-30,2021-12-30T09:10:00Z,2021-11-03,2021-12-29,2021-11-09,2021-11-09T18:08:04Z,7,DAY 7,7,VACCINATION 1,1,Swelling occurrence indicator deltoid muscle left,OCINS,14,REACTOGENICITY,ADMINISTRATION SITE,,Y,Y,,,,,,,,,,,FOLLOW-UP,,1,VACCINE A,2021-11-03T10:50:00,2021-11-03T10:50:00,,2021-11-03,2021-12-30,Y,Y
102,ABC,ABC-1001,1001,1001,74,YEARS,F,WHITE,Y,VACCINE A VACCINE B,VAXAB,VACCINE A VACCINE B,VAXAB,VACCINE A,VACCINE A,VACCINE A,VACCINE A,VACCINE B,VACCINE B,2021-11-03,2021-11-03T10:50:00Z,2021-12-30,2021-12-30T09:10:00Z,2021-11-03,2021-12-29,2021-11-03,2021-11-03T18:00:23Z,1,DAY 1,1,VACCINATION 1,1,Vomiting occurrence indicator,OCCVOM,31,REACTOGENICITY,SYSTEMIC,,N,Y,,,Occurrence Indicator,VACCINATION 1-VOMITING-DAY 1,VACCINATION 1-VOMITING,OCCUR,VOMITING,,,STUDY SUBJECT,VACCINATION 1,SINCE VACCINATION,1,VACCINE A,2021-11-03T10:50:00,2021-11-03T10:50:00,N,2021-11-03,2021-12-30,N,N
103,ABC,ABC-1001,1001,1001,74,YEARS,F,WHITE,Y,VACCINE A VACCINE B,VAXAB,VACCINE A VACCINE B,VAXAB,VACCINE A,VACCINE A,VACCINE A,VACCINE A,VACCINE B,VACCINE B,2021-11-03,2021-11-03T10:50:00Z,2021-12-30,2021-12-30T09:10:00Z,2021-11-03,2021-12-29,2021-11-04,2021-11-04T18:01:09Z,2,DAY 2,2,VACCINATION 1,1,Vomiting occurrence indicator,OCCVOM,31,REACTOGENICITY,SYSTEMIC,,N,Y,,,Occurrence Indicator,VACCINATION 1-VOMITING-DAY 2,VACCINATION 1-VOMITING,OCCUR,VOMITING,,,STUDY SUBJECT,VACCINATION 1,,1,VACCINE A,2021-11-03T10:50:00,2021-11-03T10:50:00,N,2021-11-03,2021-12-30,N,N
104,ABC,ABC-1001,1001,1001,74,YEARS,F,WHITE,Y,VACCINE A VACCINE B,VAXAB,VACCINE A VACCINE B,VAXAB,VACCINE A,VACCINE A,VACCINE A,VACCINE A,VACCINE B,VACCINE B,2021-11-03,2021-11-03T10:50:00Z,2021-12-30,2021-12-30T09:10:00Z,2021-11-03,2021-12-29,2021-11-05,2021-11-05T19:04:07Z,3,DAY 3,3,VACCINATION 1,1,Vomiting occurrence indicator,OCCVOM,31,REACTOGENICITY,SYSTEMIC,,N,Y,,,Occurrence Indicator,VACCINATION 1-VOMITING-DAY 3,VACCINATION 1-VOMITING,OCCUR,VOMITING,,,STUDY SUBJECT,FOLLOW-UP,,1,VACCINE A,2021-11-03T10:50:00,2021-11-03T10:50:00,N,2021-11-03,2021-12-30,N,N
105,ABC,ABC-1001,1001,1001,74,YEARS,F,WHITE,Y,VACCINE A VACCINE B,VAXAB,VACCINE A VACCINE B,VAXAB,VACCINE A,VACCINE A,VACCINE A,VACCINE A,VACCINE B,VACCINE B,2021-11-03,2021-11-03T10:50:00Z,2021-12-30,2021-12-30T09:10:00Z,2021-11-03,2021-12-29,2021-11-06,2021-11-06T18:00:33Z,4,DAY 4,4,VACCINATION 1,1,Vomiting occurrence indicator,OCCVOM,31,REACTOGENICITY,SYSTEMIC,,N,Y,,,Occurrence Indicator,VACCINATION 1-VOMITING-DAY 4,VACCINATION 1-VOMITING,OCCUR,VOMITING,,,STUDY SUBJECT,FOLLOW-UP,,1,VACCINE A,2021-11-03T10:50:00,2021-11-03T10:50:00,N,2021-11-03,2021-12-30,N,N
106,ABC,ABC-1001,1001,1001,74,YEARS,F,WHITE,Y,VACCINE A VACCINE B,VAXAB,VACCINE A VACCINE B,VAXAB,VACCINE A,VACCINE A,VACCINE A,VACCINE A,VACCINE B,VACCINE B,2021-11-03,2021-11-03T10:50:00Z,2021-12-30,2021-12-30T09:10:00Z,2021-11-03,2021-12-29,2021-11-07,2021-11-07T18:01:25Z,5,DAY 5,5,VACCINATION 1,1,Vomiting occurrence indicator,OCCVOM,31,REACTOGENICITY,SYSTEMIC,,N,Y,,,Occurrence Indicator,VACCINATION 1-VOMITING-DAY 5,VACCINATION 1-VOMITING,OCCUR,VOMITING,,,STUDY SUBJECT,FOLLOW-UP,,1,VACCINE A,2021-11-03T10:50:00,2021-11-03T10:50:00,N,2021-11-03,2021-12-30,N,N
107,ABC,ABC-1001,1001,1001,74,YEARS,F,WHITE,Y,VACCINE A VACCINE B,VAXAB,VACCINE A VACCINE B,VAXAB,VACCINE A,VACCINE A,VACCINE A,VACCINE A,VACCINE B,VACCINE B,2021-11-03,2021-11-03T10:50:00Z,2021-12-30,2021-12-30T09:10:00Z,2021-11-03,2021-12-29,2021-11-08,2021-11-08T18:00:26Z,6,DAY 6,6,VACCINATION 1,1,Vomiting occurrence indicator,OCCVOM,31,REACTOGENICITY,SYSTEMIC,,N,Y,,,Occurrence Indicator,VACCINATION 1-VOMITING-DAY 6,VACCINATION 1-VOMITING,OCCUR,VOMITING,,,STUDY SUBJECT,FOLLOW-UP,,1,VACCINE A,2021-11-03T10:50:00,2021-11-03T10:50:00,N,2021-11-03,2021-12-30,N,N
108,ABC,ABC-1001,1001,1001,74,YEARS,F,WHITE,Y,VACCINE A VACCINE B,VAXAB,VACCINE A VACCINE B,VAXAB,VACCINE A,VACCINE A,VACCINE A,VACCINE A,VACCINE B,VACCINE B,2021-11-03,2021-11-03T10:50:00Z,2021-12-30,2021-12-30T09:10:00Z,2021-11-03,2021-12-29,2021-11-09,2021-11-09T18:08:04Z,7,DAY 7,7,VACCINATION 1,1,Vomiting occurrence indicator,OCCVOM,31,REACTOGENICITY,SYSTEMIC,,N,Y,,,Occurrence Indicator,VACCINATION 1-VOMITING-DAY 7,VACCINATION 1-VOMITING,OCCUR,VOMITING,,,STUDY SUBJECT,FOLLOW-UP,,1,VACCINE A,2021-11-03T10:50:00,2021-11-03T10:50:00,N,2021-11-03,2021-12-30,N,N
109,ABC,ABC-1001,1001,1001,74,YEARS,F,WHITE,Y,VACCINE A VACCINE B,VAXAB,VACCINE A VACCINE B,VAXAB,VACCINE B,VACCINE B,VACCINE A,VACCINE A,VACCINE B,VACCINE B,2021-11-03,2021-11-03T10:50:00Z,2021-12-30,2021-12-30T09:10:00Z,2021-12-30,2022-04-27,2021-12-30,,58,DAY 1,1,VACCINATION 2,2,Chills occurrence indicator,OCCHILLS,18,REACTOGENICITY,SYSTEMIC,,,Y,,,Occurrence Indicator,VACCINATION 2-CHILLS-DAY 1,VACCINATION 2-CHILLS,OCCUR,CHILLS,NOT DONE,SUBJECT DID NOT COMPLETE ELECTRONIC DIARY,,VACCINATION 2,SINCE VACCINATION,1,VACCINE B,2021-12-30T09:10:00,2021-12-30T09:10:00,,2021-11-03,2021-12-30,,
110,ABC,ABC-1001,1001,1001,74,YEARS,F,WHITE,Y,VACCINE A VACCINE B,VAXAB,VACCINE A VACCINE B,VAXAB,VACCINE B,VACCINE B,VACCINE A,VACCINE A,VACCINE B,VACCINE B,2021-11-03,2021-11-03T10:50:00Z,2021-12-30,2021-12-30T09:10:00Z,2021-12-30,2022-04-27,2021-12-31,,59,DAY 2,2,VACCINATION 2,2,Chills occurrence indicator,OCCHILLS,18,REACTOGENICITY,SYSTEMIC,,,Y,,,Occurrence Indicator,VACCINATION 2-CHILLS-DAY 2,VACCINATION 2-CHILLS,OCCUR,CHILLS,NOT DONE,SUBJECT DID NOT COMPLETE ELECTRONIC DIARY,,VACCINATION 2,,1,VACCINE B,2021-12-30T09:10:00,2021-12-30T09:10:00,,2021-11-03,2021-12-30,,
111,ABC,ABC-1001,1001,1001,74,YEARS,F,WHITE,Y,VACCINE A VACCINE B,VAXAB,VACCINE A VACCINE B,VAXAB,VACCINE B,VACCINE B,VACCINE A,VACCINE A,VACCINE B,VACCINE B,2021-11-03,2021-11-03T10:50:00Z,2021-12-30,2021-12-30T09:10:00Z,2021-12-30,2022-04-27,2022-01-01,,60,DAY 3,3,VACCINATION 2,2,Chills occurrence indicator,OCCHILLS,18,REACTOGENICITY,SYSTEMIC,,,Y,,,Occurrence Indicator,VACCINATION 2-CHILLS-DAY 3,VACCINATION 2-CHILLS,OCCUR,CHILLS,NOT DONE,SUBJECT DID NOT COMPLETE ELECTRONIC DIARY,,VACCINATION 2,,1,VACCINE B,2021-12-30T09:10:00,2021-12-30T09:10:00,,2021-11-03,2021-12-30,,
112,ABC,ABC-1001,1001,1001,74,YEARS,F,WHITE,Y,VACCINE A VACCINE B,VAXAB,VACCINE A VACCINE B,VAXAB,VACCINE B,VACCINE B,VACCINE A,VACCINE A,VACCINE B,VACCINE B,2021-11-03,2021-11-03T10:50:00Z,2021-12-30,2021-12-30T09:10:00Z,2021-12-30,2022-04-27,2022-01-02,,61,DAY 4,4,VACCINATION 2,2,Chills occurrence indicator,OCCHILLS,18,REACTOGENICITY,SYSTEMIC,,,Y,,,Occurrence Indicator,VACCINATION 2-CHILLS-DAY 4,VACCINATION 2-CHILLS,OCCUR,CHILLS,NOT DONE,SUBJECT DID NOT COMPLETE ELECTRONIC DIARY,,VACCINATION 2,,1,VACCINE B,2021-12-30T09:10:00,2021-12-30T09:10:00,,2021-11-03,2021-12-30,,
113,ABC,ABC-1001,1001,1001,74,YEARS,F,WHITE,Y,VACCINE A VACCINE B,VAXAB,VACCINE A VACCINE B,VAXAB,VACCINE B,VACCINE B,VACCINE A,VACCINE A,VACCINE B,VACCINE B,2021-11-03,2021-11-03T10:50:00Z,2021-12-30,2021-12-30T09:10:00Z,2021-12-30,2022-04-27,2022-01-03,,62,DAY 5,5,VACCINATION 2,2,Chills occurrence indicator,OCCHILLS,18,REACTOGENICITY,SYSTEMIC,,,Y,,,Occurrence Indicator,VACCINATION 2-CHILLS-DAY 5,VACCINATION 2-CHILLS,OCCUR,CHILLS,NOT DONE,SUBJECT DID NOT COMPLETE ELECTRONIC DIARY,,VACCINATION 2,,1,VACCINE B,2021-12-30T09:10:00,2021-12-30T09:10:00,,2021-11-03,2021-12-30,,
114,ABC,ABC-1001,1001,1001,74,YEARS,F,WHITE,Y,VACCINE A VACCINE B,VAXAB,VACCINE A VACCINE B,VAXAB,VACCINE B,VACCINE B,VACCINE A,VACCINE A,VACCINE B,VACCINE B,2021-11-03,2021-11-03T10:50:00Z,2021-12-30,2021-12-30T09:10:00Z,2021-12-30,2022-04-27,2022-01-04,,63,DAY 6,6,VACCINATION 2,2,Chills occurrence indicator,OCCHILLS,18,REACTOGENICITY,SYSTEMIC,,,Y,,,Occurrence Indicator,VACCINATION 2-CHILLS-DAY 6,VACCINATION 2-CHILLS,OCCUR,CHILLS,NOT DONE,SUBJECT DID NOT COMPLETE ELECTRONIC DIARY,,VACCINATION 2,,1,VACCINE B,2021-12-30T09:10:00,2021-12-30T09:10:00,,2021-11-03,2021-12-30,,
115,ABC,ABC-1001,1001,1001,74,YEARS,F,WHITE,Y,VACCINE A VACCINE B,VAXAB,VACCINE A VACCINE B,VAXAB,VACCINE B,VACCINE B,VACCINE A,VACCINE A,VACCINE B,VACCINE B,2021-11-03,2021-11-03T10:50:00Z,2021-12-30,2021-12-30T09:10:00Z,2021-12-30,2022-04-27,2022-01-05,,64,DAY 7,7,VACCINATION 2,2,Chills occurrence indicator,OCCHILLS,18,REACTOGENICITY,SYSTEMIC,,,Y,,,Occurrence Indicator,VACCINATION 2-CHILLS-DAY 7,VACCINATION 2-CHILLS,OCCUR,CHILLS,NOT DONE,SUBJECT DID NOT COMPLETE ELECTRONIC DIARY,,VACCINATION 2,,1,VACCINE B,2021-12-30T09:10:00,2021-12-30T09:10:00,,2021-11-03,2021-12-30,,
116,ABC,ABC-1001,1001,1001,74,YEARS,F,WHITE,Y,VACCINE A VACCINE B,VAXAB,VACCINE A VACCINE B,VAXAB,VACCINE B,VACCINE B,VACCINE A,VACCINE A,VACCINE B,VACCINE B,2021-11-03,2021-11-03T10:50:00Z,2021-12-30,2021-12-30T09:10:00Z,2021-12-30,2022-04-27,2021-12-30,,58,DAY 1,1,VACCINATION 2,2,Diarrhea occurrence indicator,OCDIAR,19,REACTOGENICITY,SYSTEMIC,,,Y,,,Occurrence Indicator,VACCINATION 2-DIARRHEA-DAY 1,VACCINATION 2-DIARRHEA,OCCUR,DIARRHEA,NOT DONE,SUBJECT DID NOT COMPLETE ELECTRONIC DIARY,,VACCINATION 2,SINCE VACCINATION,1,VACCINE B,2021-12-30T09:10:00,2021-12-30T09:10:00,,2021-11-03,2021-12-30,,
117,ABC,ABC-1001,1001,1001,74,YEARS,F,WHITE,Y,VACCINE A VACCINE B,VAXAB,VACCINE A VACCINE B,VAXAB,VACCINE B,VACCINE B,VACCINE A,VACCINE A,VACCINE B,VACCINE B,2021-11-03,2021-11-03T10:50:00Z,2021-12-30,2021-12-30T09:10:00Z,2021-12-30,2022-04-27,2021-12-31,,59,DAY 2,2,VACCINATION 2,2,Diarrhea occurrence indicator,OCDIAR,19,REACTOGENICITY,SYSTEMIC,,,Y,,,Occurrence Indicator,VACCINATION 2-DIARRHEA-DAY 2,VACCINATION 2-DIARRHEA,OCCUR,DIARRHEA,NOT DONE,SUBJECT DID NOT COMPLETE ELECTRONIC DIARY,,VACCINATION 2,,1,VACCINE B,2021-12-30T09:10:00,2021-12-30T09:10:00,,2021-11-03,2021-12-30,,
118,ABC,ABC-1001,1001,1001,74,YEARS,F,WHITE,Y,VACCINE A VACCINE B,VAXAB,VACCINE A VACCINE B,VAXAB,VACCINE B,VACCINE B,VACCINE A,VACCINE A,VACCINE B,VACCINE B,2021-11-03,2021-11-03T10:50:00Z,2021-12-30,2021-12-30T09:10:00Z,2021-12-30,2022-04-27,2022-01-01,,60,DAY 3,3,VACCINATION 2,2,Diarrhea occurrence indicator,OCDIAR,19,REACTOGENICITY,SYSTEMIC,,,Y,,,Occurrence Indicator,VACCINATION 2-DIARRHEA-DAY 3,VACCINATION 2-DIARRHEA,OCCUR,DIARRHEA,NOT DONE,SUBJECT DID NOT COMPLETE ELECTRONIC DIARY,,VACCINATION 2,,1,VACCINE B,2021-12-30T09:10:00,2021-12-30T09:10:00,,2021-11-03,2021-12-30,,
119,ABC,ABC-1001,1001,1001,74,YEARS,F,WHITE,Y,VACCINE A VACCINE B,VAXAB,VACCINE A VACCINE B,VAXAB,VACCINE B,VACCINE B,VACCINE A,VACCINE A,VACCINE B,VACCINE B,2021-11-03,2021-11-03T10:50:00Z,2021-12-30,2021-12-30T09:10:00Z,2021-12-30,2022-04-27,2022-01-02,,61,DAY 4,4,VACCINATION 2,2,Diarrhea occurrence indicator,OCDIAR,19,REACTOGENICITY,SYSTEMIC,,,Y,,,Occurrence Indicator,VACCINATION 2-DIARRHEA-DAY 4,VACCINATION 2-DIARRHEA,OCCUR,DIARRHEA,NOT DONE,SUBJECT DID NOT COMPLETE ELECTRONIC DIARY,,VACCINATION 2,,1,VACCINE B,2021-12-30T09:10:00,2021-12-30T09:10:00,,2021-11-03,2021-12-30,,
120,ABC,ABC-1001,1001,1001,74,YEARS,F,WHITE,Y,VACCINE A VACCINE B,VAXAB,VACCINE A VACCINE B,VAXAB,VACCINE B,VACCINE B,VACCINE A,VACCINE A,VACCINE B,VACCINE B,2021-11-03,2021-11-03T10:50:00Z,2021-12-30,2021-12-30T09:10:00Z,2021-12-30,2022-04-27,2022-01-03,,62,DAY 5,5,VACCINATION 2,2,Diarrhea occurrence indicator,OCDIAR,19,REACTOGENICITY,SYSTEMIC,,,Y,,,Occurrence Indicator,VACCINATION 2-DIARRHEA-DAY 5,VACCINATION 2-DIARRHEA,OCCUR,DIARRHEA,NOT DONE,SUBJECT DID NOT COMPLETE ELECTRONIC DIARY,,VACCINATION 2,,1,VACCINE B,2021-12-30T09:10:00,2021-12-30T09:10:00,,2021-11-03,2021-12-30,,
121,ABC,ABC-1001,1001,1001,74,YEARS,F,WHITE,Y,VACCINE A VACCINE B,VAXAB,VACCINE A VACCINE B,VAXAB,VACCINE B,VACCINE B,VACCINE A,VACCINE A,VACCINE B,VACCINE B,2021-11-03,2021-11-03T10:50:00Z,2021-12-30,2021-12-30T09:10:00Z,2021-12-30,2022-04-27,2022-01-04,,63,DAY 6,6,VACCINATION 2,2,Diarrhea occurrence indicator,OCDIAR,19,REACTOGENICITY,SYSTEMIC,,,Y,,,Occurrence Indicator,VACCINATION 2-DIARRHEA-DAY 6,VACCINATION 2-DIARRHEA,OCCUR,DIARRHEA,NOT DONE,SUBJECT DID NOT COMPLETE ELECTRONIC DIARY,,VACCINATION 2,,1,VACCINE B,2021-12-30T09:10:00,2021-12-30T09:10:00,,2021-11-03,2021-12-30,,
122,ABC,ABC-1001,1001,1001,74,YEARS,F,WHITE,Y,VACCINE A VACCINE B,VAXAB,VACCINE A VACCINE B,VAXAB,VACCINE B,VACCINE B,VACCINE A,VACCINE A,VACCINE B,VACCINE B,2021-11-03,2021-11-03T10:50:00Z,2021-12-30,2021-12-30T09:10:00Z,2021-12-30,2022-04-27,2022-01-05,,64,DAY 7,7,VACCINATION 2,2,Diarrhea occurrence indicator,OCDIAR,19,REACTOGENICITY,SYSTEMIC,,,Y,,,Occurrence Indicator,VACCINATION 2-DIARRHEA-DAY 7,VACCINATION 2-DIARRHEA,OCCUR,DIARRHEA,NOT DONE,SUBJECT DID NOT COMPLETE ELECTRONIC DIARY,,VACCINATION 2,,1,VACCINE B,2021-12-30T09:10:00,2021-12-30T09:10:00,,2021-11-03,2021-12-30,,
123,ABC,ABC-1001,1001,1001,74,YEARS,F,WHITE,Y,VACCINE A VACCINE B,VAXAB,VACCINE A VACCINE B,VAXAB,VACCINE B,VACCINE B,VACCINE A,VACCINE A,VACCINE B,VACCINE B,2021-11-03,2021-11-03T10:50:00Z,2021-12-30,2021-12-30T09:10:00Z,2021-12-30,2022-04-27,2021-12-30,,58,DAY 1,1,VACCINATION 2,2,Fatigue occurrence indicator,OCFATIG,16,REACTOGENICITY,SYSTEMIC,,,Y,,,Occurrence Indicator,VACCINATION 2-FATIGUE-DAY 1,VACCINATION 2-FATIGUE,OCCUR,FATIGUE,NOT DONE,SUBJECT DID NOT COMPLETE ELECTRONIC DIARY,,VACCINATION 2,SINCE VACCINATION,1,VACCINE B,2021-12-30T09:10:00,2021-12-30T09:10:00,,2021-11-03,2021-12-30,,
124,ABC,ABC-1001,1001,1001,74,YEARS,F,WHITE,Y,VACCINE A VACCINE B,VAXAB,VACCINE A VACCINE B,VAXAB,VACCINE B,VACCINE B,VACCINE A,VACCINE A,VACCINE B,VACCINE B,2021-11-03,2021-11-03T10:50:00Z,2021-12-30,2021-12-30T09:10:00Z,2021-12-30,2022-04-27,2021-12-31,,59,DAY 2,2,VACCINATION 2,2,Fatigue occurrence indicator,OCFATIG,16,REACTOGENICITY,SYSTEMIC,,,Y,,,Occurrence Indicator,VACCINATION 2-FATIGUE-DAY 2,VACCINATION 2-FATIGUE,OCCUR,FATIGUE,NOT DONE,SUBJECT DID NOT COMPLETE ELECTRONIC DIARY,,VACCINATION 2,,1,VACCINE B,2021-12-30T09:10:00,2021-12-30T09:10:00,,2021-11-03,2021-12-30,,
125,ABC,ABC-1001,1001,1001,74,YEARS,F,WHITE,Y,VACCINE A VACCINE B,VAXAB,VACCINE A VACCINE B,VAXAB,VACCINE B,VACCINE B,VACCINE A,VACCINE A,VACCINE B,VACCINE B,2021-11-03,2021-11-03T10:50:00Z,2021-12-30,2021-12-30T09:10:00Z,2021-12-30,2022-04-27,2022-01-01,,60,DAY 3,3,VACCINATION 2,2,Fatigue occurrence indicator,OCFATIG,16,REACTOGENICITY,SYSTEMIC,,,Y,,,Occurrence Indicator,VACCINATION 2-FATIGUE-DAY 3,VACCINATION 2-FATIGUE,OCCUR,FATIGUE,NOT DONE,SUBJECT DID NOT COMPLETE ELECTRONIC DIARY,,VACCINATION 2,,1,VACCINE B,2021-12-30T09:10:00,2021-12-30T09:10:00,,2021-11-03,2021-12-30,,
126,ABC,ABC-1001,1001,1001,74,YEARS,F,WHITE,Y,VACCINE A VACCINE B,VAXAB,VACCINE A VACCINE B,VAXAB,VACCINE B,VACCINE B,VACCINE A,VACCINE A,VACCINE B,VACCINE B,2021-11-03,2021-11-03T10:50:00Z,2021-12-30,2021-12-30T09:10:00Z,2021-12-30,2022-04-27,2022-01-02,,61,DAY 4,4,VACCINATION 2,2,Fatigue occurrence indicator,OCFATIG,16,REACTOGENICITY,SYSTEMIC,,,Y,,,Occurrence Indicator,VACCINATION 2-FATIGUE-DAY 4,VACCINATION 2-FATIGUE,OCCUR,FATIGUE,NOT DONE,SUBJECT DID NOT COMPLETE ELECTRONIC DIARY,,VACCINATION 2,,1,VACCINE B,2021-12-30T09:10:00,2021-12-30T09:10:00,,2021-11-03,2021-12-30,,
127,ABC,ABC-1001,1001,1001,74,YEARS,F,WHITE,Y,VACCINE A VACCINE B,VAXAB,VACCINE A VACCINE B,VAXAB,VACCINE B,VACCINE B,VACCINE A,VACCINE A,VACCINE B,VACCINE B,2021-11-03,2021-11-03T10:50:00Z,2021-12-30,2021-12-30T09:10:00Z,2021-12-30,2022-04-27,2022-01-03,,62,DAY 5,5,VACCINATION 2,2,Fatigue occurrence indicator,OCFATIG,16,REACTOGENICITY,SYSTEMIC,,,Y,,,Occurrence Indicator,VACCINATION 2-FATIGUE-DAY 5,VACCINATION 2-FATIGUE,OCCUR,FATIGUE,NOT DONE,SUBJECT DID NOT COMPLETE ELECTRONIC DIARY,,VACCINATION 2,,1,VACCINE B,2021-12-30T09:10:00,2021-12-30T09:10:00,,2021-11-03,2021-12-30,,
128,ABC,ABC-1001,1001,1001,74,YEARS,F,WHITE,Y,VACCINE A VACCINE B,VAXAB,VACCINE A VACCINE B,VAXAB,VACCINE B,VACCINE B,VACCINE A,VACCINE A,VACCINE B,VACCINE B,2021-11-03,2021-11-03T10:50:00Z,2021-12-30,2021-12-30T09:10:00Z,2021-12-30,2022-04-27,2022-01-04,,63,DAY 6,6,VACCINATION 2,2,Fatigue occurrence indicator,OCFATIG,16,REACTOGENICITY,SYSTEMIC,,,Y,,,Occurrence Indicator,VACCINATION 2-FATIGUE-DAY 6,VACCINATION 2-FATIGUE,OCCUR,FATIGUE,NOT DONE,SUBJECT DID NOT COMPLETE ELECTRONIC DIARY,,VACCINATION 2,,1,VACCINE B,2021-12-30T09:10:00,2021-12-30T09:10:00,,2021-11-03,2021-12-30,,
129,ABC,ABC-1001,1001,1001,74,YEARS,F,WHITE,Y,VACCINE A VACCINE B,VAXAB,VACCINE A VACCINE B,VAXAB,VACCINE B,VACCINE B,VACCINE A,VACCINE A,VACCINE B,VACCINE B,2021-11-03,2021-11-03T10:50:00Z,2021-12-30,2021-12-30T09:10:00Z,2021-12-30,2022-04-27,2022-01-05,,64,DAY 7,7,VACCINATION 2,2,Fatigue occurrence indicator,OCFATIG,16,REACTOGENICITY,SYSTEMIC,,,Y,,,Occurrence Indicator,VACCINATION 2-FATIGUE-DAY 7,VACCINATION 2-FATIGUE,OCCUR,FATIGUE,NOT DONE,SUBJECT DID NOT COMPLETE ELECTRONIC DIARY,,VACCINATION 2,,1,VACCINE B,2021-12-30T09:10:00,2021-12-30T09:10:00,,2021-11-03,2021-12-30,,
130,ABC,ABC-1001,1001,1001,74,YEARS,F,WHITE,Y,VACCINE A VACCINE B,VAXAB,VACCINE A VACCINE B,VAXAB,VACCINE B,VACCINE B,VACCINE A,VACCINE A,VACCINE B,VACCINE B,2021-11-03,2021-11-03T10:50:00Z,2021-12-30,2021-12-30T09:10:00Z,2021-12-30,2022-04-27,2021-12-30,,,DAY 1,1,VACCINATION 2,2,Fever occurrence indicator,OCFEVER,5,REACTOGENICITY,SYSTEMIC,,,Y,,,,,,,,,,,VACCINATION 2,,,,,,,2021-11-03,2021-12-30,,
131,ABC,ABC-1001,1001,1001,74,YEARS,F,WHITE,Y,VACCINE A VACCINE B,VAXAB,VACCINE A VACCINE B,VAXAB,VACCINE B,VACCINE B,VACCINE A,VACCINE A,VACCINE B,VACCINE B,2021-11-03,2021-11-03T10:50:00Z,2021-12-30,2021-12-30T09:10:00Z,2021-12-30,2022-04-27,2021-12-31,,,DAY 2,2,VACCINATION 2,2,Fever occurrence indicator,OCFEVER,5,REACTOGENICITY,SYSTEMIC,,,Y,,,,,,,,,,,VACCINATION 2,,,,,,,2021-11-03,2021-12-30,,
132,ABC,ABC-1001,1001,1001,74,YEARS,F,WHITE,Y,VACCINE A VACCINE B,VAXAB,VACCINE A VACCINE B,VAXAB,VACCINE B,VACCINE B,VACCINE A,VACCINE A,VACCINE B,VACCINE B,2021-11-03,2021-11-03T10:50:00Z,2021-12-30,2021-12-30T09:10:00Z,2021-12-30,2022-04-27,2022-01-01,,,DAY 3,3,VACCINATION 2,2,Fever occurrence indicator,OCFEVER,5,REACTOGENICITY,SYSTEMIC,,,Y,,,,,,,,,,,VACCINATION 2,,,,,,,2021-11-03,2021-12-30,,
133,ABC,ABC-1001,1001,1001,74,YEARS,F,WHITE,Y,VACCINE A VACCINE B,VAXAB,VACCINE A VACCINE B,VAXAB,VACCINE B,VACCINE B,VACCINE A,VACCINE A,VACCINE B,VACCINE B,2021-11-03,2021-11-03T10:50:00Z,2021-12-30,2021-12-30T09:10:00Z,2021-12-30,2022-04-27,2022-01-02,,,DAY 4,4,VACCINATION 2,2,Fever occurrence indicator,OCFEVER,5,REACTOGENICITY,SYSTEMIC,,,Y,,,,,,,,,,,VACCINATION 2,,,,,,,2021-11-03,2021-12-30,,
134,ABC,ABC-1001,1001,1001,74,YEARS,F,WHITE,Y,VACCINE A VACCINE B,VAXAB,VACCINE A VACCINE B,VAXAB,VACCINE B,VACCINE B,VACCINE A,VACCINE A,VACCINE B,VACCINE B,2021-11-03,2021-11-03T10:50:00Z,2021-12-30,2021-12-30T09:10:00Z,2021-12-30,2022-04-27,2022-01-03,,,DAY 5,5,VACCINATION 2,2,Fever occurrence indicator,OCFEVER,5,REACTOGENICITY,SYSTEMIC,,,Y,,,,,,,,,,,VACCINATION 2,,,,,,,2021-11-03,2021-12-30,,
135,ABC,ABC-1001,1001,1001,74,YEARS,F,WHITE,Y,VACCINE A VACCINE B,VAXAB,VACCINE A VACCINE B,VAXAB,VACCINE B,VACCINE B,VACCINE A,VACCINE A,VACCINE B,VACCINE B,2021-11-03,2021-11-03T10:50:00Z,2021-12-30,2021-12-30T09:10:00Z,2021-12-30,2022-04-27,2022-01-04,,,DAY 6,6,VACCINATION 2,2,Fever occurrence indicator,OCFEVER,5,REACTOGENICITY,SYSTEMIC,,,Y,,,,,,,,,,,VACCINATION 2,,,,,,,2021-11-03,2021-12-30,,
136,ABC,ABC-1001,1001,1001,74,YEARS,F,WHITE,Y,VACCINE A VACCINE B,VAXAB,VACCINE A VACCINE B,VAXAB,VACCINE B,VACCINE B,VACCINE A,VACCINE A,VACCINE B,VACCINE B,2021-11-03,2021-11-03T10:50:00Z,2021-12-30,2021-12-30T09:10:00Z,2021-12-30,2022-04-27,2022-01-05,,,DAY 7,7,VACCINATION 2,2,Fever occurrence indicator,OCFEVER,5,REACTOGENICITY,SYSTEMIC,,,Y,,,,,,,,,,,VACCINATION 2,,,,,,,2021-11-03,2021-12-30,,
137,ABC,ABC-1001,1001,1001,74,YEARS,F,WHITE,Y,VACCINE A VACCINE B,VAXAB,VACCINE A VACCINE B,VAXAB,VACCINE B,VACCINE B,VACCINE A,VACCINE A,VACCINE B,VACCINE B,2021-11-03,2021-11-03T10:50:00Z,2021-12-30,2021-12-30T09:10:00Z,2021-12-30,2022-04-27,2021-12-30,,58,DAY 1,1,VACCINATION 2,2,Headache occurrence indicator,OCHEAD,17,REACTOGENICITY,SYSTEMIC,,,Y,,,Occurrence Indicator,VACCINATION 2-HEADACHE-DAY 1,VACCINATION 2-HEADACHE,OCCUR,HEADACHE,NOT DONE,SUBJECT DID NOT COMPLETE ELECTRONIC DIARY,,VACCINATION 2,SINCE VACCINATION,1,VACCINE B,2021-12-30T09:10:00,2021-12-30T09:10:00,,2021-11-03,2021-12-30,,
138,ABC,ABC-1001,1001,1001,74,YEARS,F,WHITE,Y,VACCINE A VACCINE B,VAXAB,VACCINE A VACCINE B,VAXAB,VACCINE B,VACCINE B,VACCINE A,VACCINE A,VACCINE B,VACCINE B,2021-11-03,2021-11-03T10:50:00Z,2021-12-30,2021-12-30T09:10:00Z,2021-12-30,2022-04-27,2021-12-31,,59,DAY 2,2,VACCINATION 2,2,Headache occurrence indicator,OCHEAD,17,REACTOGENICITY,SYSTEMIC,,,Y,,,Occurrence Indicator,VACCINATION 2-HEADACHE-DAY 2,VACCINATION 2-HEADACHE,OCCUR,HEADACHE,NOT DONE,SUBJECT DID NOT COMPLETE ELECTRONIC DIARY,,VACCINATION 2,,1,VACCINE B,2021-12-30T09:10:00,2021-12-30T09:10:00,,2021-11-03,2021-12-30,,
139,ABC,ABC-1001,1001,1001,74,YEARS,F,WHITE,Y,VACCINE A VACCINE B,VAXAB,VACCINE A VACCINE B,VAXAB,VACCINE B,VACCINE B,VACCINE A,VACCINE A,VACCINE B,VACCINE B,2021-11-03,2021-11-03T10:50:00Z,2021-12-30,2021-12-30T09:10:00Z,2021-12-30,2022-04-27,2022-01-01,,60,DAY 3,3,VACCINATION 2,2,Headache occurrence indicator,OCHEAD,17,REACTOGENICITY,SYSTEMIC,,,Y,,,Occurrence Indicator,VACCINATION 2-HEADACHE-DAY 3,VACCINATION 2-HEADACHE,OCCUR,HEADACHE,NOT DONE,SUBJECT DID NOT COMPLETE ELECTRONIC DIARY,,VACCINATION 2,,1,VACCINE B,2021-12-30T09:10:00,2021-12-30T09:10:00,,2021-11-03,2021-12-30,,
140,ABC,ABC-1001,1001,1001,74,YEARS,F,WHITE,Y,VACCINE A VACCINE B,VAXAB,VACCINE A VACCINE B,VAXAB,VACCINE B,VACCINE B,VACCINE A,VACCINE A,VACCINE B,VACCINE B,2021-11-03,2021-11-03T10:50:00Z,2021-12-30,2021-12-30T09:10:00Z,2021-12-30,2022-04-27,2022-01-02,,61,DAY 4,4,VACCINATION 2,2,Headache occurrence indicator,OCHEAD,17,REACTOGENICITY,SYSTEMIC,,,Y,,,Occurrence Indicator,VACCINATION 2-HEADACHE-DAY 4,VACCINATION 2-HEADACHE,OCCUR,HEADACHE,NOT DONE,SUBJECT DID NOT COMPLETE ELECTRONIC DIARY,,VACCINATION 2,,1,VACCINE B,2021-12-30T09:10:00,2021-12-30T09:10:00,,2021-11-03,2021-12-30,,
141,ABC,ABC-1001,1001,1001,74,YEARS,F,WHITE,Y,VACCINE A VACCINE B,VAXAB,VACCINE A VACCINE B,VAXAB,VACCINE B,VACCINE B,VACCINE A,VACCINE A,VACCINE B,VACCINE B,2021-11-03,2021-11-03T10:50:00Z,2021-12-30,2021-12-30T09:10:00Z,2021-12-30,2022-04-27,2022-01-03,,62,DAY 5,5,VACCINATION 2,2,Headache occurrence indicator,OCHEAD,17,REACTOGENICITY,SYSTEMIC,,,Y,,,Occurrence Indicator,VACCINATION 2-HEADACHE-DAY 5,VACCINATION 2-HEADACHE,OCCUR,HEADACHE,NOT DONE,SUBJECT DID NOT COMPLETE ELECTRONIC DIARY,,VACCINATION 2,,1,VACCINE B,2021-12-30T09:10:00,2021-12-30T09:10:00,,2021-11-03,2021-12-30,,
142,ABC,ABC-1001,1001,1001,74,YEARS,F,WHITE,Y,VACCINE A VACCINE B,VAXAB,VACCINE A VACCINE B,VAXAB,VACCINE B,VACCINE B,VACCINE A,VACCINE A,VACCINE B,VACCINE B,2021-11-03,2021-11-03T10:50:00Z,2021-12-30,2021-12-30T09:10:00Z,2021-12-30,2022-04-27,2022-01-04,,63,DAY 6,6,VACCINATION 2,2,Headache occurrence indicator,OCHEAD,17,REACTOGENICITY,SYSTEMIC,,,Y,,,Occurrence Indicator,VACCINATION 2-HEADACHE-DAY 6,VACCINATION 2-HEADACHE,OCCUR,HEADACHE,NOT DONE,SUBJECT DID NOT COMPLETE ELECTRONIC DIARY,,VACCINATION 2,,1,VACCINE B,2021-12-30T09:10:00,2021-12-30T09:10:00,,2021-11-03,2021-12-30,,
143,ABC,ABC-1001,1001,1001,74,YEARS,F,WHITE,Y,VACCINE A VACCINE B,VAXAB,VACCINE A VACCINE B,VAXAB,VACCINE B,VACCINE B,VACCINE A,VACCINE A,VACCINE B,VACCINE B,2021-11-03,2021-11-03T10:50:00Z,2021-12-30,2021-12-30T09:10:00Z,2021-12-30,2022-04-27,2022-01-05,,64,DAY 7,7,VACCINATION 2,2,Headache occurrence indicator,OCHEAD,17,REACTOGENICITY,SYSTEMIC,,,Y,,,Occurrence Indicator,VACCINATION 2-HEADACHE-DAY 7,VACCINATION 2-HEADACHE,OCCUR,HEADACHE,NOT DONE,SUBJECT DID NOT COMPLETE ELECTRONIC DIARY,,VACCINATION 2,,1,VACCINE B,2021-12-30T09:10:00,2021-12-30T09:10:00,,2021-11-03,2021-12-30,,
144,ABC,ABC-1001,1001,1001,74,YEARS,F,WHITE,Y,VACCINE A VACCINE B,VAXAB,VACCINE A VACCINE B,VAXAB,VACCINE B,VACCINE B,VACCINE A,VACCINE A,VACCINE B,VACCINE B,2021-11-03,2021-11-03T10:50:00Z,2021-12-30,2021-12-30T09:10:00Z,2021-12-30,2022-04-27,2021-12-30,,58,DAY 1,1,VACCINATION 2,2,New or worsened joint pain occurrence indicator,OCCNWJP,20,REACTOGENICITY,SYSTEMIC,,,Y,,,Occurrence Indicator,VACCINATION 2-NEW OR WORSENED JOINT PAIN-DAY 1,VACCINATION 2-NEW OR WORSENED JOINT PAIN,OCCUR,NEW OR WORSENED JOINT PAIN,NOT DONE,SUBJECT DID NOT COMPLETE ELECTRONIC DIARY,,VACCINATION 2,SINCE VACCINATION,1,VACCINE B,2021-12-30T09:10:00,2021-12-30T09:10:00,,2021-11-03,2021-12-30,,
145,ABC,ABC-1001,1001,1001,74,YEARS,F,WHITE,Y,VACCINE A VACCINE B,VAXAB,VACCINE A VACCINE B,VAXAB,VACCINE B,VACCINE B,VACCINE A,VACCINE A,VACCINE B,VACCINE B,2021-11-03,2021-11-03T10:50:00Z,2021-12-30,2021-12-30T09:10:00Z,2021-12-30,2022-04-27,2021-12-31,,59,DAY 2,2,VACCINATION 2,2,New or worsened joint pain occurrence indicator,OCCNWJP,20,REACTOGENICITY,SYSTEMIC,,,Y,,,Occurrence Indicator,VACCINATION 2-NEW OR WORSENED JOINT PAIN-DAY 2,VACCINATION 2-NEW OR WORSENED JOINT PAIN,OCCUR,NEW OR WORSENED JOINT PAIN,NOT DONE,SUBJECT DID NOT COMPLETE ELECTRONIC DIARY,,VACCINATION 2,,1,VACCINE B,2021-12-30T09:10:00,2021-12-30T09:10:00,,2021-11-03,2021-12-30,,
146,ABC,ABC-1001,1001,1001,74,YEARS,F,WHITE,Y,VACCINE A VACCINE B,VAXAB,VACCINE A VACCINE B,VAXAB,VACCINE B,VACCINE B,VACCINE A,VACCINE A,VACCINE B,VACCINE B,2021-11-03,2021-11-03T10:50:00Z,2021-12-30,2021-12-30T09:10:00Z,2021-12-30,2022-04-27,2022-01-01,,60,DAY 3,3,VACCINATION 2,2,New or worsened joint pain occurrence indicator,OCCNWJP,20,REACTOGENICITY,SYSTEMIC,,,Y,,,Occurrence Indicator,VACCINATION 2-NEW OR WORSENED JOINT PAIN-DAY 3,VACCINATION 2-NEW OR WORSENED JOINT PAIN,OCCUR,NEW OR WORSENED JOINT PAIN,NOT DONE,SUBJECT DID NOT COMPLETE ELECTRONIC DIARY,,VACCINATION 2,,1,VACCINE B,2021-12-30T09:10:00,2021-12-30T09:10:00,,2021-11-03,2021-12-30,,
147,ABC,ABC-1001,1001,1001,74,YEARS,F,WHITE,Y,VACCINE A VACCINE B,VAXAB,VACCINE A VACCINE B,VAXAB,VACCINE B,VACCINE B,VACCINE A,VACCINE A,VACCINE B,VACCINE B,2021-11-03,2021-11-03T10:50:00Z,2021-12-30,2021-12-30T09:10:00Z,2021-12-30,2022-04-27,2022-01-02,,61,DAY 4,4,VACCINATION 2,2,New or worsened joint pain occurrence indicator,OCCNWJP,20,REACTOGENICITY,SYSTEMIC,,,Y,,,Occurrence Indicator,VACCINATION 2-NEW OR WORSENED JOINT PAIN-DAY 4,VACCINATION 2-NEW OR WORSENED JOINT PAIN,OCCUR,NEW OR WORSENED JOINT PAIN,NOT DONE,SUBJECT DID NOT COMPLETE ELECTRONIC DIARY,,VACCINATION 2,,1,VACCINE B,2021-12-30T09:10:00,2021-12-30T09:10:00,,2021-11-03,2021-12-30,,
148,ABC,ABC-1001,1001,1001,74,YEARS,F,WHITE,Y,VACCINE A VACCINE B,VAXAB,VACCINE A VACCINE B,VAXAB,VACCINE B,VACCINE B,VACCINE A,VACCINE A,VACCINE B,VACCINE B,2021-11-03,2021-11-03T10:50:00Z,2021-12-30,2021-12-30T09:10:00Z,2021-12-30,2022-04-27,2022-01-03,,62,DAY 5,5,VACCINATION 2,2,New or worsened joint pain occurrence indicator,OCCNWJP,20,REACTOGENICITY,SYSTEMIC,,,Y,,,Occurrence Indicator,VACCINATION 2-NEW OR WORSENED JOINT PAIN-DAY 5,VACCINATION 2-NEW OR WORSENED JOINT PAIN,OCCUR,NEW OR WORSENED JOINT PAIN,NOT DONE,SUBJECT DID NOT COMPLETE ELECTRONIC DIARY,,VACCINATION 2,,1,VACCINE B,2021-12-30T09:10:00,2021-12-30T09:10:00,,2021-11-03,2021-12-30,,
149,ABC,ABC-1001,1001,1001,74,YEARS,F,WHITE,Y,VACCINE A VACCINE B,VAXAB,VACCINE A VACCINE B,VAXAB,VACCINE B,VACCINE B,VACCINE A,VACCINE A,VACCINE B,VACCINE B,2021-11-03,2021-11-03T10:50:00Z,2021-12-30,2021-12-30T09:10:00Z,2021-12-30,2022-04-27,2022-01-04,,63,DAY 6,6,VACCINATION 2,2,New or worsened joint pain occurrence indicator,OCCNWJP,20,REACTOGENICITY,SYSTEMIC,,,Y,,,Occurrence Indicator,VACCINATION 2-NEW OR WORSENED JOINT PAIN-DAY 6,VACCINATION 2-NEW OR WORSENED JOINT PAIN,OCCUR,NEW OR WORSENED JOINT PAIN,NOT DONE,SUBJECT DID NOT COMPLETE ELECTRONIC DIARY,,VACCINATION 2,,1,VACCINE B,2021-12-30T09:10:00,2021-12-30T09:10:00,,2021-11-03,2021-12-30,,
150,ABC,ABC-1001,1001,1001,74,YEARS,F,WHITE,Y,VACCINE A VACCINE B,VAXAB,VACCINE A VACCINE B,VAXAB,VACCINE B,VACCINE B,VACCINE A,VACCINE A,VACCINE B,VACCINE B,2021-11-03,2021-11-03T10:50:00Z,2021-12-30,2021-12-30T09:10:00Z,2021-12-30,2022-04-27,2022-01-05,,64,DAY 7,7,VACCINATION 2,2,New or worsened joint pain occurrence indicator,OCCNWJP,20,REACTOGENICITY,SYSTEMIC,,,Y,,,Occurrence Indicator,VACCINATION 2-NEW OR WORSENED JOINT PAIN-DAY 7,VACCINATION 2-NEW OR WORSENED JOINT PAIN,OCCUR,NEW OR WORSENED JOINT PAIN,NOT DONE,SUBJECT DID NOT COMPLETE ELECTRONIC DIARY,,VACCINATION 2,,1,VACCINE B,2021-12-30T09:10:00,2021-12-30T09:10:00,,2021-11-03,2021-12-30,,
151,ABC,ABC-1001,1001,1001,74,YEARS,F,WHITE,Y,VACCINE A VACCINE B,VAXAB,VACCINE A VACCINE B,VAXAB,VACCINE B,VACCINE B,VACCINE A,VACCINE A,VACCINE B,VACCINE B,2021-11-03,2021-11-03T10:50:00Z,2021-12-30,2021-12-30T09:10:00Z,2021-12-30,2022-04-27,2021-12-30,,58,DAY 1,1,VACCINATION 2,2,New or worsened muscle pain occurrence indicator,OCCNWMP,21,REACTOGENICITY,SYSTEMIC,,,Y,,,Occurrence Indicator,VACCINATION 2-NEW OR WORSENED MUSCLE PAIN-DAY 1,VACCINATION 2-NEW OR WORSENED MUSCLE PAIN,OCCUR,NEW OR WORSENED MUSCLE PAIN,NOT DONE,SUBJECT DID NOT COMPLETE ELECTRONIC DIARY,,VACCINATION 2,SINCE VACCINATION,1,VACCINE B,2021-12-30T09:10:00,2021-12-30T09:10:00,,2021-11-03,2021-12-30,,
152,ABC,ABC-1001,1001,1001,74,YEARS,F,WHITE,Y,VACCINE A VACCINE B,VAXAB,VACCINE A VACCINE B,VAXAB,VACCINE B,VACCINE B,VACCINE A,VACCINE A,VACCINE B,VACCINE B,2021-11-03,2021-11-03T10:50:00Z,2021-12-30,2021-12-30T09:10:00Z,2021-12-30,2022-04-27,2021-12-31,,59,DAY 2,2,VACCINATION 2,2,New or worsened muscle pain occurrence indicator,OCCNWMP,21,REACTOGENICITY,SYSTEMIC,,,Y,,,Occurrence Indicator,VACCINATION 2-NEW OR WORSENED MUSCLE PAIN-DAY 2,VACCINATION 2-NEW OR WORSENED MUSCLE PAIN,OCCUR,NEW OR WORSENED MUSCLE PAIN,NOT DONE,SUBJECT DID NOT COMPLETE ELECTRONIC DIARY,,VACCINATION 2,,1,VACCINE B,2021-12-30T09:10:00,2021-12-30T09:10:00,,2021-11-03,2021-12-30,,
153,ABC,ABC-1001,1001,1001,74,YEARS,F,WHITE,Y,VACCINE A VACCINE B,VAXAB,VACCINE A VACCINE B,VAXAB,VACCINE B,VACCINE B,VACCINE A,VACCINE A,VACCINE B,VACCINE B,2021-11-03,2021-11-03T10:50:00Z,2021-12-30,2021-12-30T09:10:00Z,2021-12-30,2022-04-27,2022-01-01,,60,DAY 3,3,VACCINATION 2,2,New or worsened muscle pain occurrence indicator,OCCNWMP,21,REACTOGENICITY,SYSTEMIC,,,Y,,,Occurrence Indicator,VACCINATION 2-NEW OR WORSENED MUSCLE PAIN-DAY 3,VACCINATION 2-NEW OR WORSENED MUSCLE PAIN,OCCUR,NEW OR WORSENED MUSCLE PAIN,NOT DONE,SUBJECT DID NOT COMPLETE ELECTRONIC DIARY,,VACCINATION 2,,1,VACCINE B,2021-12-30T09:10:00,2021-12-30T09:10:00,,2021-11-03,2021-12-30,,
154,ABC,ABC-1001,1001,1001,74,YEARS,F,WHITE,Y,VACCINE A VACCINE B,VAXAB,VACCINE A VACCINE B,VAXAB,VACCINE B,VACCINE B,VACCINE A,VACCINE A,VACCINE B,VACCINE B,2021-11-03,2021-11-03T10:50:00Z,2021-12-30,2021-12-30T09:10:00Z,2021-12-30,2022-04-27,2022-01-02,,61,DAY 4,4,VACCINATION 2,2,New or worsened muscle pain occurrence indicator,OCCNWMP,21,REACTOGENICITY,SYSTEMIC,,,Y,,,Occurrence Indicator,VACCINATION 2-NEW OR WORSENED MUSCLE PAIN-DAY 4,VACCINATION 2-NEW OR WORSENED MUSCLE PAIN,OCCUR,NEW OR WORSENED MUSCLE PAIN,NOT DONE,SUBJECT DID NOT COMPLETE ELECTRONIC DIARY,,VACCINATION 2,,1,VACCINE B,2021-12-30T09:10:00,2021-12-30T09:10:00,,2021-11-03,2021-12-30,,
155,ABC,ABC-1001,1001,1001,74,YEARS,F,WHITE,Y,VACCINE A VACCINE B,VAXAB,VACCINE A VACCINE B,VAXAB,VACCINE B,VACCINE B,VACCINE A,VACCINE A,VACCINE B,VACCINE B,2021-11-03,2021-11-03T10:50:00Z,2021-12-30,2021-12-30T09:10:00Z,2021-12-30,2022-04-27,2022-01-03,,62,DAY 5,5,VACCINATION 2,2,New or worsened muscle pain occurrence indicator,OCCNWMP,21,REACTOGENICITY,SYSTEMIC,,,Y,,,Occurrence Indicator,VACCINATION 2-NEW OR WORSENED MUSCLE PAIN-DAY 5,VACCINATION 2-NEW OR WORSENED MUSCLE PAIN,OCCUR,NEW OR WORSENED MUSCLE PAIN,NOT DONE,SUBJECT DID NOT COMPLETE ELECTRONIC DIARY,,VACCINATION 2,,1,VACCINE B,2021-12-30T09:10:00,2021-12-30T09:10:00,,2021-11-03,2021-12-30,,
156,ABC,ABC-1001,1001,1001,74,YEARS,F,WHITE,Y,VACCINE A VACCINE B,VAXAB,VACCINE A VACCINE B,VAXAB,VACCINE B,VACCINE B,VACCINE A,VACCINE A,VACCINE B,VACCINE B,2021-11-03,2021-11-03T10:50:00Z,2021-12-30,2021-12-30T09:10:00Z,2021-12-30,2022-04-27,2022-01-04,,63,DAY 6,6,VACCINATION 2,2,New or worsened muscle pain occurrence indicator,OCCNWMP,21,REACTOGENICITY,SYSTEMIC,,,Y,,,Occurrence Indicator,VACCINATION 2-NEW OR WORSENED MUSCLE PAIN-DAY 6,VACCINATION 2-NEW OR WORSENED MUSCLE PAIN,OCCUR,NEW OR WORSENED MUSCLE PAIN,NOT DONE,SUBJECT DID NOT COMPLETE ELECTRONIC DIARY,,VACCINATION 2,,1,VACCINE B,2021-12-30T09:10:00,2021-12-30T09:10:00,,2021-11-03,2021-12-30,,
157,ABC,ABC-1001,1001,1001,74,YEARS,F,WHITE,Y,VACCINE A VACCINE B,VAXAB,VACCINE A VACCINE B,VAXAB,VACCINE B,VACCINE B,VACCINE A,VACCINE A,VACCINE B,VACCINE B,2021-11-03,2021-11-03T10:50:00Z,2021-12-30,2021-12-30T09:10:00Z,2021-12-30,2022-04-27,2022-01-05,,64,DAY 7,7,VACCINATION 2,2,New or worsened muscle pain occurrence indicator,OCCNWMP,21,REACTOGENICITY,SYSTEMIC,,,Y,,,Occurrence Indicator,VACCINATION 2-NEW OR WORSENED MUSCLE PAIN-DAY 7,VACCINATION 2-NEW OR WORSENED MUSCLE PAIN,OCCUR,NEW OR WORSENED MUSCLE PAIN,NOT DONE,SUBJECT DID NOT COMPLETE ELECTRONIC DIARY,,VACCINATION 2,,1,VACCINE B,2021-12-30T09:10:00,2021-12-30T09:10:00,,2021-11-03,2021-12-30,,
158,ABC,ABC-1001,1001,1001,74,YEARS,F,WHITE,Y,VACCINE A VACCINE B,VAXAB,VACCINE A VACCINE B,VAXAB,VACCINE B,VACCINE B,VACCINE A,VACCINE A,VACCINE B,VACCINE B,2021-11-03,2021-11-03T10:50:00Z,2021-12-30,2021-12-30T09:10:00Z,2021-12-30,2022-04-27,2021-12-30,,58,DAY 1,1,VACCINATION 2,2,Pain at injection site occurrence indicator deltoid muscle left,OCPIS,15,REACTOGENICITY,ADMINISTRATION SITE,,,Y,,,Occurrence Indicator,VACCINATION 2-DELTOID MUSCLE-LEFT-PAIN AT INJECTION SITE-DAY 1,VACCINATION 2-DELTOID MUSCLE-LEFT-PAIN AT INJECTION SITE,OCCUR,PAIN AT INJECTION SITE,NOT DONE,SUBJECT DID NOT COMPLETE ELECTRONIC DIARY,,VACCINATION 2,SINCE VACCINATION,1,VACCINE B,2021-12-30T09:10:00,2021-12-30T09:10:00,,2021-11-03,2021-12-30,,
159,ABC,ABC-1001,1001,1001,74,YEARS,F,WHITE,Y,VACCINE A VACCINE B,VAXAB,VACCINE A VACCINE B,VAXAB,VACCINE B,VACCINE B,VACCINE A,VACCINE A,VACCINE B,VACCINE B,2021-11-03,2021-11-03T10:50:00Z,2021-12-30,2021-12-30T09:10:00Z,2021-12-30,2022-04-27,2021-12-31,,59,DAY 2,2,VACCINATION 2,2,Pain at injection site occurrence indicator deltoid muscle left,OCPIS,15,REACTOGENICITY,ADMINISTRATION SITE,,,Y,,,Occurrence Indicator,VACCINATION 2-DELTOID MUSCLE-LEFT-PAIN AT INJECTION SITE-DAY 2,VACCINATION 2-DELTOID MUSCLE-LEFT-PAIN AT INJECTION SITE,OCCUR,PAIN AT INJECTION SITE,NOT DONE,SUBJECT DID NOT COMPLETE ELECTRONIC DIARY,,VACCINATION 2,,1,VACCINE B,2021-12-30T09:10:00,2021-12-30T09:10:00,,2021-11-03,2021-12-30,,
160,ABC,ABC-1001,1001,1001,74,YEARS,F,WHITE,Y,VACCINE A VACCINE B,VAXAB,VACCINE A VACCINE B,VAXAB,VACCINE B,VACCINE B,VACCINE A,VACCINE A,VACCINE B,VACCINE B,2021-11-03,2021-11-03T10:50:00Z,2021-12-30,2021-12-30T09:10:00Z,2021-12-30,2022-04-27,2022-01-01,,60,DAY 3,3,VACCINATION 2,2,Pain at injection site occurrence indicator deltoid muscle left,OCPIS,15,REACTOGENICITY,ADMINISTRATION SITE,,,Y,,,Occurrence Indicator,VACCINATION 2-DELTOID MUSCLE-LEFT-PAIN AT INJECTION SITE-DAY 3,VACCINATION 2-DELTOID MUSCLE-LEFT-PAIN AT INJECTION SITE,OCCUR,PAIN AT INJECTION SITE,NOT DONE,SUBJECT DID NOT COMPLETE ELECTRONIC DIARY,,VACCINATION 2,,1,VACCINE B,2021-12-30T09:10:00,2021-12-30T09:10:00,,2021-11-03,2021-12-30,,
161,ABC,ABC-1001,1001,1001,74,YEARS,F,WHITE,Y,VACCINE A VACCINE B,VAXAB,VACCINE A VACCINE B,VAXAB,VACCINE B,VACCINE B,VACCINE A,VACCINE A,VACCINE B,VACCINE B,2021-11-03,2021-11-03T10:50:00Z,2021-12-30,2021-12-30T09:10:00Z,2021-12-30,2022-04-27,2022-01-02,,61,DAY 4,4,VACCINATION 2,2,Pain at injection site occurrence indicator deltoid muscle left,OCPIS,15,REACTOGENICITY,ADMINISTRATION SITE,,,Y,,,Occurrence Indicator,VACCINATION 2-DELTOID MUSCLE-LEFT-PAIN AT INJECTION SITE-DAY 4,VACCINATION 2-DELTOID MUSCLE-LEFT-PAIN AT INJECTION SITE,OCCUR,PAIN AT INJECTION SITE,NOT DONE,SUBJECT DID NOT COMPLETE ELECTRONIC DIARY,,VACCINATION 2,,1,VACCINE B,2021-12-30T09:10:00,2021-12-30T09:10:00,,2021-11-03,2021-12-30,,
162,ABC,ABC-1001,1001,1001,74,YEARS,F,WHITE,Y,VACCINE A VACCINE B,VAXAB,VACCINE A VACCINE B,VAXAB,VACCINE B,VACCINE B,VACCINE A,VACCINE A,VACCINE B,VACCINE B,2021-11-03,2021-11-03T10:50:00Z,2021-12-30,2021-12-30T09:10:00Z,2021-12-30,2022-04-27,2022-01-03,,62,DAY 5,5,VACCINATION 2,2,Pain at injection site occurrence indicator deltoid muscle left,OCPIS,15,REACTOGENICITY,ADMINISTRATION SITE,,,Y,,,Occurrence Indicator,VACCINATION 2-DELTOID MUSCLE-LEFT-PAIN AT INJECTION SITE-DAY 5,VACCINATION 2-DELTOID MUSCLE-LEFT-PAIN AT INJECTION SITE,OCCUR,PAIN AT INJECTION SITE,NOT DONE,SUBJECT DID NOT COMPLETE ELECTRONIC DIARY,,VACCINATION 2,,1,VACCINE B,2021-12-30T09:10:00,2021-12-30T09:10:00,,2021-11-03,2021-12-30,,
163,ABC,ABC-1001,1001,1001,74,YEARS,F,WHITE,Y,VACCINE A VACCINE B,VAXAB,VACCINE A VACCINE B,VAXAB,VACCINE B,VACCINE B,VACCINE A,VACCINE A,VACCINE B,VACCINE B,2021-11-03,2021-11-03T10:50:00Z,2021-12-30,2021-12-30T09:10:00Z,2021-12-30,2022-04-27,2022-01-04,,63,DAY 6,6,VACCINATION 2,2,Pain at injection site occurrence indicator deltoid muscle left,OCPIS,15,REACTOGENICITY,ADMINISTRATION SITE,,,Y,,,Occurrence Indicator,VACCINATION 2-DELTOID MUSCLE-LEFT-PAIN AT INJECTION SITE-DAY 6,VACCINATION 2-DELTOID MUSCLE-LEFT-PAIN AT INJECTION SITE,OCCUR,PAIN AT INJECTION SITE,NOT DONE,SUBJECT DID NOT COMPLETE ELECTRONIC DIARY,,VACCINATION 2,,1,VACCINE B,2021-12-30T09:10:00,2021-12-30T09:10:00,,2021-11-03,2021-12-30,,
164,ABC,ABC-1001,1001,1001,74,YEARS,F,WHITE,Y,VACCINE A VACCINE B,VAXAB,VACCINE A VACCINE B,VAXAB,VACCINE B,VACCINE B,VACCINE A,VACCINE A,VACCINE B,VACCINE B,2021-11-03,2021-11-03T10:50:00Z,2021-12-30,2021-12-30T09:10:00Z,2021-12-30,2022-04-27,2022-01-05,,64,DAY 7,7,VACCINATION 2,2,Pain at injection site occurrence indicator deltoid muscle left,OCPIS,15,REACTOGENICITY,ADMINISTRATION SITE,,,Y,,,Occurrence Indicator,VACCINATION 2-DELTOID MUSCLE-LEFT-PAIN AT INJECTION SITE-DAY 7,VACCINATION 2-DELTOID MUSCLE-LEFT-PAIN AT INJECTION SITE,OCCUR,PAIN AT INJECTION SITE,NOT DONE,SUBJECT DID NOT COMPLETE ELECTRONIC DIARY,,VACCINATION 2,,1,VACCINE B,2021-12-30T09:10:00,2021-12-30T09:10:00,,2021-11-03,2021-12-30,,
165,ABC,ABC-1001,1001,1001,74,YEARS,F,WHITE,Y,VACCINE A VACCINE B,VAXAB,VACCINE A VACCINE B,VAXAB,VACCINE B,VACCINE B,VACCINE A,VACCINE A,VACCINE B,VACCINE B,2021-11-03,2021-11-03T10:50:00Z,2021-12-30,2021-12-30T09:10:00Z,2021-12-30,2022-04-27,2021-12-30,,58,DAY 1,1,VACCINATION 2,2,Redness occurrence indicator deltoid muscle left,OCISR,13,REACTOGENICITY,ADMINISTRATION SITE,,,Y,,,,,,,,,,,VACCINATION 2,,1,VACCINE B,2021-12-30T09:10:00,2021-12-30T09:10:00,,2021-11-03,2021-12-30,,
166,ABC,ABC-1001,1001,1001,74,YEARS,F,WHITE,Y,VACCINE A VACCINE B,VAXAB,VACCINE A VACCINE B,VAXAB,VACCINE B,VACCINE B,VACCINE A,VACCINE A,VACCINE B,VACCINE B,2021-11-03,2021-11-03T10:50:00Z,2021-12-30,2021-12-30T09:10:00Z,2021-12-30,2022-04-27,2021-12-31,,59,DAY 2,2,VACCINATION 2,2,Redness occurrence indicator deltoid muscle left,OCISR,13,REACTOGENICITY,ADMINISTRATION SITE,,,Y,,,,,,,,,,,VACCINATION 2,,1,VACCINE B,2021-12-30T09:10:00,2021-12-30T09:10:00,,2021-11-03,2021-12-30,,
167,ABC,ABC-1001,1001,1001,74,YEARS,F,WHITE,Y,VACCINE A VACCINE B,VAXAB,VACCINE A VACCINE B,VAXAB,VACCINE B,VACCINE B,VACCINE A,VACCINE A,VACCINE B,VACCINE B,2021-11-03,2021-11-03T10:50:00Z,2021-12-30,2021-12-30T09:10:00Z,2021-12-30,2022-04-27,2022-01-01,,60,DAY 3,3,VACCINATION 2,2,Redness occurrence indicator deltoid muscle left,OCISR,13,REACTOGENICITY,ADMINISTRATION SITE,,,Y,,,,,,,,,,,VACCINATION 2,,1,VACCINE B,2021-12-30T09:10:00,2021-12-30T09:10:00,,2021-11-03,2021-12-30,,
168,ABC,ABC-1001,1001,1001,74,YEARS,F,WHITE,Y,VACCINE A VACCINE B,VAXAB,VACCINE A VACCINE B,VAXAB,VACCINE B,VACCINE B,VACCINE A,VACCINE A,VACCINE B,VACCINE B,2021-11-03,2021-11-03T10:50:00Z,2021-12-30,2021-12-30T09:10:00Z,2021-12-30,2022-04-27,2022-01-02,,61,DAY 4,4,VACCINATION 2,2,Redness occurrence indicator deltoid muscle left,OCISR,13,REACTOGENICITY,ADMINISTRATION SITE,,,Y,,,,,,,,,,,VACCINATION 2,,1,VACCINE B,2021-12-30T09:10:00,2021-12-30T09:10:00,,2021-11-03,2021-12-30,,
169,ABC,ABC-1001,1001,1001,74,YEARS,F,WHITE,Y,VACCINE A VACCINE B,VAXAB,VACCINE A VACCINE B,VAXAB,VACCINE B,VACCINE B,VACCINE A,VACCINE A,VACCINE B,VACCINE B,2021-11-03,2021-11-03T10:50:00Z,2021-12-30,2021-12-30T09:10:00Z,2021-12-30,2022-04-27,2022-01-03,,62,DAY 5,5,VACCINATION 2,2,Redness occurrence indicator deltoid muscle left,OCISR,13,REACTOGENICITY,ADMINISTRATION SITE,,,Y,,,,,,,,,,,VACCINATION 2,,1,VACCINE B,2021-12-30T09:10:00,2021-12-30T09:10:00,,2021-11-03,2021-12-30,,
170,ABC,ABC-1001,1001,1001,74,YEARS,F,WHITE,Y,VACCINE A VACCINE B,VAXAB,VACCINE A VACCINE B,VAXAB,VACCINE B,VACCINE B,VACCINE A,VACCINE A,VACCINE B,VACCINE B,2021-11-03,2021-11-03T10:50:00Z,2021-12-30,2021-12-30T09:10:00Z,2021-12-30,2022-04-27,2022-01-04,,63,DAY 6,6,VACCINATION 2,2,Redness occurrence indicator deltoid muscle left,OCISR,13,REACTOGENICITY,ADMINISTRATION SITE,,,Y,,,,,,,,,,,VACCINATION 2,,1,VACCINE B,2021-12-30T09:10:00,2021-12-30T09:10:00,,2021-11-03,2021-12-30,,
171,ABC,ABC-1001,1001,1001,74,YEARS,F,WHITE,Y,VACCINE A VACCINE B,VAXAB,VACCINE A VACCINE B,VAXAB,VACCINE B,VACCINE B,VACCINE A,VACCINE A,VACCINE B,VACCINE B,2021-11-03,2021-11-03T10:50:00Z,2021-12-30,2021-12-30T09:10:00Z,2021-12-30,2022-04-27,2022-01-05,,64,DAY 7,7,VACCINATION 2,2,Redness occurrence indicator deltoid muscle left,OCISR,13,REACTOGENICITY,ADMINISTRATION SITE,,,Y,,,,,,,,,,,VACCINATION 2,,1,VACCINE B,2021-12-30T09:10:00,2021-12-30T09:10:00,,2021-11-03,2021-12-30,,
172,ABC,ABC-1001,1001,1001,74,YEARS,F,WHITE,Y,VACCINE A VACCINE B,VAXAB,VACCINE A VACCINE B,VAXAB,VACCINE B,VACCINE B,VACCINE A,VACCINE A,VACCINE B,VACCINE B,2021-11-03,2021-11-03T10:50:00Z,2021-12-30,2021-12-30T09:10:00Z,2021-12-30,2022-04-27,2021-12-30,,58,DAY 1,1,VACCINATION 2,2,Swelling occurrence indicator deltoid muscle left,OCINS,14,REACTOGENICITY,ADMINISTRATION SITE,,,Y,,,,,,,,,,,VACCINATION 2,,1,VACCINE B,2021-12-30T09:10:00,2021-12-30T09:10:00,,2021-11-03,2021-12-30,,
173,ABC,ABC-1001,1001,1001,74,YEARS,F,WHITE,Y,VACCINE A VACCINE B,VAXAB,VACCINE A VACCINE B,VAXAB,VACCINE B,VACCINE B,VACCINE A,VACCINE A,VACCINE B,VACCINE B,2021-11-03,2021-11-03T10:50:00Z,2021-12-30,2021-12-30T09:10:00Z,2021-12-30,2022-04-27,2021-12-31,,59,DAY 2,2,VACCINATION 2,2,Swelling occurrence indicator deltoid muscle left,OCINS,14,REACTOGENICITY,ADMINISTRATION SITE,,,Y,,,,,,,,,,,VACCINATION 2,,1,VACCINE B,2021-12-30T09:10:00,2021-12-30T09:10:00,,2021-11-03,2021-12-30,,
174,ABC,ABC-1001,1001,1001,74,YEARS,F,WHITE,Y,VACCINE A VACCINE B,VAXAB,VACCINE A VACCINE B,VAXAB,VACCINE B,VACCINE B,VACCINE A,VACCINE A,VACCINE B,VACCINE B,2021-11-03,2021-11-03T10:50:00Z,2021-12-30,2021-12-30T09:10:00Z,2021-12-30,2022-04-27,2022-01-01,,60,DAY 3,3,VACCINATION 2,2,Swelling occurrence indicator deltoid muscle left,OCINS,14,REACTOGENICITY,ADMINISTRATION SITE,,,Y,,,,,,,,,,,VACCINATION 2,,1,VACCINE B,2021-12-30T09:10:00,2021-12-30T09:10:00,,2021-11-03,2021-12-30,,
175,ABC,ABC-1001,1001,1001,74,YEARS,F,WHITE,Y,VACCINE A VACCINE B,VAXAB,VACCINE A VACCINE B,VAXAB,VACCINE B,VACCINE B,VACCINE A,VACCINE A,VACCINE B,VACCINE B,2021-11-03,2021-11-03T10:50:00Z,2021-12-30,2021-12-30T09:10:00Z,2021-12-30,2022-04-27,2022-01-02,,61,DAY 4,4,VACCINATION 2,2,Swelling occurrence indicator deltoid muscle left,OCINS,14,REACTOGENICITY,ADMINISTRATION SITE,,,Y,,,,,,,,,,,VACCINATION 2,,1,VACCINE B,2021-12-30T09:10:00,2021-12-30T09:10:00,,2021-11-03,2021-12-30,,
176,ABC,ABC-1001,1001,1001,74,YEARS,F,WHITE,Y,VACCINE A VACCINE B,VAXAB,VACCINE A VACCINE B,VAXAB,VACCINE B,VACCINE B,VACCINE A,VACCINE A,VACCINE B,VACCINE B,2021-11-03,2021-11-03T10:50:00Z,2021-12-30,2021-12-30T09:10:00Z,2021-12-30,2022-04-27,2022-01-03,,62,DAY 5,5,VACCINATION 2,2,Swelling occurrence indicator deltoid muscle left,OCINS,14,REACTOGENICITY,ADMINISTRATION SITE,,,Y,,,,,,,,,,,VACCINATION 2,,1,VACCINE B,2021-12-30T09:10:00,2021-12-30T09:10:00,,2021-11-03,2021-12-30,,
177,ABC,ABC-1001,1001,1001,74,YEARS,F,WHITE,Y,VACCINE A VACCINE B,VAXAB,VACCINE A VACCINE B,VAXAB,VACCINE B,VACCINE B,VACCINE A,VACCINE A,VACCINE B,VACCINE B,2021-11-03,2021-11-03T10:50:00Z,2021-12-30,2021-12-30T09:10:00Z,2021-12-30,2022-04-27,2022-01-04,,63,DAY 6,6,VACCINATION 2,2,Swelling occurrence indicator deltoid muscle left,OCINS,14,REACTOGENICITY,ADMINISTRATION SITE,,,Y,,,,,,,,,,,VACCINATION 2,,1,VACCINE B,2021-12-30T09:10:00,2021-12-30T09:10:00,,2021-11-03,2021-12-30,,
178,ABC,ABC-1001,1001,1001,74,YEARS,F,WHITE,Y,VACCINE A VACCINE B,VAXAB,VACCINE A VACCINE B,VAXAB,VACCINE B,VACCINE B,VACCINE A,VACCINE A,VACCINE B,VACCINE B,2021-11-03,2021-11-03T10:50:00Z,2021-12-30,2021-12-30T09:10:00Z,2021-12-30,2022-04-27,2022-01-05,,64,DAY 7,7,VACCINATION 2,2,Swelling occurrence indicator deltoid muscle left,OCINS,14,REACTOGENICITY,ADMINISTRATION SITE,,,Y,,,,,,,,,,,VACCINATION 2,,1,VACCINE B,2021-12-30T09:10:00,2021-12-30T09:10:00,,2021-11-03,2021-12-30,,
179,ABC,ABC-1001,1001,1001,74,YEARS,F,WHITE,Y,VACCINE A VACCINE B,VAXAB,VACCINE A VACCINE B,VAXAB,VACCINE B,VACCINE B,VACCINE A,VACCINE A,VACCINE B,VACCINE B,2021-11-03,2021-11-03T10:50:00Z,2021-12-30,2021-12-30T09:10:00Z,2021-12-30,2022-04-27,2021-12-30,,58,DAY 1,1,VACCINATION 2,2,Vomiting occurrence indicator,OCCVOM,31,REACTOGENICITY,SYSTEMIC,,,Y,,,Occurrence Indicator,VACCINATION 2-VOMITING-DAY 1,VACCINATION 2-VOMITING,OCCUR,VOMITING,NOT DONE,SUBJECT DID NOT COMPLETE ELECTRONIC DIARY,,VACCINATION 2,SINCE VACCINATION,1,VACCINE B,2021-12-30T09:10:00,2021-12-30T09:10:00,,2021-11-03,2021-12-30,,
180,ABC,ABC-1001,1001,1001,74,YEARS,F,WHITE,Y,VACCINE A VACCINE B,VAXAB,VACCINE A VACCINE B,VAXAB,VACCINE B,VACCINE B,VACCINE A,VACCINE A,VACCINE B,VACCINE B,2021-11-03,2021-11-03T10:50:00Z,2021-12-30,2021-12-30T09:10:00Z,2021-12-30,2022-04-27,2021-12-31,,59,DAY 2,2,VACCINATION 2,2,Vomiting occurrence indicator,OCCVOM,31,REACTOGENICITY,SYSTEMIC,,,Y,,,Occurrence Indicator,VACCINATION 2-VOMITING-DAY 2,VACCINATION 2-VOMITING,OCCUR,VOMITING,NOT DONE,SUBJECT DID NOT COMPLETE ELECTRONIC DIARY,,VACCINATION 2,,1,VACCINE B,2021-12-30T09:10:00,2021-12-30T09:10:00,,2021-11-03,2021-12-30,,
181,ABC,ABC-1001,1001,1001,74,YEARS,F,WHITE,Y,VACCINE A VACCINE B,VAXAB,VACCINE A VACCINE B,VAXAB,VACCINE B,VACCINE B,VACCINE A,VACCINE A,VACCINE B,VACCINE B,2021-11-03,2021-11-03T10:50:00Z,2021-12-30,2021-12-30T09:10:00Z,2021-12-30,2022-04-27,2022-01-01,,60,DAY 3,3,VACCINATION 2,2,Vomiting occurrence indicator,OCCVOM,31,REACTOGENICITY,SYSTEMIC,,,Y,,,Occurrence Indicator,VACCINATION 2-VOMITING-DAY 3,VACCINATION 2-VOMITING,OCCUR,VOMITING,NOT DONE,SUBJECT DID NOT COMPLETE ELECTRONIC DIARY,,VACCINATION 2,,1,VACCINE B,2021-12-30T09:10:00,2021-12-30T09:10:00,,2021-11-03,2021-12-30,,
182,ABC,ABC-1001,1001,1001,74,YEARS,F,WHITE,Y,VACCINE A VACCINE B,VAXAB,VACCINE A VACCINE B,VAXAB,VACCINE B,VACCINE B,VACCINE A,VACCINE A,VACCINE B,VACCINE B,2021-11-03,2021-11-03T10:50:00Z,2021-12-30,2021-12-30T09:10:00Z,2021-12-30,2022-04-27,2022-01-02,,61,DAY 4,4,VACCINATION 2,2,Vomiting occurrence indicator,OCCVOM,31,REACTOGENICITY,SYSTEMIC,,,Y,,,Occurrence Indicator,VACCINATION 2-VOMITING-DAY 4,VACCINATION 2-VOMITING,OCCUR,VOMITING,NOT DONE,SUBJECT DID NOT COMPLETE ELECTRONIC DIARY,,VACCINATION 2,,1,VACCINE B,2021-12-30T09:10:00,2021-12-30T09:10:00,,2021-11-03,2021-12-30,,
183,ABC,ABC-1001,1001,1001,74,YEARS,F,WHITE,Y,VACCINE A VACCINE B,VAXAB,VACCINE A VACCINE B,VAXAB,VACCINE B,VACCINE B,VACCINE A,VACCINE A,VACCINE B,VACCINE B,2021-11-03,2021-11-03T10:50:00Z,2021-12-30,2021-12-30T09:10:00Z,2021-12-30,2022-04-27,2022-01-03,,62,DAY 5,5,VACCINATION 2,2,Vomiting occurrence indicator,OCCVOM,31,REACTOGENICITY,SYSTEMIC,,,Y,,,Occurrence Indicator,VACCINATION 2-VOMITING-DAY 5,VACCINATION 2-VOMITING,OCCUR,VOMITING,NOT DONE,SUBJECT DID NOT COMPLETE ELECTRONIC DIARY,,VACCINATION 2,,1,VACCINE B,2021-12-30T09:10:00,2021-12-30T09:10:00,,2021-11-03,2021-12-30,,
184,ABC,ABC-1001,1001,1001,74,YEARS,F,WHITE,Y,VACCINE A VACCINE B,VAXAB,VACCINE A VACCINE B,VAXAB,VACCINE B,VACCINE B,VACCINE A,VACCINE A,VACCINE B,VACCINE B,2021-11-03,2021-11-03T10:50:00Z,2021-12-30,2021-12-30T09:10:00Z,2021-12-30,2022-04-27,2022-01-04,,63,DAY 6,6,VACCINATION 2,2,Vomiting occurrence indicator,OCCVOM,31,REACTOGENICITY,SYSTEMIC,,,Y,,,Occurrence Indicator,VACCINATION 2-VOMITING-DAY 6,VACCINATION 2-VOMITING,OCCUR,VOMITING,NOT DONE,SUBJECT DID NOT COMPLETE ELECTRONIC DIARY,,VACCINATION 2,,1,VACCINE B,2021-12-30T09:10:00,2021-12-30T09:10:00,,2021-11-03,2021-12-30,,
185,ABC,ABC-1001,1001,1001,74,YEARS,F,WHITE,Y,VACCINE A VACCINE B,VAXAB,VACCINE A VACCINE B,VAXAB,VACCINE B,VACCINE B,VACCINE A,VACCINE A,VACCINE B,VACCINE B,2021-11-03,2021-11-03T10:50:00Z,2021-12-30,2021-12-30T09:10:00Z,2021-12-30,2022-04-27,2022-01-05,,64,DAY 7,7,VACCINATION 2,2,Vomiting occurrence indicator,OCCVOM,31,REACTOGENICITY,SYSTEMIC,,,Y,,,Occurrence Indicator,VACCINATION 2-VOMITING-DAY 7,VACCINATION 2-VOMITING,OCCUR,VOMITING,NOT DONE,SUBJECT DID NOT COMPLETE ELECTRONIC DIARY,,VACCINATION 2,,1,VACCINE B,2021-12-30T09:10:00,2021-12-30T09:10:00,,2021-11-03,2021-12-30,,
186,ABC,ABC-1002,1002,1002,70,YEARS,F,BLACK OR AFRICAN AMERICAN,Y,VACCINE A VACCINE B,VAXAB,VACCINE A VACCINE B,VAXAB,VACCINE A,VACCINE A,VACCINE A,VACCINE A,VACCINE B,VACCINE B,2021-10-07,2021-10-07T12:48:00Z,2021-12-16,2021-12-16T12:41:00Z,2021-10-07,2021-12-15,2021-10-07,2021-10-07T19:14:10Z,1,DAY 1,1,VACCINATION 1,1,Chills occurrence indicator,OCCHILLS,18,REACTOGENICITY,SYSTEMIC,,N,Y,,,Occurrence Indicator,VACCINATION 1-CHILLS-DAY 1,VACCINATION 1-CHILLS,OCCUR,CHILLS,,,STUDY SUBJECT,VACCINATION 1,SINCE VACCINATION,1,VACCINE A,2021-10-07T12:48:00,2021-10-07T12:48:00,N,2021-10-07,2021-12-16,N,N
187,ABC,ABC-1002,1002,1002,70,YEARS,F,BLACK OR AFRICAN AMERICAN,Y,VACCINE A VACCINE B,VAXAB,VACCINE A VACCINE B,VAXAB,VACCINE A,VACCINE A,VACCINE A,VACCINE A,VACCINE B,VACCINE B,2021-10-07,2021-10-07T12:48:00Z,2021-12-16,2021-12-16T12:41:00Z,2021-10-07,2021-12-15,2021-10-08,2021-10-08T18:13:47Z,2,DAY 2,2,VACCINATION 1,1,Chills occurrence indicator,OCCHILLS,18,REACTOGENICITY,SYSTEMIC,,N,Y,,,Occurrence Indicator,VACCINATION 1-CHILLS-DAY 2,VACCINATION 1-CHILLS,OCCUR,CHILLS,,,STUDY SUBJECT,VACCINATION 1,,1,VACCINE A,2021-10-07T12:48:00,2021-10-07T12:48:00,N,2021-10-07,2021-12-16,N,N
188,ABC,ABC-1002,1002,1002,70,YEARS,F,BLACK OR AFRICAN AMERICAN,Y,VACCINE A VACCINE B,VAXAB,VACCINE A VACCINE B,VAXAB,VACCINE A,VACCINE A,VACCINE A,VACCINE A,VACCINE B,VACCINE B,2021-10-07,2021-10-07T12:48:00Z,2021-12-16,2021-12-16T12:41:00Z,2021-10-07,2021-12-15,2021-10-09,2021-10-09T18:02:12Z,3,DAY 3,3,VACCINATION 1,1,Chills occurrence indicator,OCCHILLS,18,REACTOGENICITY,SYSTEMIC,,N,Y,,,Occurrence Indicator,VACCINATION 1-CHILLS-DAY 3,VACCINATION 1-CHILLS,OCCUR,CHILLS,,,STUDY SUBJECT,VACCINATION 1,,1,VACCINE A,2021-10-07T12:48:00,2021-10-07T12:48:00,N,2021-10-07,2021-12-16,N,N
189,ABC,ABC-1002,1002,1002,70,YEARS,F,BLACK OR AFRICAN AMERICAN,Y,VACCINE A VACCINE B,VAXAB,VACCINE A VACCINE B,VAXAB,VACCINE A,VACCINE A,VACCINE A,VACCINE A,VACCINE B,VACCINE B,2021-10-07,2021-10-07T12:48:00Z,2021-12-16,2021-12-16T12:41:00Z,2021-10-07,2021-12-15,2021-10-10,2021-10-10T18:03:17Z,4,DAY 4,4,VACCINATION 1,1,Chills occurrence indicator,OCCHILLS,18,REACTOGENICITY,SYSTEMIC,,N,Y,,,Occurrence Indicator,VACCINATION 1-CHILLS-DAY 4,VACCINATION 1-CHILLS,OCCUR,CHILLS,,,STUDY SUBJECT,VACCINATION 1,,1,VACCINE A,2021-10-07T12:48:00,2021-10-07T12:48:00,N,2021-10-07,2021-12-16,N,N
190,ABC,ABC-1002,1002,1002,70,YEARS,F,BLACK OR AFRICAN AMERICAN,Y,VACCINE A VACCINE B,VAXAB,VACCINE A VACCINE B,VAXAB,VACCINE A,VACCINE A,VACCINE A,VACCINE A,VACCINE B,VACCINE B,2021-10-07,2021-10-07T12:48:00Z,2021-12-16,2021-12-16T12:41:00Z,2021-10-07,2021-12-15,2021-10-11,2021-10-11T18:11:54Z,5,DAY 5,5,VACCINATION 1,1,Chills occurrence indicator,OCCHILLS,18,REACTOGENICITY,SYSTEMIC,,N,Y,,,Occurrence Indicator,VACCINATION 1-CHILLS-DAY 5,VACCINATION 1-CHILLS,OCCUR,CHILLS,,,STUDY SUBJECT,VACCINATION 1,,1,VACCINE A,2021-10-07T12:48:00,2021-10-07T12:48:00,N,2021-10-07,2021-12-16,N,N
191,ABC,ABC-1002,1002,1002,70,YEARS,F,BLACK OR AFRICAN AMERICAN,Y,VACCINE A VACCINE B,VAXAB,VACCINE A VACCINE B,VAXAB,VACCINE A,VACCINE A,VACCINE A,VACCINE A,VACCINE B,VACCINE B,2021-10-07,2021-10-07T12:48:00Z,2021-12-16,2021-12-16T12:41:00Z,2021-10-07,2021-12-15,2021-10-12,,6,DAY 6,6,VACCINATION 1,1,Chills occurrence indicator,OCCHILLS,18,REACTOGENICITY,SYSTEMIC,,,Y,,,Occurrence Indicator,VACCINATION 1-CHILLS-DAY 6,VACCINATION 1-CHILLS,OCCUR,CHILLS,NOT DONE,SUBJECT DID NOT COMPLETE ELECTRONIC DIARY,,VACCINATION 1,,1,VACCINE A,2021-10-07T12:48:00,2021-10-07T12:48:00,,2021-10-07,2021-12-16,,
192,ABC,ABC-1002,1002,1002,70,YEARS,F,BLACK OR AFRICAN AMERICAN,Y,VACCINE A VACCINE B,VAXAB,VACCINE A VACCINE B,VAXAB,VACCINE A,VACCINE A,VACCINE A,VACCINE A,VACCINE B,VACCINE B,2021-10-07,2021-10-07T12:48:00Z,2021-12-16,2021-12-16T12:41:00Z,2021-10-07,2021-12-15,2021-10-13,2021-10-13T19:27:24Z,7,DAY 7,7,VACCINATION 1,1,Chills occurrence indicator,OCCHILLS,18,REACTOGENICITY,SYSTEMIC,,N,Y,,,Occurrence Indicator,VACCINATION 1-CHILLS-DAY 7,VACCINATION 1-CHILLS,OCCUR,CHILLS,,,STUDY SUBJECT,VACCINATION 1,,1,VACCINE A,2021-10-07T12:48:00,2021-10-07T12:48:00,N,2021-10-07,2021-12-16,N,N
193,ABC,ABC-1002,1002,1002,70,YEARS,F,BLACK OR AFRICAN AMERICAN,Y,VACCINE A VACCINE B,VAXAB,VACCINE A VACCINE B,VAXAB,VACCINE A,VACCINE A,VACCINE A,VACCINE A,VACCINE B,VACCINE B,2021-10-07,2021-10-07T12:48:00Z,2021-12-16,2021-12-16T12:41:00Z,2021-10-07,2021-12-15,2021-10-07,2021-10-07T19:14:10Z,1,DAY 1,1,VACCINATION 1,1,Diarrhea occurrence indicator,OCDIAR,19,REACTOGENICITY,SYSTEMIC,,N,Y,,,Occurrence Indicator,VACCINATION 1-DIARRHEA-DAY 1,VACCINATION 1-DIARRHEA,OCCUR,DIARRHEA,,,STUDY SUBJECT,VACCINATION 1,SINCE VACCINATION,1,VACCINE A,2021-10-07T12:48:00,2021-10-07T12:48:00,N,2021-10-07,2021-12-16,N,N
194,ABC,ABC-1002,1002,1002,70,YEARS,F,BLACK OR AFRICAN AMERICAN,Y,VACCINE A VACCINE B,VAXAB,VACCINE A VACCINE B,VAXAB,VACCINE A,VACCINE A,VACCINE A,VACCINE A,VACCINE B,VACCINE B,2021-10-07,2021-10-07T12:48:00Z,2021-12-16,2021-12-16T12:41:00Z,2021-10-07,2021-12-15,2021-10-08,2021-10-08T18:13:47Z,2,DAY 2,2,VACCINATION 1,1,Diarrhea occurrence indicator,OCDIAR,19,REACTOGENICITY,SYSTEMIC,,N,Y,,,Occurrence Indicator,VACCINATION 1-DIARRHEA-DAY 2,VACCINATION 1-DIARRHEA,OCCUR,DIARRHEA,,,STUDY SUBJECT,VACCINATION 1,,1,VACCINE A,2021-10-07T12:48:00,2021-10-07T12:48:00,N,2021-10-07,2021-12-16,N,N
195,ABC,ABC-1002,1002,1002,70,YEARS,F,BLACK OR AFRICAN AMERICAN,Y,VACCINE A VACCINE B,VAXAB,VACCINE A VACCINE B,VAXAB,VACCINE A,VACCINE A,VACCINE A,VACCINE A,VACCINE B,VACCINE B,2021-10-07,2021-10-07T12:48:00Z,2021-12-16,2021-12-16T12:41:00Z,2021-10-07,2021-12-15,2021-10-09,2021-10-09T18:02:12Z,3,DAY 3,3,VACCINATION 1,1,Diarrhea occurrence indicator,OCDIAR,19,REACTOGENICITY,SYSTEMIC,,N,Y,,,Occurrence Indicator,VACCINATION 1-DIARRHEA-DAY 3,VACCINATION 1-DIARRHEA,OCCUR,DIARRHEA,,,STUDY SUBJECT,VACCINATION 1,,1,VACCINE A,2021-10-07T12:48:00,2021-10-07T12:48:00,N,2021-10-07,2021-12-16,N,N
196,ABC,ABC-1002,1002,1002,70,YEARS,F,BLACK OR AFRICAN AMERICAN,Y,VACCINE A VACCINE B,VAXAB,VACCINE A VACCINE B,VAXAB,VACCINE A,VACCINE A,VACCINE A,VACCINE A,VACCINE B,VACCINE B,2021-10-07,2021-10-07T12:48:00Z,2021-12-16,2021-12-16T12:41:00Z,2021-10-07,2021-12-15,2021-10-10,2021-10-10T18:03:17Z,4,DAY 4,4,VACCINATION 1,1,Diarrhea occurrence indicator,OCDIAR,19,REACTOGENICITY,SYSTEMIC,,N,Y,,,Occurrence Indicator,VACCINATION 1-DIARRHEA-DAY 4,VACCINATION 1-DIARRHEA,OCCUR,DIARRHEA,,,STUDY SUBJECT,VACCINATION 1,,1,VACCINE A,2021-10-07T12:48:00,2021-10-07T12:48:00,N,2021-10-07,2021-12-16,N,N
197,ABC,ABC-1002,1002,1002,70,YEARS,F,BLACK OR AFRICAN AMERICAN,Y,VACCINE A VACCINE B,VAXAB,VACCINE A VACCINE B,VAXAB,VACCINE A,VACCINE A,VACCINE A,VACCINE A,VACCINE B,VACCINE B,2021-10-07,2021-10-07T12:48:00Z,2021-12-16,2021-12-16T12:41:00Z,2021-10-07,2021-12-15,2021-10-11,2021-10-11T18:11:54Z,5,DAY 5,5,VACCINATION 1,1,Diarrhea occurrence indicator,OCDIAR,19,REACTOGENICITY,SYSTEMIC,,N,Y,,,Occurrence Indicator,VACCINATION 1-DIARRHEA-DAY 5,VACCINATION 1-DIARRHEA,OCCUR,DIARRHEA,,,STUDY SUBJECT,VACCINATION 1,,1,VACCINE A,2021-10-07T12:48:00,2021-10-07T12:48:00,N,2021-10-07,2021-12-16,N,N
198,ABC,ABC-1002,1002,1002,70,YEARS,F,BLACK OR AFRICAN AMERICAN,Y,VACCINE A VACCINE B,VAXAB,VACCINE A VACCINE B,VAXAB,VACCINE A,VACCINE A,VACCINE A,VACCINE A,VACCINE B,VACCINE B,2021-10-07,2021-10-07T12:48:00Z,2021-12-16,2021-12-16T12:41:00Z,2021-10-07,2021-12-15,2021-10-12,,6,DAY 6,6,VACCINATION 1,1,Diarrhea occurrence indicator,OCDIAR,19,REACTOGENICITY,SYSTEMIC,,,Y,,,Occurrence Indicator,VACCINATION 1-DIARRHEA-DAY 6,VACCINATION 1-DIARRHEA,OCCUR,DIARRHEA,NOT DONE,SUBJECT DID NOT COMPLETE ELECTRONIC DIARY,,VACCINATION 1,,1,VACCINE A,2021-10-07T12:48:00,2021-10-07T12:48:00,,2021-10-07,2021-12-16,,
199,ABC,ABC-1002,1002,1002,70,YEARS,F,BLACK OR AFRICAN AMERICAN,Y,VACCINE A VACCINE B,VAXAB,VACCINE A VACCINE B,VAXAB,VACCINE A,VACCINE A,VACCINE A,VACCINE A,VACCINE B,VACCINE B,2021-10-07,2021-10-07T12:48:00Z,2021-12-16,2021-12-16T12:41:00Z,2021-10-07,2021-12-15,2021-10-13,2021-10-13T19:27:24Z,7,DAY 7,7,VACCINATION 1,1,Diarrhea occurrence indicator,OCDIAR,19,REACTOGENICITY,SYSTEMIC,,N,Y,,,Occurrence Indicator,VACCINATION 1-DIARRHEA-DAY 7,VACCINATION 1-DIARRHEA,OCCUR,DIARRHEA,,,STUDY SUBJECT,VACCINATION 1,,1,VACCINE A,2021-10-07T12:48:00,2021-10-07T12:48:00,N,2021-10-07,2021-12-16,N,N
200,ABC,ABC-1002,1002,1002,70,YEARS,F,BLACK OR AFRICAN AMERICAN,Y,VACCINE A VACCINE B,VAXAB,VACCINE A VACCINE B,VAXAB,VACCINE A,VACCINE A,VACCINE A,VACCINE A,VACCINE B,VACCINE B,2021-10-07,2021-10-07T12:48:00Z,2021-12-16,2021-12-16T12:41:00Z,2021-10-07,2021-12-15,2021-10-07,2021-10-07T19:14:10Z,1,DAY 1,1,VACCINATION 1,1,Fatigue occurrence indicator,OCFATIG,16,REACTOGENICITY,SYSTEMIC,,N,Y,,,Occurrence Indicator,VACCINATION 1-FATIGUE-DAY 1,VACCINATION 1-FATIGUE,OCCUR,FATIGUE,,,STUDY SUBJECT,VACCINATION 1,SINCE VACCINATION,1,VACCINE A,2021-10-07T12:48:00,2021-10-07T12:48:00,N,2021-10-07,2021-12-16,N,N
201,ABC,ABC-1002,1002,1002,70,YEARS,F,BLACK OR AFRICAN AMERICAN,Y,VACCINE A VACCINE B,VAXAB,VACCINE A VACCINE B,VAXAB,VACCINE A,VACCINE A,VACCINE A,VACCINE A,VACCINE B,VACCINE B,2021-10-07,2021-10-07T12:48:00Z,2021-12-16,2021-12-16T12:41:00Z,2021-10-07,2021-12-15,2021-10-08,2021-10-08T18:13:47Z,2,DAY 2,2,VACCINATION 1,1,Fatigue occurrence indicator,OCFATIG,16,REACTOGENICITY,SYSTEMIC,,N,Y,,,Occurrence Indicator,VACCINATION 1-FATIGUE-DAY 2,VACCINATION 1-FATIGUE,OCCUR,FATIGUE,,,STUDY SUBJECT,VACCINATION 1,,1,VACCINE A,2021-10-07T12:48:00,2021-10-07T12:48:00,N,2021-10-07,2021-12-16,N,N
202,ABC,ABC-1002,1002,1002,70,YEARS,F,BLACK OR AFRICAN AMERICAN,Y,VACCINE A VACCINE B,VAXAB,VACCINE A VACCINE B,VAXAB,VACCINE A,VACCINE A,VACCINE A,VACCINE A,VACCINE B,VACCINE B,2021-10-07,2021-10-07T12:48:00Z,2021-12-16,2021-12-16T12:41:00Z,2021-10-07,2021-12-15,2021-10-09,2021-10-09T18:02:12Z,3,DAY 3,3,VACCINATION 1,1,Fatigue occurrence indicator,OCFATIG,16,REACTOGENICITY,SYSTEMIC,,N,Y,,,Occurrence Indicator,VACCINATION 1-FATIGUE-DAY 3,VACCINATION 1-FATIGUE,OCCUR,FATIGUE,,,STUDY SUBJECT,VACCINATION 1,,1,VACCINE A,2021-10-07T12:48:00,2021-10-07T12:48:00,N,2021-10-07,2021-12-16,N,N
203,ABC,ABC-1002,1002,1002,70,YEARS,F,BLACK OR AFRICAN AMERICAN,Y,VACCINE A VACCINE B,VAXAB,VACCINE A VACCINE B,VAXAB,VACCINE A,VACCINE A,VACCINE A,VACCINE A,VACCINE B,VACCINE B,2021-10-07,2021-10-07T12:48:00Z,2021-12-16,2021-12-16T12:41:00Z,2021-10-07,2021-12-15,2021-10-10,2021-10-10T18:03:17Z,4,DAY 4,4,VACCINATION 1,1,Fatigue occurrence indicator,OCFATIG,16,REACTOGENICITY,SYSTEMIC,,N,Y,,,Occurrence Indicator,VACCINATION 1-FATIGUE-DAY 4,VACCINATION 1-FATIGUE,OCCUR,FATIGUE,,,STUDY SUBJECT,VACCINATION 1,,1,VACCINE A,2021-10-07T12:48:00,2021-10-07T12:48:00,N,2021-10-07,2021-12-16,N,N
204,ABC,ABC-1002,1002,1002,70,YEARS,F,BLACK OR AFRICAN AMERICAN,Y,VACCINE A VACCINE B,VAXAB,VACCINE A VACCINE B,VAXAB,VACCINE A,VACCINE A,VACCINE A,VACCINE A,VACCINE B,VACCINE B,2021-10-07,2021-10-07T12:48:00Z,2021-12-16,2021-12-16T12:41:00Z,2021-10-07,2021-12-15,2021-10-11,2021-10-11T18:11:54Z,5,DAY 5,5,VACCINATION 1,1,Fatigue occurrence indicator,OCFATIG,16,REACTOGENICITY,SYSTEMIC,,N,Y,,,Occurrence Indicator,VACCINATION 1-FATIGUE-DAY 5,VACCINATION 1-FATIGUE,OCCUR,FATIGUE,,,STUDY SUBJECT,VACCINATION 1,,1,VACCINE A,2021-10-07T12:48:00,2021-10-07T12:48:00,N,2021-10-07,2021-12-16,N,N
205,ABC,ABC-1002,1002,1002,70,YEARS,F,BLACK OR AFRICAN AMERICAN,Y,VACCINE A VACCINE B,VAXAB,VACCINE A VACCINE B,VAXAB,VACCINE A,VACCINE A,VACCINE A,VACCINE A,VACCINE B,VACCINE B,2021-10-07,2021-10-07T12:48:00Z,2021-12-16,2021-12-16T12:41:00Z,2021-10-07,2021-12-15,2021-10-12,,6,DAY 6,6,VACCINATION 1,1,Fatigue occurrence indicator,OCFATIG,16,REACTOGENICITY,SYSTEMIC,,,Y,,,Occurrence Indicator,VACCINATION 1-FATIGUE-DAY 6,VACCINATION 1-FATIGUE,OCCUR,FATIGUE,NOT DONE,SUBJECT DID NOT COMPLETE ELECTRONIC DIARY,,VACCINATION 1,,1,VACCINE A,2021-10-07T12:48:00,2021-10-07T12:48:00,,2021-10-07,2021-12-16,,
206,ABC,ABC-1002,1002,1002,70,YEARS,F,BLACK OR AFRICAN AMERICAN,Y,VACCINE A VACCINE B,VAXAB,VACCINE A VACCINE B,VAXAB,VACCINE A,VACCINE A,VACCINE A,VACCINE A,VACCINE B,VACCINE B,2021-10-07,2021-10-07T12:48:00Z,2021-12-16,2021-12-16T12:41:00Z,2021-10-07,2021-12-15,2021-10-13,2021-10-13T19:27:24Z,7,DAY 7,7,VACCINATION 1,1,Fatigue occurrence indicator,OCFATIG,16,REACTOGENICITY,SYSTEMIC,,N,Y,,,Occurrence Indicator,VACCINATION 1-FATIGUE-DAY 7,VACCINATION 1-FATIGUE,OCCUR,FATIGUE,,,STUDY SUBJECT,VACCINATION 1,,1,VACCINE A,2021-10-07T12:48:00,2021-10-07T12:48:00,N,2021-10-07,2021-12-16,N,N
207,ABC,ABC-1002,1002,1002,70,YEARS,F,BLACK OR AFRICAN AMERICAN,Y,VACCINE A VACCINE B,VAXAB,VACCINE A VACCINE B,VAXAB,VACCINE A,VACCINE A,VACCINE A,VACCINE A,VACCINE B,VACCINE B,2021-10-07,2021-10-07T12:48:00Z,2021-12-16,2021-12-16T12:41:00Z,2021-10-07,2021-12-15,2021-10-07,2021-10-07T19:14:10Z,,DAY 1,1,VACCINATION 1,1,Fever occurrence indicator,OCFEVER,5,REACTOGENICITY,SYSTEMIC,,N,Y,,,,,,,,,,,VACCINATION 1,,,,,,,2021-10-07,2021-12-16,N,N
208,ABC,ABC-1002,1002,1002,70,YEARS,F,BLACK OR AFRICAN AMERICAN,Y,VACCINE A VACCINE B,VAXAB,VACCINE A VACCINE B,VAXAB,VACCINE A,VACCINE A,VACCINE A,VACCINE A,VACCINE B,VACCINE B,2021-10-07,2021-10-07T12:48:00Z,2021-12-16,2021-12-16T12:41:00Z,2021-10-07,2021-12-15,2021-10-08,2021-10-08T18:13:47Z,,DAY 2,2,VACCINATION 1,1,Fever occurrence indicator,OCFEVER,5,REACTOGENICITY,SYSTEMIC,,N,Y,,,,,,,,,,,VACCINATION 1,,,,,,,2021-10-07,2021-12-16,N,N
209,ABC,ABC-1002,1002,1002,70,YEARS,F,BLACK OR AFRICAN AMERICAN,Y,VACCINE A VACCINE B,VAXAB,VACCINE A VACCINE B,VAXAB,VACCINE A,VACCINE A,VACCINE A,VACCINE A,VACCINE B,VACCINE B,2021-10-07,2021-10-07T12:48:00Z,2021-12-16,2021-12-16T12:41:00Z,2021-10-07,2021-12-15,2021-10-09,2021-10-09T18:02:12Z,,DAY 3,3,VACCINATION 1,1,Fever occurrence indicator,OCFEVER,5,REACTOGENICITY,SYSTEMIC,,N,Y,,,,,,,,,,,VACCINATION 1,,,,,,,2021-10-07,2021-12-16,N,N
210,ABC,ABC-1002,1002,1002,70,YEARS,F,BLACK OR AFRICAN AMERICAN,Y,VACCINE A VACCINE B,VAXAB,VACCINE A VACCINE B,VAXAB,VACCINE A,VACCINE A,VACCINE A,VACCINE A,VACCINE B,VACCINE B,2021-10-07,2021-10-07T12:48:00Z,2021-12-16,2021-12-16T12:41:00Z,2021-10-07,2021-12-15,2021-10-10,2021-10-10T18:03:17Z,,DAY 4,4,VACCINATION 1,1,Fever occurrence indicator,OCFEVER,5,REACTOGENICITY,SYSTEMIC,,N,Y,,,,,,,,,,,VACCINATION 1,,,,,,,2021-10-07,2021-12-16,N,N
211,ABC,ABC-1002,1002,1002,70,YEARS,F,BLACK OR AFRICAN AMERICAN,Y,VACCINE A VACCINE B,VAXAB,VACCINE A VACCINE B,VAXAB,VACCINE A,VACCINE A,VACCINE A,VACCINE A,VACCINE B,VACCINE B,2021-10-07,2021-10-07T12:48:00Z,2021-12-16,2021-12-16T12:41:00Z,2021-10-07,2021-12-15,2021-10-11,2021-10-11T18:11:54Z,,DAY 5,5,VACCINATION 1,1,Fever occurrence indicator,OCFEVER,5,REACTOGENICITY,SYSTEMIC,,N,Y,,,,,,,,,,,VACCINATION 1,,,,,,,2021-10-07,2021-12-16,N,N
212,ABC,ABC-1002,1002,1002,70,YEARS,F,BLACK OR AFRICAN AMERICAN,Y,VACCINE A VACCINE B,VAXAB,VACCINE A VACCINE B,VAXAB,VACCINE A,VACCINE A,VACCINE A,VACCINE A,VACCINE B,VACCINE B,2021-10-07,2021-10-07T12:48:00Z,2021-12-16,2021-12-16T12:41:00Z,2021-10-07,2021-12-15,2021-10-12,,,DAY 6,6,VACCINATION 1,1,Fever occurrence indicator,OCFEVER,5,REACTOGENICITY,SYSTEMIC,,,Y,,,,,,,,,,,VACCINATION 1,,,,,,,2021-10-07,2021-12-16,,
213,ABC,ABC-1002,1002,1002,70,YEARS,F,BLACK OR AFRICAN AMERICAN,Y,VACCINE A VACCINE B,VAXAB,VACCINE A VACCINE B,VAXAB,VACCINE A,VACCINE A,VACCINE A,VACCINE A,VACCINE B,VACCINE B,2021-10-07,2021-10-07T12:48:00Z,2021-12-16,2021-12-16T12:41:00Z,2021-10-07,2021-12-15,2021-10-13,2021-10-13T19:27:24Z,,DAY 7,7,VACCINATION 1,1,Fever occurrence indicator,OCFEVER,5,REACTOGENICITY,SYSTEMIC,,N,Y,,,,,,,,,,,VACCINATION 1,,,,,,,2021-10-07,2021-12-16,N,N
214,ABC,ABC-1002,1002,1002,70,YEARS,F,BLACK OR AFRICAN AMERICAN,Y,VACCINE A VACCINE B,VAXAB,VACCINE A VACCINE B,VAXAB,VACCINE A,VACCINE A,VACCINE A,VACCINE A,VACCINE B,VACCINE B,2021-10-07,2021-10-07T12:48:00Z,2021-12-16,2021-12-16T12:41:00Z,2021-10-07,2021-12-15,2021-10-07,2021-10-07T19:14:10Z,1,DAY 1,1,VACCINATION 1,1,Headache occurrence indicator,OCHEAD,17,REACTOGENICITY,SYSTEMIC,,N,Y,,,Occurrence Indicator,VACCINATION 1-HEADACHE-DAY 1,VACCINATION 1-HEADACHE,OCCUR,HEADACHE,,,STUDY SUBJECT,VACCINATION 1,SINCE VACCINATION,1,VACCINE A,2021-10-07T12:48:00,2021-10-07T12:48:00,N,2021-10-07,2021-12-16,Y,N
215,ABC,ABC-1002,1002,1002,70,YEARS,F,BLACK OR AFRICAN AMERICAN,Y,VACCINE A VACCINE B,VAXAB,VACCINE A VACCINE B,VAXAB,VACCINE A,VACCINE A,VACCINE A,VACCINE A,VACCINE B,VACCINE B,2021-10-07,2021-10-07T12:48:00Z,2021-12-16,2021-12-16T12:41:00Z,2021-10-07,2021-12-15,2021-10-08,2021-10-08T18:13:47Z,2,DAY 2,2,VACCINATION 1,1,Headache occurrence indicator,OCHEAD,17,REACTOGENICITY,SYSTEMIC,,N,Y,,,Occurrence Indicator,VACCINATION 1-HEADACHE-DAY 2,VACCINATION 1-HEADACHE,OCCUR,HEADACHE,,,STUDY SUBJECT,VACCINATION 1,,1,VACCINE A,2021-10-07T12:48:00,2021-10-07T12:48:00,N,2021-10-07,2021-12-16,Y,N
216,ABC,ABC-1002,1002,1002,70,YEARS,F,BLACK OR AFRICAN AMERICAN,Y,VACCINE A VACCINE B,VAXAB,VACCINE A VACCINE B,VAXAB,VACCINE A,VACCINE A,VACCINE A,VACCINE A,VACCINE B,VACCINE B,2021-10-07,2021-10-07T12:48:00Z,2021-12-16,2021-12-16T12:41:00Z,2021-10-07,2021-12-15,2021-10-09,2021-10-09T18:02:12Z,3,DAY 3,3,VACCINATION 1,1,Headache occurrence indicator,OCHEAD,17,REACTOGENICITY,SYSTEMIC,,N,Y,,,Occurrence Indicator,VACCINATION 1-HEADACHE-DAY 3,VACCINATION 1-HEADACHE,OCCUR,HEADACHE,,,STUDY SUBJECT,VACCINATION 1,,1,VACCINE A,2021-10-07T12:48:00,2021-10-07T12:48:00,N,2021-10-07,2021-12-16,Y,N
217,ABC,ABC-1002,1002,1002,70,YEARS,F,BLACK OR AFRICAN AMERICAN,Y,VACCINE A VACCINE B,VAXAB,VACCINE A VACCINE B,VAXAB,VACCINE A,VACCINE A,VACCINE A,VACCINE A,VACCINE B,VACCINE B,2021-10-07,2021-10-07T12:48:00Z,2021-12-16,2021-12-16T12:41:00Z,2021-10-07,2021-12-15,2021-10-10,2021-10-10T18:03:17Z,4,DAY 4,4,VACCINATION 1,1,Headache occurrence indicator,OCHEAD,17,REACTOGENICITY,SYSTEMIC,,N,Y,,,Occurrence Indicator,VACCINATION 1-HEADACHE-DAY 4,VACCINATION 1-HEADACHE,OCCUR,HEADACHE,,,STUDY SUBJECT,VACCINATION 1,,1,VACCINE A,2021-10-07T12:48:00,2021-10-07T12:48:00,N,2021-10-07,2021-12-16,Y,N
218,ABC,ABC-1002,1002,1002,70,YEARS,F,BLACK OR AFRICAN AMERICAN,Y,VACCINE A VACCINE B,VAXAB,VACCINE A VACCINE B,VAXAB,VACCINE A,VACCINE A,VACCINE A,VACCINE A,VACCINE B,VACCINE B,2021-10-07,2021-10-07T12:48:00Z,2021-12-16,2021-12-16T12:41:00Z,2021-10-07,2021-12-15,2021-10-11,2021-10-11T18:11:54Z,5,DAY 5,5,VACCINATION 1,1,Headache occurrence indicator,OCHEAD,17,REACTOGENICITY,SYSTEMIC,,Y,Y,,,Occurrence Indicator,VACCINATION 1-HEADACHE-DAY 5,VACCINATION 1-HEADACHE,OCCUR,HEADACHE,,,STUDY SUBJECT,VACCINATION 1,,1,VACCINE A,2021-10-07T12:48:00,2021-10-07T12:48:00,Y,2021-10-07,2021-12-16,Y,Y
219,ABC,ABC-1002,1002,1002,70,YEARS,F,BLACK OR AFRICAN AMERICAN,Y,VACCINE A VACCINE B,VAXAB,VACCINE A VACCINE B,VAXAB,VACCINE A,VACCINE A,VACCINE A,VACCINE A,VACCINE B,VACCINE B,2021-10-07,2021-10-07T12:48:00Z,2021-12-16,2021-12-16T12:41:00Z,2021-10-07,2021-12-15,2021-10-12,,6,DAY 6,6,VACCINATION 1,1,Headache occurrence indicator,OCHEAD,17,REACTOGENICITY,SYSTEMIC,,,Y,,,Occurrence Indicator,VACCINATION 1-HEADACHE-DAY 6,VACCINATION 1-HEADACHE,OCCUR,HEADACHE,NOT DONE,SUBJECT DID NOT COMPLETE ELECTRONIC DIARY,,VACCINATION 1,,1,VACCINE A,2021-10-07T12:48:00,2021-10-07T12:48:00,,2021-10-07,2021-12-16,Y,
220,ABC,ABC-1002,1002,1002,70,YEARS,F,BLACK OR AFRICAN AMERICAN,Y,VACCINE A VACCINE B,VAXAB,VACCINE A VACCINE B,VAXAB,VACCINE A,VACCINE A,VACCINE A,VACCINE A,VACCINE B,VACCINE B,2021-10-07,2021-10-07T12:48:00Z,2021-12-16,2021-12-16T12:41:00Z,2021-10-07,2021-12-15,2021-10-13,2021-10-13T19:27:24Z,7,DAY 7,7,VACCINATION 1,1,Headache occurrence indicator,OCHEAD,17,REACTOGENICITY,SYSTEMIC,,N,Y,,,Occurrence Indicator,VACCINATION 1-HEADACHE-DAY 7,VACCINATION 1-HEADACHE,OCCUR,HEADACHE,,,STUDY SUBJECT,VACCINATION 1,,1,VACCINE A,2021-10-07T12:48:00,2021-10-07T12:48:00,N,2021-10-07,2021-12-16,Y,N
221,ABC,ABC-1002,1002,1002,70,YEARS,F,BLACK OR AFRICAN AMERICAN,Y,VACCINE A VACCINE B,VAXAB,VACCINE A VACCINE B,VAXAB,VACCINE A,VACCINE A,VACCINE A,VACCINE A,VACCINE B,VACCINE B,2021-10-07,2021-10-07T12:48:00Z,2021-12-16,2021-12-16T12:41:00Z,2021-10-07,2021-12-15,2021-10-11,2021-10-11T18:11:54Z,5,DAY 5,5,VACCINATION 1,1,Headache severity/intensity,SEVHEAD,25,REACTOGENICITY,SYSTEMIC,2,MODERATE,Y,Y,Y,Severity/Intensity,VACCINATION 1-HEADACHE-DAY 5,VACCINATION 1-HEADACHE,SEV,HEADACHE,,,STUDY SUBJECT,VACCINATION 1,,1,VACCINE A,2021-10-07T12:48:00,2021-10-07T12:48:00,MODERATE,2021-10-07,2021-12-16,Y,Y
222,ABC,ABC-1002,1002,1002,70,YEARS,F,BLACK OR AFRICAN AMERICAN,Y,VACCINE A VACCINE B,VAXAB,VACCINE A VACCINE B,VAXAB,VACCINE A,VACCINE A,VACCINE A,VACCINE A,VACCINE B,VACCINE B,2021-10-07,2021-10-07T12:48:00Z,2021-12-16,2021-12-16T12:41:00Z,2021-10-07,2021-12-15,2021-10-07,2021-10-07T19:14:10Z,1,DAY 1,1,VACCINATION 1,1,New or worsened joint pain occurrence indicator,OCCNWJP,20,REACTOGENICITY,SYSTEMIC,,N,Y,,,Occurrence Indicator,VACCINATION 1-NEW OR WORSENED JOINT PAIN-DAY 1,VACCINATION 1-NEW OR WORSENED JOINT PAIN,OCCUR,NEW OR WORSENED JOINT PAIN,,,STUDY SUBJECT,VACCINATION 1,SINCE VACCINATION,1,VACCINE A,2021-10-07T12:48:00,2021-10-07T12:48:00,N,2021-10-07,2021-12-16,N,N
223,ABC,ABC-1002,1002,1002,70,YEARS,F,BLACK OR AFRICAN AMERICAN,Y,VACCINE A VACCINE B,VAXAB,VACCINE A VACCINE B,VAXAB,VACCINE A,VACCINE A,VACCINE A,VACCINE A,VACCINE B,VACCINE B,2021-10-07,2021-10-07T12:48:00Z,2021-12-16,2021-12-16T12:41:00Z,2021-10-07,2021-12-15,2021-10-08,2021-10-08T18:13:47Z,2,DAY 2,2,VACCINATION 1,1,New or worsened joint pain occurrence indicator,OCCNWJP,20,REACTOGENICITY,SYSTEMIC,,N,Y,,,Occurrence Indicator,VACCINATION 1-NEW OR WORSENED JOINT PAIN-DAY 2,VACCINATION 1-NEW OR WORSENED JOINT PAIN,OCCUR,NEW OR WORSENED JOINT PAIN,,,STUDY SUBJECT,VACCINATION 1,,1,VACCINE A,2021-10-07T12:48:00,2021-10-07T12:48:00,N,2021-10-07,2021-12-16,N,N
224,ABC,ABC-1002,1002,1002,70,YEARS,F,BLACK OR AFRICAN AMERICAN,Y,VACCINE A VACCINE B,VAXAB,VACCINE A VACCINE B,VAXAB,VACCINE A,VACCINE A,VACCINE A,VACCINE A,VACCINE B,VACCINE B,2021-10-07,2021-10-07T12:48:00Z,2021-12-16,2021-12-16T12:41:00Z,2021-10-07,2021-12-15,2021-10-09,2021-10-09T18:02:12Z,3,DAY 3,3,VACCINATION 1,1,New or worsened joint pain occurrence indicator,OCCNWJP,20,REACTOGENICITY,SYSTEMIC,,N,Y,,,Occurrence Indicator,VACCINATION 1-NEW OR WORSENED JOINT PAIN-DAY 3,VACCINATION 1-NEW OR WORSENED JOINT PAIN,OCCUR,NEW OR WORSENED JOINT PAIN,,,STUDY SUBJECT,VACCINATION 1,,1,VACCINE A,2021-10-07T12:48:00,2021-10-07T12:48:00,N,2021-10-07,2021-12-16,N,N
225,ABC,ABC-1002,1002,1002,70,YEARS,F,BLACK OR AFRICAN AMERICAN,Y,VACCINE A VACCINE B,VAXAB,VACCINE A VACCINE B,VAXAB,VACCINE A,VACCINE A,VACCINE A,VACCINE A,VACCINE B,VACCINE B,2021-10-07,2021-10-07T12:48:00Z,2021-12-16,2021-12-16T12:41:00Z,2021-10-07,2021-12-15,2021-10-10,2021-10-10T18:03:17Z,4,DAY 4,4,VACCINATION 1,1,New or worsened joint pain occurrence indicator,OCCNWJP,20,REACTOGENICITY,SYSTEMIC,,N,Y,,,Occurrence Indicator,VACCINATION 1-NEW OR WORSENED JOINT PAIN-DAY 4,VACCINATION 1-NEW OR WORSENED JOINT PAIN,OCCUR,NEW OR WORSENED JOINT PAIN,,,STUDY SUBJECT,VACCINATION 1,,1,VACCINE A,2021-10-07T12:48:00,2021-10-07T12:48:00,N,2021-10-07,2021-12-16,N,N
226,ABC,ABC-1002,1002,1002,70,YEARS,F,BLACK OR AFRICAN AMERICAN,Y,VACCINE A VACCINE B,VAXAB,VACCINE A VACCINE B,VAXAB,VACCINE A,VACCINE A,VACCINE A,VACCINE A,VACCINE B,VACCINE B,2021-10-07,2021-10-07T12:48:00Z,2021-12-16,2021-12-16T12:41:00Z,2021-10-07,2021-12-15,2021-10-11,2021-10-11T18:11:54Z,5,DAY 5,5,VACCINATION 1,1,New or worsened joint pain occurrence indicator,OCCNWJP,20,REACTOGENICITY,SYSTEMIC,,N,Y,,,Occurrence Indicator,VACCINATION 1-NEW OR WORSENED JOINT PAIN-DAY 5,VACCINATION 1-NEW OR WORSENED JOINT PAIN,OCCUR,NEW OR WORSENED JOINT PAIN,,,STUDY SUBJECT,VACCINATION 1,,1,VACCINE A,2021-10-07T12:48:00,2021-10-07T12:48:00,N,2021-10-07,2021-12-16,N,N
227,ABC,ABC-1002,1002,1002,70,YEARS,F,BLACK OR AFRICAN AMERICAN,Y,VACCINE A VACCINE B,VAXAB,VACCINE A VACCINE B,VAXAB,VACCINE A,VACCINE A,VACCINE A,VACCINE A,VACCINE B,VACCINE B,2021-10-07,2021-10-07T12:48:00Z,2021-12-16,2021-12-16T12:41:00Z,2021-10-07,2021-12-15,2021-10-12,,6,DAY 6,6,VACCINATION 1,1,New or worsened joint pain occurrence indicator,OCCNWJP,20,REACTOGENICITY,SYSTEMIC,,,Y,,,Occurrence Indicator,VACCINATION 1-NEW OR WORSENED JOINT PAIN-DAY 6,VACCINATION 1-NEW OR WORSENED JOINT PAIN,OCCUR,NEW OR WORSENED JOINT PAIN,NOT DONE,SUBJECT DID NOT COMPLETE ELECTRONIC DIARY,,VACCINATION 1,,1,VACCINE A,2021-10-07T12:48:00,2021-10-07T12:48:00,,2021-10-07,2021-12-16,,
228,ABC,ABC-1002,1002,1002,70,YEARS,F,BLACK OR AFRICAN AMERICAN,Y,VACCINE A VACCINE B,VAXAB,VACCINE A VACCINE B,VAXAB,VACCINE A,VACCINE A,VACCINE A,VACCINE A,VACCINE B,VACCINE B,2021-10-07,2021-10-07T12:48:00Z,2021-12-16,2021-12-16T12:41:00Z,2021-10-07,2021-12-15,2021-10-13,2021-10-13T19:27:24Z,7,DAY 7,7,VACCINATION 1,1,New or worsened joint pain occurrence indicator,OCCNWJP,20,REACTOGENICITY,SYSTEMIC,,N,Y,,,Occurrence Indicator,VACCINATION 1-NEW OR WORSENED JOINT PAIN-DAY 7,VACCINATION 1-NEW OR WORSENED JOINT PAIN,OCCUR,NEW OR WORSENED JOINT PAIN,,,STUDY SUBJECT,VACCINATION 1,,1,VACCINE A,2021-10-07T12:48:00,2021-10-07T12:48:00,N,2021-10-07,2021-12-16,N,N
229,ABC,ABC-1002,1002,1002,70,YEARS,F,BLACK OR AFRICAN AMERICAN,Y,VACCINE A VACCINE B,VAXAB,VACCINE A VACCINE B,VAXAB,VACCINE A,VACCINE A,VACCINE A,VACCINE A,VACCINE B,VACCINE B,2021-10-07,2021-10-07T12:48:00Z,2021-12-16,2021-12-16T12:41:00Z,2021-10-07,2021-12-15,2021-10-07,2021-10-07T19:14:10Z,1,DAY 1,1,VACCINATION 1,1,New or worsened muscle pain occurrence indicator,OCCNWMP,21,REACTOGENICITY,SYSTEMIC,,N,Y,,,Occurrence Indicator,VACCINATION 1-NEW OR WORSENED MUSCLE PAIN-DAY 1,VACCINATION 1-NEW OR WORSENED MUSCLE PAIN,OCCUR,NEW OR WORSENED MUSCLE PAIN,,,STUDY SUBJECT,VACCINATION 1,SINCE VACCINATION,1,VACCINE A,2021-10-07T12:48:00,2021-10-07T12:48:00,N,2021-10-07,2021-12-16,N,N
230,ABC,ABC-1002,1002,1002,70,YEARS,F,BLACK OR AFRICAN AMERICAN,Y,VACCINE A VACCINE B,VAXAB,VACCINE A VACCINE B,VAXAB,VACCINE A,VACCINE A,VACCINE A,VACCINE A,VACCINE B,VACCINE B,2021-10-07,2021-10-07T12:48:00Z,2021-12-16,2021-12-16T12:41:00Z,2021-10-07,2021-12-15,2021-10-08,2021-10-08T18:13:47Z,2,DAY 2,2,VACCINATION 1,1,New or worsened muscle pain occurrence indicator,OCCNWMP,21,REACTOGENICITY,SYSTEMIC,,N,Y,,,Occurrence Indicator,VACCINATION 1-NEW OR WORSENED MUSCLE PAIN-DAY 2,VACCINATION 1-NEW OR WORSENED MUSCLE PAIN,OCCUR,NEW OR WORSENED MUSCLE PAIN,,,STUDY SUBJECT,VACCINATION 1,,1,VACCINE A,2021-10-07T12:48:00,2021-10-07T12:48:00,N,2021-10-07,2021-12-16,N,N
231,ABC,ABC-1002,1002,1002,70,YEARS,F,BLACK OR AFRICAN AMERICAN,Y,VACCINE A VACCINE B,VAXAB,VACCINE A VACCINE B,VAXAB,VACCINE A,VACCINE A,VACCINE A,VACCINE A,VACCINE B,VACCINE B,2021-10-07,2021-10-07T12:48:00Z,2021-12-16,2021-12-16T12:41:00Z,2021-10-07,2021-12-15,2021-10-09,2021-10-09T18:02:12Z,3,DAY 3,3,VACCINATION 1,1,New or worsened muscle pain occurrence indicator,OCCNWMP,21,REACTOGENICITY,SYSTEMIC,,N,Y,,,Occurrence Indicator,VACCINATION 1-NEW OR WORSENED MUSCLE PAIN-DAY 3,VACCINATION 1-NEW OR WORSENED MUSCLE PAIN,OCCUR,NEW OR WORSENED MUSCLE PAIN,,,STUDY SUBJECT,VACCINATION 1,,1,VACCINE A,2021-10-07T12:48:00,2021-10-07T12:48:00,N,2021-10-07,2021-12-16,N,N
232,ABC,ABC-1002,1002,1002,70,YEARS,F,BLACK OR AFRICAN AMERICAN,Y,VACCINE A VACCINE B,VAXAB,VACCINE A VACCINE B,VAXAB,VACCINE A,VACCINE A,VACCINE A,VACCINE A,VACCINE B,VACCINE B,2021-10-07,2021-10-07T12:48:00Z,2021-12-16,2021-12-16T12:41:00Z,2021-10-07,2021-12-15,2021-10-10,2021-10-10T18:03:17Z,4,DAY 4,4,VACCINATION 1,1,New or worsened muscle pain occurrence indicator,OCCNWMP,21,REACTOGENICITY,SYSTEMIC,,N,Y,,,Occurrence Indicator,VACCINATION 1-NEW OR WORSENED MUSCLE PAIN-DAY 4,VACCINATION 1-NEW OR WORSENED MUSCLE PAIN,OCCUR,NEW OR WORSENED MUSCLE PAIN,,,STUDY SUBJECT,VACCINATION 1,,1,VACCINE A,2021-10-07T12:48:00,2021-10-07T12:48:00,N,2021-10-07,2021-12-16,N,N
233,ABC,ABC-1002,1002,1002,70,YEARS,F,BLACK OR AFRICAN AMERICAN,Y,VACCINE A VACCINE B,VAXAB,VACCINE A VACCINE B,VAXAB,VACCINE A,VACCINE A,VACCINE A,VACCINE A,VACCINE B,VACCINE B,2021-10-07,2021-10-07T12:48:00Z,2021-12-16,2021-12-16T12:41:00Z,2021-10-07,2021-12-15,2021-10-11,2021-10-11T18:11:54Z,5,DAY 5,5,VACCINATION 1,1,New or worsened muscle pain occurrence indicator,OCCNWMP,21,REACTOGENICITY,SYSTEMIC,,N,Y,,,Occurrence Indicator,VACCINATION 1-NEW OR WORSENED MUSCLE PAIN-DAY 5,VACCINATION 1-NEW OR WORSENED MUSCLE PAIN,OCCUR,NEW OR WORSENED MUSCLE PAIN,,,STUDY SUBJECT,VACCINATION 1,,1,VACCINE A,2021-10-07T12:48:00,2021-10-07T12:48:00,N,2021-10-07,2021-12-16,N,N
234,ABC,ABC-1002,1002,1002,70,YEARS,F,BLACK OR AFRICAN AMERICAN,Y,VACCINE A VACCINE B,VAXAB,VACCINE A VACCINE B,VAXAB,VACCINE A,VACCINE A,VACCINE A,VACCINE A,VACCINE B,VACCINE B,2021-10-07,2021-10-07T12:48:00Z,2021-12-16,2021-12-16T12:41:00Z,2021-10-07,2021-12-15,2021-10-12,,6,DAY 6,6,VACCINATION 1,1,New or worsened muscle pain occurrence indicator,OCCNWMP,21,REACTOGENICITY,SYSTEMIC,,,Y,,,Occurrence Indicator,VACCINATION 1-NEW OR WORSENED MUSCLE PAIN-DAY 6,VACCINATION 1-NEW OR WORSENED MUSCLE PAIN,OCCUR,NEW OR WORSENED MUSCLE PAIN,NOT DONE,SUBJECT DID NOT COMPLETE ELECTRONIC DIARY,,VACCINATION 1,,1,VACCINE A,2021-10-07T12:48:00,2021-10-07T12:48:00,,2021-10-07,2021-12-16,,
235,ABC,ABC-1002,1002,1002,70,YEARS,F,BLACK OR AFRICAN AMERICAN,Y,VACCINE A VACCINE B,VAXAB,VACCINE A VACCINE B,VAXAB,VACCINE A,VACCINE A,VACCINE A,VACCINE A,VACCINE B,VACCINE B,2021-10-07,2021-10-07T12:48:00Z,2021-12-16,2021-12-16T12:41:00Z,2021-10-07,2021-12-15,2021-10-13,2021-10-13T19:27:24Z,7,DAY 7,7,VACCINATION 1,1,New or worsened muscle pain occurrence indicator,OCCNWMP,21,REACTOGENICITY,SYSTEMIC,,N,Y,,,Occurrence Indicator,VACCINATION 1-NEW OR WORSENED MUSCLE PAIN-DAY 7,VACCINATION 1-NEW OR WORSENED MUSCLE PAIN,OCCUR,NEW OR WORSENED MUSCLE PAIN,,,STUDY SUBJECT,VACCINATION 1,,1,VACCINE A,2021-10-07T12:48:00,2021-10-07T12:48:00,N,2021-10-07,2021-12-16,N,N
236,ABC,ABC-1002,1002,1002,70,YEARS,F,BLACK OR AFRICAN AMERICAN,Y,VACCINE A VACCINE B,VAXAB,VACCINE A VACCINE B,VAXAB,VACCINE A,VACCINE A,VACCINE A,VACCINE A,VACCINE B,VACCINE B,2021-10-07,2021-10-07T12:48:00Z,2021-12-16,2021-12-16T12:41:00Z,2021-10-07,2021-12-15,2021-10-07,2021-10-07T19:14:10Z,1,DAY 1,1,VACCINATION 1,1,Pain at injection site occurrence indicator deltoid muscle left,OCPIS,15,REACTOGENICITY,ADMINISTRATION SITE,,N,Y,,,Occurrence Indicator,VACCINATION 1-DELTOID MUSCLE-LEFT-PAIN AT INJECTION SITE-DAY 1,VACCINATION 1-DELTOID MUSCLE-LEFT-PAIN AT INJECTION SITE,OCCUR,PAIN AT INJECTION SITE,,,STUDY SUBJECT,VACCINATION 1,SINCE VACCINATION,1,VACCINE A,2021-10-07T12:48:00,2021-10-07T12:48:00,N,2021-10-07,2021-12-16,N,N
237,ABC,ABC-1002,1002,1002,70,YEARS,F,BLACK OR AFRICAN AMERICAN,Y,VACCINE A VACCINE B,VAXAB,VACCINE A VACCINE B,VAXAB,VACCINE A,VACCINE A,VACCINE A,VACCINE A,VACCINE B,VACCINE B,2021-10-07,2021-10-07T12:48:00Z,2021-12-16,2021-12-16T12:41:00Z,2021-10-07,2021-12-15,2021-10-08,2021-10-08T18:13:47Z,2,DAY 2,2,VACCINATION 1,1,Pain at injection site occurrence indicator deltoid muscle left,OCPIS,15,REACTOGENICITY,ADMINISTRATION SITE,,N,Y,,,Occurrence Indicator,VACCINATION 1-DELTOID MUSCLE-LEFT-PAIN AT INJECTION SITE-DAY 2,VACCINATION 1-DELTOID MUSCLE-LEFT-PAIN AT INJECTION SITE,OCCUR,PAIN AT INJECTION SITE,,,STUDY SUBJECT,VACCINATION 1,,1,VACCINE A,2021-10-07T12:48:00,2021-10-07T12:48:00,N,2021-10-07,2021-12-16,N,N
238,ABC,ABC-1002,1002,1002,70,YEARS,F,BLACK OR AFRICAN AMERICAN,Y,VACCINE A VACCINE B,VAXAB,VACCINE A VACCINE B,VAXAB,VACCINE A,VACCINE A,VACCINE A,VACCINE A,VACCINE B,VACCINE B,2021-10-07,2021-10-07T12:48:00Z,2021-12-16,2021-12-16T12:41:00Z,2021-10-07,2021-12-15,2021-10-09,2021-10-09T18:02:12Z,3,DAY 3,3,VACCINATION 1,1,Pain at injection site occurrence indicator deltoid muscle left,OCPIS,15,REACTOGENICITY,ADMINISTRATION SITE,,N,Y,,,Occurrence Indicator,VACCINATION 1-DELTOID MUSCLE-LEFT-PAIN AT INJECTION SITE-DAY 3,VACCINATION 1-DELTOID MUSCLE-LEFT-PAIN AT INJECTION SITE,OCCUR,PAIN AT INJECTION SITE,,,STUDY SUBJECT,VACCINATION 1,,1,VACCINE A,2021-10-07T12:48:00,2021-10-07T12:48:00,N,2021-10-07,2021-12-16,N,N
239,ABC,ABC-1002,1002,1002,70,YEARS,F,BLACK OR AFRICAN AMERICAN,Y,VACCINE A VACCINE B,VAXAB,VACCINE A VACCINE B,VAXAB,VACCINE A,VACCINE A,VACCINE A,VACCINE A,VACCINE B,VACCINE B,2021-10-07,2021-10-07T12:48:00Z,2021-12-16,2021-12-16T12:41:00Z,2021-10-07,2021-12-15,2021-10-10,2021-10-10T18:03:17Z,4,DAY 4,4,VACCINATION 1,1,Pain at injection site occurrence indicator deltoid muscle left,OCPIS,15,REACTOGENICITY,ADMINISTRATION SITE,,N,Y,,,Occurrence Indicator,VACCINATION 1-DELTOID MUSCLE-LEFT-PAIN AT INJECTION SITE-DAY 4,VACCINATION 1-DELTOID MUSCLE-LEFT-PAIN AT INJECTION SITE,OCCUR,PAIN AT INJECTION SITE,,,STUDY SUBJECT,VACCINATION 1,,1,VACCINE A,2021-10-07T12:48:00,2021-10-07T12:48:00,N,2021-10-07,2021-12-16,N,N
240,ABC,ABC-1002,1002,1002,70,YEARS,F,BLACK OR AFRICAN AMERICAN,Y,VACCINE A VACCINE B,VAXAB,VACCINE A VACCINE B,VAXAB,VACCINE A,VACCINE A,VACCINE A,VACCINE A,VACCINE B,VACCINE B,2021-10-07,2021-10-07T12:48:00Z,2021-12-16,2021-12-16T12:41:00Z,2021-10-07,2021-12-15,2021-10-11,2021-10-11T18:11:54Z,5,DAY 5,5,VACCINATION 1,1,Pain at injection site occurrence indicator deltoid muscle left,OCPIS,15,REACTOGENICITY,ADMINISTRATION SITE,,N,Y,,,Occurrence Indicator,VACCINATION 1-DELTOID MUSCLE-LEFT-PAIN AT INJECTION SITE-DAY 5,VACCINATION 1-DELTOID MUSCLE-LEFT-PAIN AT INJECTION SITE,OCCUR,PAIN AT INJECTION SITE,,,STUDY SUBJECT,VACCINATION 1,,1,VACCINE A,2021-10-07T12:48:00,2021-10-07T12:48:00,N,2021-10-07,2021-12-16,N,N
241,ABC,ABC-1002,1002,1002,70,YEARS,F,BLACK OR AFRICAN AMERICAN,Y,VACCINE A VACCINE B,VAXAB,VACCINE A VACCINE B,VAXAB,VACCINE A,VACCINE A,VACCINE A,VACCINE A,VACCINE B,VACCINE B,2021-10-07,2021-10-07T12:48:00Z,2021-12-16,2021-12-16T12:41:00Z,2021-10-07,2021-12-15,2021-10-12,,6,DAY 6,6,VACCINATION 1,1,Pain at injection site occurrence indicator deltoid muscle left,OCPIS,15,REACTOGENICITY,ADMINISTRATION SITE,,,Y,,,Occurrence Indicator,VACCINATION 1-DELTOID MUSCLE-LEFT-PAIN AT INJECTION SITE-DAY 6,VACCINATION 1-DELTOID MUSCLE-LEFT-PAIN AT INJECTION SITE,OCCUR,PAIN AT INJECTION SITE,NOT DONE,SUBJECT DID NOT COMPLETE ELECTRONIC DIARY,,VACCINATION 1,,1,VACCINE A,2021-10-07T12:48:00,2021-10-07T12:48:00,,2021-10-07,2021-12-16,,
242,ABC,ABC-1002,1002,1002,70,YEARS,F,BLACK OR AFRICAN AMERICAN,Y,VACCINE A VACCINE B,VAXAB,VACCINE A VACCINE B,VAXAB,VACCINE A,VACCINE A,VACCINE A,VACCINE A,VACCINE B,VACCINE B,2021-10-07,2021-10-07T12:48:00Z,2021-12-16,2021-12-16T12:41:00Z,2021-10-07,2021-12-15,2021-10-13,2021-10-13T19:27:24Z,7,DAY 7,7,VACCINATION 1,1,Pain at injection site occurrence indicator deltoid muscle left,OCPIS,15,REACTOGENICITY,ADMINISTRATION SITE,,N,Y,,,Occurrence Indicator,VACCINATION 1-DELTOID MUSCLE-LEFT-PAIN AT INJECTION SITE-DAY 7,VACCINATION 1-DELTOID MUSCLE-LEFT-PAIN AT INJECTION SITE,OCCUR,PAIN AT INJECTION SITE,,,STUDY SUBJECT,VACCINATION 1,,1,VACCINE A,2021-10-07T12:48:00,2021-10-07T12:48:00,N,2021-10-07,2021-12-16,N,N
243,ABC,ABC-1002,1002,1002,70,YEARS,F,BLACK OR AFRICAN AMERICAN,Y,VACCINE A VACCINE B,VAXAB,VACCINE A VACCINE B,VAXAB,VACCINE A,VACCINE A,VACCINE A,VACCINE A,VACCINE B,VACCINE B,2021-10-07,2021-10-07T12:48:00Z,2021-12-16,2021-12-16T12:41:00Z,2021-10-07,2021-12-15,2021-10-09,2021-10-09T18:02:12Z,3,DAY 3,3,VACCINATION 1,1,Redness diameter deltoid muscle left,DIARE,2,REACTOGENICITY,ADMINISTRATION SITE,2.5,2.5,Y,Y,,Diameter,VACCINATION 1-DELTOID MUSCLE-LEFT-REDNESS-DAY 3,VACCINATION 1-DELTOID MUSCLE-LEFT-REDNESS,DIAMETER,REDNESS,,,STUDY SUBJECT,VACCINATION 1,,1,VACCINE A,2021-10-07T12:48:00,2021-10-07T12:48:00,5,2021-10-07,2021-12-16,Y,N
244,ABC,ABC-1002,1002,1002,70,YEARS,F,BLACK OR AFRICAN AMERICAN,Y,VACCINE A VACCINE B,VAXAB,VACCINE A VACCINE B,VAXAB,VACCINE A,VACCINE A,VACCINE A,VACCINE A,VACCINE B,VACCINE B,2021-10-07,2021-10-07T12:48:00Z,2021-12-16,2021-12-16T12:41:00Z,2021-10-07,2021-12-15,2021-10-07,2021-10-07T19:14:10Z,1,DAY 1,1,VACCINATION 1,1,Redness occurrence indicator deltoid muscle left,OCISR,13,REACTOGENICITY,ADMINISTRATION SITE,,N,Y,,,,,,,,,,,VACCINATION 1,,1,VACCINE A,2021-10-07T12:48:00,2021-10-07T12:48:00,,2021-10-07,2021-12-16,Y,N
245,ABC,ABC-1002,1002,1002,70,YEARS,F,BLACK OR AFRICAN AMERICAN,Y,VACCINE A VACCINE B,VAXAB,VACCINE A VACCINE B,VAXAB,VACCINE A,VACCINE A,VACCINE A,VACCINE A,VACCINE B,VACCINE B,2021-10-07,2021-10-07T12:48:00Z,2021-12-16,2021-12-16T12:41:00Z,2021-10-07,2021-12-15,2021-10-08,2021-10-08T18:13:47Z,2,DAY 2,2,VACCINATION 1,1,Redness occurrence indicator deltoid muscle left,OCISR,13,REACTOGENICITY,ADMINISTRATION SITE,,N,Y,,,,,,,,,,,VACCINATION 1,,1,VACCINE A,2021-10-07T12:48:00,2021-10-07T12:48:00,,2021-10-07,2021-12-16,Y,N
246,ABC,ABC-1002,1002,1002,70,YEARS,F,BLACK OR AFRICAN AMERICAN,Y,VACCINE A VACCINE B,VAXAB,VACCINE A VACCINE B,VAXAB,VACCINE A,VACCINE A,VACCINE A,VACCINE A,VACCINE B,VACCINE B,2021-10-07,2021-10-07T12:48:00Z,2021-12-16,2021-12-16T12:41:00Z,2021-10-07,2021-12-15,2021-10-09,2021-10-09T18:02:12Z,3,DAY 3,3,VACCINATION 1,1,Redness occurrence indicator deltoid muscle left,OCISR,13,REACTOGENICITY,ADMINISTRATION SITE,,Y,Y,,,,,,,,,,,VACCINATION 1,,1,VACCINE A,2021-10-07T12:48:00,2021-10-07T12:48:00,,2021-10-07,2021-12-16,Y,Y
247,ABC,ABC-1002,1002,1002,70,YEARS,F,BLACK OR AFRICAN AMERICAN,Y,VACCINE A VACCINE B,VAXAB,VACCINE A VACCINE B,VAXAB,VACCINE A,VACCINE A,VACCINE A,VACCINE A,VACCINE B,VACCINE B,2021-10-07,2021-10-07T12:48:00Z,2021-12-16,2021-12-16T12:41:00Z,2021-10-07,2021-12-15,2021-10-10,2021-10-10T18:03:17Z,4,DAY 4,4,VACCINATION 1,1,Redness occurrence indicator deltoid muscle left,OCISR,13,REACTOGENICITY,ADMINISTRATION SITE,,N,Y,,,,,,,,,,,VACCINATION 1,,1,VACCINE A,2021-10-07T12:48:00,2021-10-07T12:48:00,,2021-10-07,2021-12-16,Y,N
248,ABC,ABC-1002,1002,1002,70,YEARS,F,BLACK OR AFRICAN AMERICAN,Y,VACCINE A VACCINE B,VAXAB,VACCINE A VACCINE B,VAXAB,VACCINE A,VACCINE A,VACCINE A,VACCINE A,VACCINE B,VACCINE B,2021-10-07,2021-10-07T12:48:00Z,2021-12-16,2021-12-16T12:41:00Z,2021-10-07,2021-12-15,2021-10-11,2021-10-11T18:11:54Z,5,DAY 5,5,VACCINATION 1,1,Redness occurrence indicator deltoid muscle left,OCISR,13,REACTOGENICITY,ADMINISTRATION SITE,,N,Y,,,,,,,,,,,VACCINATION 1,,1,VACCINE A,2021-10-07T12:48:00,2021-10-07T12:48:00,,2021-10-07,2021-12-16,Y,N
249,ABC,ABC-1002,1002,1002,70,YEARS,F,BLACK OR AFRICAN AMERICAN,Y,VACCINE A VACCINE B,VAXAB,VACCINE A VACCINE B,VAXAB,VACCINE A,VACCINE A,VACCINE A,VACCINE A,VACCINE B,VACCINE B,2021-10-07,2021-10-07T12:48:00Z,2021-12-16,2021-12-16T12:41:00Z,2021-10-07,2021-12-15,2021-10-12,,6,DAY 6,6,VACCINATION 1,1,Redness occurrence indicator deltoid muscle left,OCISR,13,REACTOGENICITY,ADMINISTRATION SITE,,,Y,,,,,,,,,,,VACCINATION 1,,1,VACCINE A,2021-10-07T12:48:00,2021-10-07T12:48:00,,2021-10-07,2021-12-16,Y,
250,ABC,ABC-1002,1002,1002,70,YEARS,F,BLACK OR AFRICAN AMERICAN,Y,VACCINE A VACCINE B,VAXAB,VACCINE A VACCINE B,VAXAB,VACCINE A,VACCINE A,VACCINE A,VACCINE A,VACCINE B,VACCINE B,2021-10-07,2021-10-07T12:48:00Z,2021-12-16,2021-12-16T12:41:00Z,2021-10-07,2021-12-15,2021-10-13,2021-10-13T19:27:24Z,7,DAY 7,7,VACCINATION 1,1,Redness occurrence indicator deltoid muscle left,OCISR,13,REACTOGENICITY,ADMINISTRATION SITE,,N,Y,,,,,,,,,,,VACCINATION 1,,1,VACCINE A,2021-10-07T12:48:00,2021-10-07T12:48:00,,2021-10-07,2021-12-16,Y,N
251,ABC,ABC-1002,1002,1002,70,YEARS,F,BLACK OR AFRICAN AMERICAN,Y,VACCINE A VACCINE B,VAXAB,VACCINE A VACCINE B,VAXAB,VACCINE A,VACCINE A,VACCINE A,VACCINE A,VACCINE B,VACCINE B,2021-10-07,2021-10-07T12:48:00Z,2021-12-16,2021-12-16T12:41:00Z,2021-10-07,2021-12-15,2021-10-07,2021-10-07T19:14:10Z,1,DAY 1,1,VACCINATION 1,1,Swelling occurrence indicator deltoid muscle left,OCINS,14,REACTOGENICITY,ADMINISTRATION SITE,,N,Y,,,,,,,,,,,VACCINATION 1,,1,VACCINE A,2021-10-07T12:48:00,2021-10-07T12:48:00,,2021-10-07,2021-12-16,N,N
252,ABC,ABC-1002,1002,1002,70,YEARS,F,BLACK OR AFRICAN AMERICAN,Y,VACCINE A VACCINE B,VAXAB,VACCINE A VACCINE B,VAXAB,VACCINE A,VACCINE A,VACCINE A,VACCINE A,VACCINE B,VACCINE B,2021-10-07,2021-10-07T12:48:00Z,2021-12-16,2021-12-16T12:41:00Z,2021-10-07,2021-12-15,2021-10-08,2021-10-08T18:13:47Z,2,DAY 2,2,VACCINATION 1,1,Swelling occurrence indicator deltoid muscle left,OCINS,14,REACTOGENICITY,ADMINISTRATION SITE,,N,Y,,,,,,,,,,,VACCINATION 1,,1,VACCINE A,2021-10-07T12:48:00,2021-10-07T12:48:00,,2021-10-07,2021-12-16,N,N
253,ABC,ABC-1002,1002,1002,70,YEARS,F,BLACK OR AFRICAN AMERICAN,Y,VACCINE A VACCINE B,VAXAB,VACCINE A VACCINE B,VAXAB,VACCINE A,VACCINE A,VACCINE A,VACCINE A,VACCINE B,VACCINE B,2021-10-07,2021-10-07T12:48:00Z,2021-12-16,2021-12-16T12:41:00Z,2021-10-07,2021-12-15,2021-10-09,2021-10-09T18:02:12Z,3,DAY 3,3,VACCINATION 1,1,Swelling occurrence indicator deltoid muscle left,OCINS,14,REACTOGENICITY,ADMINISTRATION SITE,,N,Y,,,,,,,,,,,VACCINATION 1,,1,VACCINE A,2021-10-07T12:48:00,2021-10-07T12:48:00,,2021-10-07,2021-12-16,N,N
254,ABC,ABC-1002,1002,1002,70,YEARS,F,BLACK OR AFRICAN AMERICAN,Y,VACCINE A VACCINE B,VAXAB,VACCINE A VACCINE B,VAXAB,VACCINE A,VACCINE A,VACCINE A,VACCINE A,VACCINE B,VACCINE B,2021-10-07,2021-10-07T12:48:00Z,2021-12-16,2021-12-16T12:41:00Z,2021-10-07,2021-12-15,2021-10-10,2021-10-10T18:03:17Z,4,DAY 4,4,VACCINATION 1,1,Swelling occurrence indicator deltoid muscle left,OCINS,14,REACTOGENICITY,ADMINISTRATION SITE,,N,Y,,,,,,,,,,,VACCINATION 1,,1,VACCINE A,2021-10-07T12:48:00,2021-10-07T12:48:00,,2021-10-07,2021-12-16,N,N
255,ABC,ABC-1002,1002,1002,70,YEARS,F,BLACK OR AFRICAN AMERICAN,Y,VACCINE A VACCINE B,VAXAB,VACCINE A VACCINE B,VAXAB,VACCINE A,VACCINE A,VACCINE A,VACCINE A,VACCINE B,VACCINE B,2021-10-07,2021-10-07T12:48:00Z,2021-12-16,2021-12-16T12:41:00Z,2021-10-07,2021-12-15,2021-10-11,2021-10-11T18:11:54Z,5,DAY 5,5,VACCINATION 1,1,Swelling occurrence indicator deltoid muscle left,OCINS,14,REACTOGENICITY,ADMINISTRATION SITE,,N,Y,,,,,,,,,,,VACCINATION 1,,1,VACCINE A,2021-10-07T12:48:00,2021-10-07T12:48:00,,2021-10-07,2021-12-16,N,N
256,ABC,ABC-1002,1002,1002,70,YEARS,F,BLACK OR AFRICAN AMERICAN,Y,VACCINE A VACCINE B,VAXAB,VACCINE A VACCINE B,VAXAB,VACCINE A,VACCINE A,VACCINE A,VACCINE A,VACCINE B,VACCINE B,2021-10-07,2021-10-07T12:48:00Z,2021-12-16,2021-12-16T12:41:00Z,2021-10-07,2021-12-15,2021-10-12,,6,DAY 6,6,VACCINATION 1,1,Swelling occurrence indicator deltoid muscle left,OCINS,14,REACTOGENICITY,ADMINISTRATION SITE,,,Y,,,,,,,,,,,VACCINATION 1,,1,VACCINE A,2021-10-07T12:48:00,2021-10-07T12:48:00,,2021-10-07,2021-12-16,,
257,ABC,ABC-1002,1002,1002,70,YEARS,F,BLACK OR AFRICAN AMERICAN,Y,VACCINE A VACCINE B,VAXAB,VACCINE A VACCINE B,VAXAB,VACCINE A,VACCINE A,VACCINE A,VACCINE A,VACCINE B,VACCINE B,2021-10-07,2021-10-07T12:48:00Z,2021-12-16,2021-12-16T12:41:00Z,2021-10-07,2021-12-15,2021-10-13,2021-10-13T19:27:24Z,7,DAY 7,7,VACCINATION 1,1,Swelling occurrence indicator deltoid muscle left,OCINS,14,REACTOGENICITY,ADMINISTRATION SITE,,N,Y,,,,,,,,,,,VACCINATION 1,,1,VACCINE A,2021-10-07T12:48:00,2021-10-07T12:48:00,,2021-10-07,2021-12-16,N,N
258,ABC,ABC-1002,1002,1002,70,YEARS,F,BLACK OR AFRICAN AMERICAN,Y,VACCINE A VACCINE B,VAXAB,VACCINE A VACCINE B,VAXAB,VACCINE A,VACCINE A,VACCINE A,VACCINE A,VACCINE B,VACCINE B,2021-10-07,2021-10-07T12:48:00Z,2021-12-16,2021-12-16T12:41:00Z,2021-10-07,2021-12-15,2021-10-07,2021-10-07T19:14:10Z,1,DAY 1,1,VACCINATION 1,1,Vomiting occurrence indicator,OCCVOM,31,REACTOGENICITY,SYSTEMIC,,N,Y,,,Occurrence Indicator,VACCINATION 1-VOMITING-DAY 1,VACCINATION 1-VOMITING,OCCUR,VOMITING,,,STUDY SUBJECT,VACCINATION 1,SINCE VACCINATION,1,VACCINE A,2021-10-07T12:48:00,2021-10-07T12:48:00,N,2021-10-07,2021-12-16,N,N
259,ABC,ABC-1002,1002,1002,70,YEARS,F,BLACK OR AFRICAN AMERICAN,Y,VACCINE A VACCINE B,VAXAB,VACCINE A VACCINE B,VAXAB,VACCINE A,VACCINE A,VACCINE A,VACCINE A,VACCINE B,VACCINE B,2021-10-07,2021-10-07T12:48:00Z,2021-12-16,2021-12-16T12:41:00Z,2021-10-07,2021-12-15,2021-10-08,2021-10-08T18:13:47Z,2,DAY 2,2,VACCINATION 1,1,Vomiting occurrence indicator,OCCVOM,31,REACTOGENICITY,SYSTEMIC,,N,Y,,,Occurrence Indicator,VACCINATION 1-VOMITING-DAY 2,VACCINATION 1-VOMITING,OCCUR,VOMITING,,,STUDY SUBJECT,VACCINATION 1,,1,VACCINE A,2021-10-07T12:48:00,2021-10-07T12:48:00,N,2021-10-07,2021-12-16,N,N
260,ABC,ABC-1002,1002,1002,70,YEARS,F,BLACK OR AFRICAN AMERICAN,Y,VACCINE A VACCINE B,VAXAB,VACCINE A VACCINE B,VAXAB,VACCINE A,VACCINE A,VACCINE A,VACCINE A,VACCINE B,VACCINE B,2021-10-07,2021-10-07T12:48:00Z,2021-12-16,2021-12-16T12:41:00Z,2021-10-07,2021-12-15,2021-10-09,2021-10-09T18:02:12Z,3,DAY 3,3,VACCINATION 1,1,Vomiting occurrence indicator,OCCVOM,31,REACTOGENICITY,SYSTEMIC,,N,Y,,,Occurrence Indicator,VACCINATION 1-VOMITING-DAY 3,VACCINATION 1-VOMITING,OCCUR,VOMITING,,,STUDY SUBJECT,VACCINATION 1,,1,VACCINE A,2021-10-07T12:48:00,2021-10-07T12:48:00,N,2021-10-07,2021-12-16,N,N
261,ABC,ABC-1002,1002,1002,70,YEARS,F,BLACK OR AFRICAN AMERICAN,Y,VACCINE A VACCINE B,VAXAB,VACCINE A VACCINE B,VAXAB,VACCINE A,VACCINE A,VACCINE A,VACCINE A,VACCINE B,VACCINE B,2021-10-07,2021-10-07T12:48:00Z,2021-12-16,2021-12-16T12:41:00Z,2021-10-07,2021-12-15,2021-10-10,2021-10-10T18:03:17Z,4,DAY 4,4,VACCINATION 1,1,Vomiting occurrence indicator,OCCVOM,31,REACTOGENICITY,SYSTEMIC,,N,Y,,,Occurrence Indicator,VACCINATION 1-VOMITING-DAY 4,VACCINATION 1-VOMITING,OCCUR,VOMITING,,,STUDY SUBJECT,VACCINATION 1,,1,VACCINE A,2021-10-07T12:48:00,2021-10-07T12:48:00,N,2021-10-07,2021-12-16,N,N
262,ABC,ABC-1002,1002,1002,70,YEARS,F,BLACK OR AFRICAN AMERICAN,Y,VACCINE A VACCINE B,VAXAB,VACCINE A VACCINE B,VAXAB,VACCINE A,VACCINE A,VACCINE A,VACCINE A,VACCINE B,VACCINE B,2021-10-07,2021-10-07T12:48:00Z,2021-12-16,2021-12-16T12:41:00Z,2021-10-07,2021-12-15,2021-10-11,2021-10-11T18:11:54Z,5,DAY 5,5,VACCINATION 1,1,Vomiting occurrence indicator,OCCVOM,31,REACTOGENICITY,SYSTEMIC,,N,Y,,,Occurrence Indicator,VACCINATION 1-VOMITING-DAY 5,VACCINATION 1-VOMITING,OCCUR,VOMITING,,,STUDY SUBJECT,VACCINATION 1,,1,VACCINE A,2021-10-07T12:48:00,2021-10-07T12:48:00,N,2021-10-07,2021-12-16,N,N
263,ABC,ABC-1002,1002,1002,70,YEARS,F,BLACK OR AFRICAN AMERICAN,Y,VACCINE A VACCINE B,VAXAB,VACCINE A VACCINE B,VAXAB,VACCINE A,VACCINE A,VACCINE A,VACCINE A,VACCINE B,VACCINE B,2021-10-07,2021-10-07T12:48:00Z,2021-12-16,2021-12-16T12:41:00Z,2021-10-07,2021-12-15,2021-10-12,,6,DAY 6,6,VACCINATION 1,1,Vomiting occurrence indicator,OCCVOM,31,REACTOGENICITY,SYSTEMIC,,,Y,,,Occurrence Indicator,VACCINATION 1-VOMITING-DAY 6,VACCINATION 1-VOMITING,OCCUR,VOMITING,NOT DONE,SUBJECT DID NOT COMPLETE ELECTRONIC DIARY,,VACCINATION 1,,1,VACCINE A,2021-10-07T12:48:00,2021-10-07T12:48:00,,2021-10-07,2021-12-16,,
264,ABC,ABC-1002,1002,1002,70,YEARS,F,BLACK OR AFRICAN AMERICAN,Y,VACCINE A VACCINE B,VAXAB,VACCINE A VACCINE B,VAXAB,VACCINE A,VACCINE A,VACCINE A,VACCINE A,VACCINE B,VACCINE B,2021-10-07,2021-10-07T12:48:00Z,2021-12-16,2021-12-16T12:41:00Z,2021-10-07,2021-12-15,2021-10-13,2021-10-13T19:27:24Z,7,DAY 7,7,VACCINATION 1,1,Vomiting occurrence indicator,OCCVOM,31,REACTOGENICITY,SYSTEMIC,,N,Y,,,Occurrence Indicator,VACCINATION 1-VOMITING-DAY 7,VACCINATION 1-VOMITING,OCCUR,VOMITING,,,STUDY SUBJECT,VACCINATION 1,,1,VACCINE A,2021-10-07T12:48:00,2021-10-07T12:48:00,N,2021-10-07,2021-12-16,N,N
265,ABC,ABC-1002,1002,1002,70,YEARS,F,BLACK OR AFRICAN AMERICAN,Y,VACCINE A VACCINE B,VAXAB,VACCINE A VACCINE B,VAXAB,VACCINE B,VACCINE B,VACCINE A,VACCINE A,VACCINE B,VACCINE B,2021-10-07,2021-10-07T12:48:00Z,2021-12-16,2021-12-16T12:41:00Z,2021-12-16,2022-06-14,2021-12-16,2021-12-16T18:01:47Z,71,DAY 1,1,VACCINATION 2,2,Chills occurrence indicator,OCCHILLS,18,REACTOGENICITY,SYSTEMIC,,N,Y,,,Occurrence Indicator,VACCINATION 2-CHILLS-DAY 1,VACCINATION 2-CHILLS,OCCUR,CHILLS,,,STUDY SUBJECT,VACCINATION 2,SINCE VACCINATION,1,VACCINE B,2021-12-16T12:41:00,2021-12-16T12:41:00,N,2021-10-07,2021-12-16,N,N
266,ABC,ABC-1002,1002,1002,70,YEARS,F,BLACK OR AFRICAN AMERICAN,Y,VACCINE A VACCINE B,VAXAB,VACCINE A VACCINE B,VAXAB,VACCINE B,VACCINE B,VACCINE A,VACCINE A,VACCINE B,VACCINE B,2021-10-07,2021-10-07T12:48:00Z,2021-12-16,2021-12-16T12:41:00Z,2021-12-16,2022-06-14,2021-12-17,2021-12-17T18:22:25Z,72,DAY 2,2,VACCINATION 2,2,Chills occurrence indicator,OCCHILLS,18,REACTOGENICITY,SYSTEMIC,,N,Y,,,Occurrence Indicator,VACCINATION 2-CHILLS-DAY 2,VACCINATION 2-CHILLS,OCCUR,CHILLS,,,STUDY SUBJECT,VACCINATION 2,,1,VACCINE B,2021-12-16T12:41:00,2021-12-16T12:41:00,N,2021-10-07,2021-12-16,N,N
267,ABC,ABC-1002,1002,1002,70,YEARS,F,BLACK OR AFRICAN AMERICAN,Y,VACCINE A VACCINE B,VAXAB,VACCINE A VACCINE B,VAXAB,VACCINE B,VACCINE B,VACCINE A,VACCINE A,VACCINE B,VACCINE B,2021-10-07,2021-10-07T12:48:00Z,2021-12-16,2021-12-16T12:41:00Z,2021-12-16,2022-06-14,2021-12-18,2021-12-18T18:34:53Z,73,DAY 3,3,VACCINATION 2,2,Chills occurrence indicator,OCCHILLS,18,REACTOGENICITY,SYSTEMIC,,N,Y,,,Occurrence Indicator,VACCINATION 2-CHILLS-DAY 3,VACCINATION 2-CHILLS,OCCUR,CHILLS,,,STUDY SUBJECT,VACCINATION 2,,1,VACCINE B,2021-12-16T12:41:00,2021-12-16T12:41:00,N,2021-10-07,2021-12-16,N,N
268,ABC,ABC-1002,1002,1002,70,YEARS,F,BLACK OR AFRICAN AMERICAN,Y,VACCINE A VACCINE B,VAXAB,VACCINE A VACCINE B,VAXAB,VACCINE B,VACCINE B,VACCINE A,VACCINE A,VACCINE B,VACCINE B,2021-10-07,2021-10-07T12:48:00Z,2021-12-16,2021-12-16T12:41:00Z,2021-12-16,2022-06-14,2021-12-19,2021-12-19T18:40:14Z,74,DAY 4,4,VACCINATION 2,2,Chills occurrence indicator,OCCHILLS,18,REACTOGENICITY,SYSTEMIC,,N,Y,,,Occurrence Indicator,VACCINATION 2-CHILLS-DAY 4,VACCINATION 2-CHILLS,OCCUR,CHILLS,,,STUDY SUBJECT,VACCINATION 2,,1,VACCINE B,2021-12-16T12:41:00,2021-12-16T12:41:00,N,2021-10-07,2021-12-16,N,N
269,ABC,ABC-1002,1002,1002,70,YEARS,F,BLACK OR AFRICAN AMERICAN,Y,VACCINE A VACCINE B,VAXAB,VACCINE A VACCINE B,VAXAB,VACCINE B,VACCINE B,VACCINE A,VACCINE A,VACCINE B,VACCINE B,2021-10-07,2021-10-07T12:48:00Z,2021-12-16,2021-12-16T12:41:00Z,2021-12-16,2022-06-14,2021-12-20,2021-12-20T18:33:47Z,75,DAY 5,5,VACCINATION 2,2,Chills occurrence indicator,OCCHILLS,18,REACTOGENICITY,SYSTEMIC,,N,Y,,,Occurrence Indicator,VACCINATION 2-CHILLS-DAY 5,VACCINATION 2-CHILLS,OCCUR,CHILLS,,,STUDY SUBJECT,VACCINATION 2,,1,VACCINE B,2021-12-16T12:41:00,2021-12-16T12:41:00,N,2021-10-07,2021-12-16,N,N
270,ABC,ABC-1002,1002,1002,70,YEARS,F,BLACK OR AFRICAN AMERICAN,Y,VACCINE A VACCINE B,VAXAB,VACCINE A VACCINE B,VAXAB,VACCINE B,VACCINE B,VACCINE A,VACCINE A,VACCINE B,VACCINE B,2021-10-07,2021-10-07T12:48:00Z,2021-12-16,2021-12-16T12:41:00Z,2021-12-16,2022-06-14,2021-12-21,2021-12-21T18:20:15Z,76,DAY 6,6,VACCINATION 2,2,Chills occurrence indicator,OCCHILLS,18,REACTOGENICITY,SYSTEMIC,,N,Y,,,Occurrence Indicator,VACCINATION 2-CHILLS-DAY 6,VACCINATION 2-CHILLS,OCCUR,CHILLS,,,STUDY SUBJECT,VACCINATION 2,,1,VACCINE B,2021-12-16T12:41:00,2021-12-16T12:41:00,N,2021-10-07,2021-12-16,N,N
271,ABC,ABC-1002,1002,1002,70,YEARS,F,BLACK OR AFRICAN AMERICAN,Y,VACCINE A VACCINE B,VAXAB,VACCINE A VACCINE B,VAXAB,VACCINE B,VACCINE B,VACCINE A,VACCINE A,VACCINE B,VACCINE B,2021-10-07,2021-10-07T12:48:00Z,2021-12-16,2021-12-16T12:41:00Z,2021-12-16,2022-06-14,2021-12-22,2021-12-22T18:23:21Z,77,DAY 7,7,VACCINATION 2,2,Chills occurrence indicator,OCCHILLS,18,REACTOGENICITY,SYSTEMIC,,N,Y,,,Occurrence Indicator,VACCINATION 2-CHILLS-DAY 7,VACCINATION 2-CHILLS,OCCUR,CHILLS,,,STUDY SUBJECT,VACCINATION 2,,1,VACCINE B,2021-12-16T12:41:00,2021-12-16T12:41:00,N,2021-10-07,2021-12-16,N,N
272,ABC,ABC-1002,1002,1002,70,YEARS,F,BLACK OR AFRICAN AMERICAN,Y,VACCINE A VACCINE B,VAXAB,VACCINE A VACCINE B,VAXAB,VACCINE B,VACCINE B,VACCINE A,VACCINE A,VACCINE B,VACCINE B,2021-10-07,2021-10-07T12:48:00Z,2021-12-16,2021-12-16T12:41:00Z,2021-12-16,2022-06-14,2021-12-16,2021-12-16T18:01:47Z,71,DAY 1,1,VACCINATION 2,2,Diarrhea occurrence indicator,OCDIAR,19,REACTOGENICITY,SYSTEMIC,,N,Y,,,Occurrence Indicator,VACCINATION 2-DIARRHEA-DAY 1,VACCINATION 2-DIARRHEA,OCCUR,DIARRHEA,,,STUDY SUBJECT,VACCINATION 2,SINCE VACCINATION,1,VACCINE B,2021-12-16T12:41:00,2021-12-16T12:41:00,N,2021-10-07,2021-12-16,N,N
273,ABC,ABC-1002,1002,1002,70,YEARS,F,BLACK OR AFRICAN AMERICAN,Y,VACCINE A VACCINE B,VAXAB,VACCINE A VACCINE B,VAXAB,VACCINE B,VACCINE B,VACCINE A,VACCINE A,VACCINE B,VACCINE B,2021-10-07,2021-10-07T12:48:00Z,2021-12-16,2021-12-16T12:41:00Z,2021-12-16,2022-06-14,2021-12-17,2021-12-17T18:22:25Z,72,DAY 2,2,VACCINATION 2,2,Diarrhea occurrence indicator,OCDIAR,19,REACTOGENICITY,SYSTEMIC,,N,Y,,,Occurrence Indicator,VACCINATION 2-DIARRHEA-DAY 2,VACCINATION 2-DIARRHEA,OCCUR,DIARRHEA,,,STUDY SUBJECT,VACCINATION 2,,1,VACCINE B,2021-12-16T12:41:00,2021-12-16T12:41:00,N,2021-10-07,2021-12-16,N,N
274,ABC,ABC-1002,1002,1002,70,YEARS,F,BLACK OR AFRICAN AMERICAN,Y,VACCINE A VACCINE B,VAXAB,VACCINE A VACCINE B,VAXAB,VACCINE B,VACCINE B,VACCINE A,VACCINE A,VACCINE B,VACCINE B,2021-10-07,2021-10-07T12:48:00Z,2021-12-16,2021-12-16T12:41:00Z,2021-12-16,2022-06-14,2021-12-18,2021-12-18T18:34:53Z,73,DAY 3,3,VACCINATION 2,2,Diarrhea occurrence indicator,OCDIAR,19,REACTOGENICITY,SYSTEMIC,,N,Y,,,Occurrence Indicator,VACCINATION 2-DIARRHEA-DAY 3,VACCINATION 2-DIARRHEA,OCCUR,DIARRHEA,,,STUDY SUBJECT,VACCINATION 2,,1,VACCINE B,2021-12-16T12:41:00,2021-12-16T12:41:00,N,2021-10-07,2021-12-16,N,N
275,ABC,ABC-1002,1002,1002,70,YEARS,F,BLACK OR AFRICAN AMERICAN,Y,VACCINE A VACCINE B,VAXAB,VACCINE A VACCINE B,VAXAB,VACCINE B,VACCINE B,VACCINE A,VACCINE A,VACCINE B,VACCINE B,2021-10-07,2021-10-07T12:48:00Z,2021-12-16,2021-12-16T12:41:00Z,2021-12-16,2022-06-14,2021-12-19,2021-12-19T18:40:14Z,74,DAY 4,4,VACCINATION 2,2,Diarrhea occurrence indicator,OCDIAR,19,REACTOGENICITY,SYSTEMIC,,N,Y,,,Occurrence Indicator,VACCINATION 2-DIARRHEA-DAY 4,VACCINATION 2-DIARRHEA,OCCUR,DIARRHEA,,,STUDY SUBJECT,VACCINATION 2,,1,VACCINE B,2021-12-16T12:41:00,2021-12-16T12:41:00,N,2021-10-07,2021-12-16,N,N
276,ABC,ABC-1002,1002,1002,70,YEARS,F,BLACK OR AFRICAN AMERICAN,Y,VACCINE A VACCINE B,VAXAB,VACCINE A VACCINE B,VAXAB,VACCINE B,VACCINE B,VACCINE A,VACCINE A,VACCINE B,VACCINE B,2021-10-07,2021-10-07T12:48:00Z,2021-12-16,2021-12-16T12:41:00Z,2021-12-16,2022-06-14,2021-12-20,2021-12-20T18:33:47Z,75,DAY 5,5,VACCINATION 2,2,Diarrhea occurrence indicator,OCDIAR,19,REACTOGENICITY,SYSTEMIC,,N,Y,,,Occurrence Indicator,VACCINATION 2-DIARRHEA-DAY 5,VACCINATION 2-DIARRHEA,OCCUR,DIARRHEA,,,STUDY SUBJECT,VACCINATION 2,,1,VACCINE B,2021-12-16T12:41:00,2021-12-16T12:41:00,N,2021-10-07,2021-12-16,N,N
277,ABC,ABC-1002,1002,1002,70,YEARS,F,BLACK OR AFRICAN AMERICAN,Y,VACCINE A VACCINE B,VAXAB,VACCINE A VACCINE B,VAXAB,VACCINE B,VACCINE B,VACCINE A,VACCINE A,VACCINE B,VACCINE B,2021-10-07,2021-10-07T12:48:00Z,2021-12-16,2021-12-16T12:41:00Z,2021-12-16,2022-06-14,2021-12-21,2021-12-21T18:20:15Z,76,DAY 6,6,VACCINATION 2,2,Diarrhea occurrence indicator,OCDIAR,19,REACTOGENICITY,SYSTEMIC,,N,Y,,,Occurrence Indicator,VACCINATION 2-DIARRHEA-DAY 6,VACCINATION 2-DIARRHEA,OCCUR,DIARRHEA,,,STUDY SUBJECT,VACCINATION 2,,1,VACCINE B,2021-12-16T12:41:00,2021-12-16T12:41:00,N,2021-10-07,2021-12-16,N,N
278,ABC,ABC-1002,1002,1002,70,YEARS,F,BLACK OR AFRICAN AMERICAN,Y,VACCINE A VACCINE B,VAXAB,VACCINE A VACCINE B,VAXAB,VACCINE B,VACCINE B,VACCINE A,VACCINE A,VACCINE B,VACCINE B,2021-10-07,2021-10-07T12:48:00Z,2021-12-16,2021-12-16T12:41:00Z,2021-12-16,2022-06-14,2021-12-22,2021-12-22T18:23:21Z,77,DAY 7,7,VACCINATION 2,2,Diarrhea occurrence indicator,OCDIAR,19,REACTOGENICITY,SYSTEMIC,,N,Y,,,Occurrence Indicator,VACCINATION 2-DIARRHEA-DAY 7,VACCINATION 2-DIARRHEA,OCCUR,DIARRHEA,,,STUDY SUBJECT,VACCINATION 2,,1,VACCINE B,2021-12-16T12:41:00,2021-12-16T12:41:00,N,2021-10-07,2021-12-16,N,N
279,ABC,ABC-1002,1002,1002,70,YEARS,F,BLACK OR AFRICAN AMERICAN,Y,VACCINE A VACCINE B,VAXAB,VACCINE A VACCINE B,VAXAB,VACCINE B,VACCINE B,VACCINE A,VACCINE A,VACCINE B,VACCINE B,2021-10-07,2021-10-07T12:48:00Z,2021-12-16,2021-12-16T12:41:00Z,2021-12-16,2022-06-14,2021-12-16,2021-12-16T18:01:47Z,71,DAY 1,1,VACCINATION 2,2,Fatigue occurrence indicator,OCFATIG,16,REACTOGENICITY,SYSTEMIC,,N,Y,,,Occurrence Indicator,VACCINATION 2-FATIGUE-DAY 1,VACCINATION 2-FATIGUE,OCCUR,FATIGUE,,,STUDY SUBJECT,VACCINATION 2,SINCE VACCINATION,1,VACCINE B,2021-12-16T12:41:00,2021-12-16T12:41:00,N,2021-10-07,2021-12-16,N,N
280,ABC,ABC-1002,1002,1002,70,YEARS,F,BLACK OR AFRICAN AMERICAN,Y,VACCINE A VACCINE B,VAXAB,VACCINE A VACCINE B,VAXAB,VACCINE B,VACCINE B,VACCINE A,VACCINE A,VACCINE B,VACCINE B,2021-10-07,2021-10-07T12:48:00Z,2021-12-16,2021-12-16T12:41:00Z,2021-12-16,2022-06-14,2021-12-17,2021-12-17T18:22:25Z,72,DAY 2,2,VACCINATION 2,2,Fatigue occurrence indicator,OCFATIG,16,REACTOGENICITY,SYSTEMIC,,N,Y,,,Occurrence Indicator,VACCINATION 2-FATIGUE-DAY 2,VACCINATION 2-FATIGUE,OCCUR,FATIGUE,,,STUDY SUBJECT,VACCINATION 2,,1,VACCINE B,2021-12-16T12:41:00,2021-12-16T12:41:00,N,2021-10-07,2021-12-16,N,N
281,ABC,ABC-1002,1002,1002,70,YEARS,F,BLACK OR AFRICAN AMERICAN,Y,VACCINE A VACCINE B,VAXAB,VACCINE A VACCINE B,VAXAB,VACCINE B,VACCINE B,VACCINE A,VACCINE A,VACCINE B,VACCINE B,2021-10-07,2021-10-07T12:48:00Z,2021-12-16,2021-12-16T12:41:00Z,2021-12-16,2022-06-14,2021-12-18,2021-12-18T18:34:53Z,73,DAY 3,3,VACCINATION 2,2,Fatigue occurrence indicator,OCFATIG,16,REACTOGENICITY,SYSTEMIC,,N,Y,,,Occurrence Indicator,VACCINATION 2-FATIGUE-DAY 3,VACCINATION 2-FATIGUE,OCCUR,FATIGUE,,,STUDY SUBJECT,VACCINATION 2,,1,VACCINE B,2021-12-16T12:41:00,2021-12-16T12:41:00,N,2021-10-07,2021-12-16,N,N
282,ABC,ABC-1002,1002,1002,70,YEARS,F,BLACK OR AFRICAN AMERICAN,Y,VACCINE A VACCINE B,VAXAB,VACCINE A VACCINE B,VAXAB,VACCINE B,VACCINE B,VACCINE A,VACCINE A,VACCINE B,VACCINE B,2021-10-07,2021-10-07T12:48:00Z,2021-12-16,2021-12-16T12:41:00Z,2021-12-16,2022-06-14,2021-12-19,2021-12-19T18:40:14Z,74,DAY 4,4,VACCINATION 2,2,Fatigue occurrence indicator,OCFATIG,16,REACTOGENICITY,SYSTEMIC,,N,Y,,,Occurrence Indicator,VACCINATION 2-FATIGUE-DAY 4,VACCINATION 2-FATIGUE,OCCUR,FATIGUE,,,STUDY SUBJECT,VACCINATION 2,,1,VACCINE B,2021-12-16T12:41:00,2021-12-16T12:41:00,N,2021-10-07,2021-12-16,N,N
283,ABC,ABC-1002,1002,1002,70,YEARS,F,BLACK OR AFRICAN AMERICAN,Y,VACCINE A VACCINE B,VAXAB,VACCINE A VACCINE B,VAXAB,VACCINE B,VACCINE B,VACCINE A,VACCINE A,VACCINE B,VACCINE B,2021-10-07,2021-10-07T12:48:00Z,2021-12-16,2021-12-16T12:41:00Z,2021-12-16,2022-06-14,2021-12-20,2021-12-20T18:33:47Z,75,DAY 5,5,VACCINATION 2,2,Fatigue occurrence indicator,OCFATIG,16,REACTOGENICITY,SYSTEMIC,,N,Y,,,Occurrence Indicator,VACCINATION 2-FATIGUE-DAY 5,VACCINATION 2-FATIGUE,OCCUR,FATIGUE,,,STUDY SUBJECT,VACCINATION 2,,1,VACCINE B,2021-12-16T12:41:00,2021-12-16T12:41:00,N,2021-10-07,2021-12-16,N,N
284,ABC,ABC-1002,1002,1002,70,YEARS,F,BLACK OR AFRICAN AMERICAN,Y,VACCINE A VACCINE B,VAXAB,VACCINE A VACCINE B,VAXAB,VACCINE B,VACCINE B,VACCINE A,VACCINE A,VACCINE B,VACCINE B,2021-10-07,2021-10-07T12:48:00Z,2021-12-16,2021-12-16T12:41:00Z,2021-12-16,2022-06-14,2021-12-21,2021-12-21T18:20:15Z,76,DAY 6,6,VACCINATION 2,2,Fatigue occurrence indicator,OCFATIG,16,REACTOGENICITY,SYSTEMIC,,N,Y,,,Occurrence Indicator,VACCINATION 2-FATIGUE-DAY 6,VACCINATION 2-FATIGUE,OCCUR,FATIGUE,,,STUDY SUBJECT,VACCINATION 2,,1,VACCINE B,2021-12-16T12:41:00,2021-12-16T12:41:00,N,2021-10-07,2021-12-16,N,N
285,ABC,ABC-1002,1002,1002,70,YEARS,F,BLACK OR AFRICAN AMERICAN,Y,VACCINE A VACCINE B,VAXAB,VACCINE A VACCINE B,VAXAB,VACCINE B,VACCINE B,VACCINE A,VACCINE A,VACCINE B,VACCINE B,2021-10-07,2021-10-07T12:48:00Z,2021-12-16,2021-12-16T12:41:00Z,2021-12-16,2022-06-14,2021-12-22,2021-12-22T18:23:21Z,77,DAY 7,7,VACCINATION 2,2,Fatigue occurrence indicator,OCFATIG,16,REACTOGENICITY,SYSTEMIC,,N,Y,,,Occurrence Indicator,VACCINATION 2-FATIGUE-DAY 7,VACCINATION 2-FATIGUE,OCCUR,FATIGUE,,,STUDY SUBJECT,VACCINATION 2,,1,VACCINE B,2021-12-16T12:41:00,2021-12-16T12:41:00,N,2021-10-07,2021-12-16,N,N
286,ABC,ABC-1002,1002,1002,70,YEARS,F,BLACK OR AFRICAN AMERICAN,Y,VACCINE A VACCINE B,VAXAB,VACCINE A VACCINE B,VAXAB,VACCINE B,VACCINE B,VACCINE A,VACCINE A,VACCINE B,VACCINE B,2021-10-07,2021-10-07T12:48:00Z,2021-12-16,2021-12-16T12:41:00Z,2021-12-16,2022-06-14,2021-12-16,2021-12-16T18:01:47Z,,DAY 1,1,VACCINATION 2,2,Fever occurrence indicator,OCFEVER,5,REACTOGENICITY,SYSTEMIC,,N,Y,,,,,,,,,,,VACCINATION 2,,,,,,,2021-10-07,2021-12-16,N,N
287,ABC,ABC-1002,1002,1002,70,YEARS,F,BLACK OR AFRICAN AMERICAN,Y,VACCINE A VACCINE B,VAXAB,VACCINE A VACCINE B,VAXAB,VACCINE B,VACCINE B,VACCINE A,VACCINE A,VACCINE B,VACCINE B,2021-10-07,2021-10-07T12:48:00Z,2021-12-16,2021-12-16T12:41:00Z,2021-12-16,2022-06-14,2021-12-17,2021-12-17T18:22:25Z,,DAY 2,2,VACCINATION 2,2,Fever occurrence indicator,OCFEVER,5,REACTOGENICITY,SYSTEMIC,,N,Y,,,,,,,,,,,VACCINATION 2,,,,,,,2021-10-07,2021-12-16,N,N
288,ABC,ABC-1002,1002,1002,70,YEARS,F,BLACK OR AFRICAN AMERICAN,Y,VACCINE A VACCINE B,VAXAB,VACCINE A VACCINE B,VAXAB,VACCINE B,VACCINE B,VACCINE A,VACCINE A,VACCINE B,VACCINE B,2021-10-07,2021-10-07T12:48:00Z,2021-12-16,2021-12-16T12:41:00Z,2021-12-16,2022-06-14,2021-12-18,2021-12-18T18:34:53Z,,DAY 3,3,VACCINATION 2,2,Fever occurrence indicator,OCFEVER,5,REACTOGENICITY,SYSTEMIC,,N,Y,,,,,,,,,,,VACCINATION 2,,,,,,,2021-10-07,2021-12-16,N,N
289,ABC,ABC-1002,1002,1002,70,YEARS,F,BLACK OR AFRICAN AMERICAN,Y,VACCINE A VACCINE B,VAXAB,VACCINE A VACCINE B,VAXAB,VACCINE B,VACCINE B,VACCINE A,VACCINE A,VACCINE B,VACCINE B,2021-10-07,2021-10-07T12:48:00Z,2021-12-16,2021-12-16T12:41:00Z,2021-12-16,2022-06-14,2021-12-19,2021-12-19T18:40:14Z,,DAY 4,4,VACCINATION 2,2,Fever occurrence indicator,OCFEVER,5,REACTOGENICITY,SYSTEMIC,,N,Y,,,,,,,,,,,VACCINATION 2,,,,,,,2021-10-07,2021-12-16,N,N
290,ABC,ABC-1002,1002,1002,70,YEARS,F,BLACK OR AFRICAN AMERICAN,Y,VACCINE A VACCINE B,VAXAB,VACCINE A VACCINE B,VAXAB,VACCINE B,VACCINE B,VACCINE A,VACCINE A,VACCINE B,VACCINE B,2021-10-07,2021-10-07T12:48:00Z,2021-12-16,2021-12-16T12:41:00Z,2021-12-16,2022-06-14,2021-12-20,2021-12-20T18:33:47Z,,DAY 5,5,VACCINATION 2,2,Fever occurrence indicator,OCFEVER,5,REACTOGENICITY,SYSTEMIC,,N,Y,,,,,,,,,,,VACCINATION 2,,,,,,,2021-10-07,2021-12-16,N,N
291,ABC,ABC-1002,1002,1002,70,YEARS,F,BLACK OR AFRICAN AMERICAN,Y,VACCINE A VACCINE B,VAXAB,VACCINE A VACCINE B,VAXAB,VACCINE B,VACCINE B,VACCINE A,VACCINE A,VACCINE B,VACCINE B,2021-10-07,2021-10-07T12:48:00Z,2021-12-16,2021-12-16T12:41:00Z,2021-12-16,2022-06-14,2021-12-21,2021-12-21T18:20:15Z,,DAY 6,6,VACCINATION 2,2,Fever occurrence indicator,OCFEVER,5,REACTOGENICITY,SYSTEMIC,,N,Y,,,,,,,,,,,VACCINATION 2,,,,,,,2021-10-07,2021-12-16,N,N
292,ABC,ABC-1002,1002,1002,70,YEARS,F,BLACK OR AFRICAN AMERICAN,Y,VACCINE A VACCINE B,VAXAB,VACCINE A VACCINE B,VAXAB,VACCINE B,VACCINE B,VACCINE A,VACCINE A,VACCINE B,VACCINE B,2021-10-07,2021-10-07T12:48:00Z,2021-12-16,2021-12-16T12:41:00Z,2021-12-16,2022-06-14,2021-12-22,2021-12-22T18:23:21Z,,DAY 7,7,VACCINATION 2,2,Fever occurrence indicator,OCFEVER,5,REACTOGENICITY,SYSTEMIC,,N,Y,,,,,,,,,,,VACCINATION 2,,,,,,,2021-10-07,2021-12-16,N,N
293,ABC,ABC-1002,1002,1002,70,YEARS,F,BLACK OR AFRICAN AMERICAN,Y,VACCINE A VACCINE B,VAXAB,VACCINE A VACCINE B,VAXAB,VACCINE B,VACCINE B,VACCINE A,VACCINE A,VACCINE B,VACCINE B,2021-10-07,2021-10-07T12:48:00Z,2021-12-16,2021-12-16T12:41:00Z,2021-12-16,2022-06-14,2021-12-16,2021-12-16T18:01:47Z,71,DAY 1,1,VACCINATION 2,2,Headache occurrence indicator,OCHEAD,17,REACTOGENICITY,SYSTEMIC,,N,Y,,,Occurrence Indicator,VACCINATION 2-HEADACHE-DAY 1,VACCINATION 2-HEADACHE,OCCUR,HEADACHE,,,STUDY SUBJECT,VACCINATION 2,SINCE VACCINATION,1,VACCINE B,2021-12-16T12:41:00,2021-12-16T12:41:00,N,2021-10-07,2021-12-16,Y,N
294,ABC,ABC-1002,1002,1002,70,YEARS,F,BLACK OR AFRICAN AMERICAN,Y,VACCINE A VACCINE B,VAXAB,VACCINE A VACCINE B,VAXAB,VACCINE B,VACCINE B,VACCINE A,VACCINE A,VACCINE B,VACCINE B,2021-10-07,2021-10-07T12:48:00Z,2021-12-16,2021-12-16T12:41:00Z,2021-12-16,2022-06-14,2021-12-17,2021-12-17T18:22:25Z,72,DAY 2,2,VACCINATION 2,2,Headache occurrence indicator,OCHEAD,17,REACTOGENICITY,SYSTEMIC,,N,Y,,,Occurrence Indicator,VACCINATION 2-HEADACHE-DAY 2,VACCINATION 2-HEADACHE,OCCUR,HEADACHE,,,STUDY SUBJECT,VACCINATION 2,,1,VACCINE B,2021-12-16T12:41:00,2021-12-16T12:41:00,N,2021-10-07,2021-12-16,Y,N
295,ABC,ABC-1002,1002,1002,70,YEARS,F,BLACK OR AFRICAN AMERICAN,Y,VACCINE A VACCINE B,VAXAB,VACCINE A VACCINE B,VAXAB,VACCINE B,VACCINE B,VACCINE A,VACCINE A,VACCINE B,VACCINE B,2021-10-07,2021-10-07T12:48:00Z,2021-12-16,2021-12-16T12:41:00Z,2021-12-16,2022-06-14,2021-12-18,2021-12-18T18:34:53Z,73,DAY 3,3,VACCINATION 2,2,Headache occurrence indicator,OCHEAD,17,REACTOGENICITY,SYSTEMIC,,N,Y,,,Occurrence Indicator,VACCINATION 2-HEADACHE-DAY 3,VACCINATION 2-HEADACHE,OCCUR,HEADACHE,,,STUDY SUBJECT,VACCINATION 2,,1,VACCINE B,2021-12-16T12:41:00,2021-12-16T12:41:00,N,2021-10-07,2021-12-16,Y,N
296,ABC,ABC-1002,1002,1002,70,YEARS,F,BLACK OR AFRICAN AMERICAN,Y,VACCINE A VACCINE B,VAXAB,VACCINE A VACCINE B,VAXAB,VACCINE B,VACCINE B,VACCINE A,VACCINE A,VACCINE B,VACCINE B,2021-10-07,2021-10-07T12:48:00Z,2021-12-16,2021-12-16T12:41:00Z,2021-12-16,2022-06-14,2021-12-19,2021-12-19T18:40:14Z,74,DAY 4,4,VACCINATION 2,2,Headache occurrence indicator,OCHEAD,17,REACTOGENICITY,SYSTEMIC,,N,Y,,,Occurrence Indicator,VACCINATION 2-HEADACHE-DAY 4,VACCINATION 2-HEADACHE,OCCUR,HEADACHE,,,STUDY SUBJECT,VACCINATION 2,,1,VACCINE B,2021-12-16T12:41:00,2021-12-16T12:41:00,N,2021-10-07,2021-12-16,Y,N
297,ABC,ABC-1002,1002,1002,70,YEARS,F,BLACK OR AFRICAN AMERICAN,Y,VACCINE A VACCINE B,VAXAB,VACCINE A VACCINE B,VAXAB,VACCINE B,VACCINE B,VACCINE A,VACCINE A,VACCINE B,VACCINE B,2021-10-07,2021-10-07T12:48:00Z,2021-12-16,2021-12-16T12:41:00Z,2021-12-16,2022-06-14,2021-12-20,2021-12-20T18:33:47Z,75,DAY 5,5,VACCINATION 2,2,Headache occurrence indicator,OCHEAD,17,REACTOGENICITY,SYSTEMIC,,N,Y,,,Occurrence Indicator,VACCINATION 2-HEADACHE-DAY 5,VACCINATION 2-HEADACHE,OCCUR,HEADACHE,,,STUDY SUBJECT,VACCINATION 2,,1,VACCINE B,2021-12-16T12:41:00,2021-12-16T12:41:00,N,2021-10-07,2021-12-16,Y,N
298,ABC,ABC-1002,1002,1002,70,YEARS,F,BLACK OR AFRICAN AMERICAN,Y,VACCINE A VACCINE B,VAXAB,VACCINE A VACCINE B,VAXAB,VACCINE B,VACCINE B,VACCINE A,VACCINE A,VACCINE B,VACCINE B,2021-10-07,2021-10-07T12:48:00Z,2021-12-16,2021-12-16T12:41:00Z,2021-12-16,2022-06-14,2021-12-21,2021-12-21T18:20:15Z,76,DAY 6,6,VACCINATION 2,2,Headache occurrence indicator,OCHEAD,17,REACTOGENICITY,SYSTEMIC,,Y,Y,,,Occurrence Indicator,VACCINATION 2-HEADACHE-DAY 6,VACCINATION 2-HEADACHE,OCCUR,HEADACHE,,,STUDY SUBJECT,VACCINATION 2,,1,VACCINE B,2021-12-16T12:41:00,2021-12-16T12:41:00,Y,2021-10-07,2021-12-16,Y,Y
299,ABC,ABC-1002,1002,1002,70,YEARS,F,BLACK OR AFRICAN AMERICAN,Y,VACCINE A VACCINE B,VAXAB,VACCINE A VACCINE B,VAXAB,VACCINE B,VACCINE B,VACCINE A,VACCINE A,VACCINE B,VACCINE B,2021-10-07,2021-10-07T12:48:00Z,2021-12-16,2021-12-16T12:41:00Z,2021-12-16,2022-06-14,2021-12-22,2021-12-22T18:23:21Z,77,DAY 7,7,VACCINATION 2,2,Headache occurrence indicator,OCHEAD,17,REACTOGENICITY,SYSTEMIC,,N,Y,,,Occurrence Indicator,VACCINATION 2-HEADACHE-DAY 7,VACCINATION 2-HEADACHE,OCCUR,HEADACHE,,,STUDY SUBJECT,VACCINATION 2,,1,VACCINE B,2021-12-16T12:41:00,2021-12-16T12:41:00,N,2021-10-07,2021-12-16,Y,N
300,ABC,ABC-1002,1002,1002,70,YEARS,F,BLACK OR AFRICAN AMERICAN,Y,VACCINE A VACCINE B,VAXAB,VACCINE A VACCINE B,VAXAB,VACCINE B,VACCINE B,VACCINE A,VACCINE A,VACCINE B,VACCINE B,2021-10-07,2021-10-07T12:48:00Z,2021-12-16,2021-12-16T12:41:00Z,2021-12-16,2022-06-14,2021-12-21,2021-12-21T18:20:15Z,76,DAY 6,6,VACCINATION 2,2,Headache severity/intensity,SEVHEAD,25,REACTOGENICITY,SYSTEMIC,1,MILD,Y,Y,,Severity/Intensity,VACCINATION 2-HEADACHE-DAY 6,VACCINATION 2-HEADACHE,SEV,HEADACHE,,,STUDY SUBJECT,VACCINATION 2,,1,VACCINE B,2021-12-16T12:41:00,2021-12-16T12:41:00,MILD,2021-10-07,2021-12-16,Y,Y
301,ABC,ABC-1002,1002,1002,70,YEARS,F,BLACK OR AFRICAN AMERICAN,Y,VACCINE A VACCINE B,VAXAB,VACCINE A VACCINE B,VAXAB,VACCINE B,VACCINE B,VACCINE A,VACCINE A,VACCINE B,VACCINE B,2021-10-07,2021-10-07T12:48:00Z,2021-12-16,2021-12-16T12:41:00Z,2021-12-16,2022-06-14,2021-12-16,2021-12-16T18:01:47Z,71,DAY 1,1,VACCINATION 2,2,New or worsened joint pain occurrence indicator,OCCNWJP,20,REACTOGENICITY,SYSTEMIC,,N,Y,,,Occurrence Indicator,VACCINATION 2-NEW OR WORSENED JOINT PAIN-DAY 1,VACCINATION 2-NEW OR WORSENED JOINT PAIN,OCCUR,NEW OR WORSENED JOINT PAIN,,,STUDY SUBJECT,VACCINATION 2,SINCE VACCINATION,1,VACCINE B,2021-12-16T12:41:00,2021-12-16T12:41:00,N,2021-10-07,2021-12-16,N,N
302,ABC,ABC-1002,1002,1002,70,YEARS,F,BLACK OR AFRICAN AMERICAN,Y,VACCINE A VACCINE B,VAXAB,VACCINE A VACCINE B,VAXAB,VACCINE B,VACCINE B,VACCINE A,VACCINE A,VACCINE B,VACCINE B,2021-10-07,2021-10-07T12:48:00Z,2021-12-16,2021-12-16T12:41:00Z,2021-12-16,2022-06-14,2021-12-17,2021-12-17T18:22:25Z,72,DAY 2,2,VACCINATION 2,2,New or worsened joint pain occurrence indicator,OCCNWJP,20,REACTOGENICITY,SYSTEMIC,,N,Y,,,Occurrence Indicator,VACCINATION 2-NEW OR WORSENED JOINT PAIN-DAY 2,VACCINATION 2-NEW OR WORSENED JOINT PAIN,OCCUR,NEW OR WORSENED JOINT PAIN,,,STUDY SUBJECT,VACCINATION 2,,1,VACCINE B,2021-12-16T12:41:00,2021-12-16T12:41:00,N,2021-10-07,2021-12-16,N,N
303,ABC,ABC-1002,1002,1002,70,YEARS,F,BLACK OR AFRICAN AMERICAN,Y,VACCINE A VACCINE B,VAXAB,VACCINE A VACCINE B,VAXAB,VACCINE B,VACCINE B,VACCINE A,VACCINE A,VACCINE B,VACCINE B,2021-10-07,2021-10-07T12:48:00Z,2021-12-16,2021-12-16T12:41:00Z,2021-12-16,2022-06-14,2021-12-18,2021-12-18T18:34:53Z,73,DAY 3,3,VACCINATION 2,2,New or worsened joint pain occurrence indicator,OCCNWJP,20,REACTOGENICITY,SYSTEMIC,,N,Y,,,Occurrence Indicator,VACCINATION 2-NEW OR WORSENED JOINT PAIN-DAY 3,VACCINATION 2-NEW OR WORSENED JOINT PAIN,OCCUR,NEW OR WORSENED JOINT PAIN,,,STUDY SUBJECT,VACCINATION 2,,1,VACCINE B,2021-12-16T12:41:00,2021-12-16T12:41:00,N,2021-10-07,2021-12-16,N,N
304,ABC,ABC-1002,1002,1002,70,YEARS,F,BLACK OR AFRICAN AMERICAN,Y,VACCINE A VACCINE B,VAXAB,VACCINE A VACCINE B,VAXAB,VACCINE B,VACCINE B,VACCINE A,VACCINE A,VACCINE B,VACCINE B,2021-10-07,2021-10-07T12:48:00Z,2021-12-16,2021-12-16T12:41:00Z,2021-12-16,2022-06-14,2021-12-19,2021-12-19T18:40:14Z,74,DAY 4,4,VACCINATION 2,2,New or worsened joint pain occurrence indicator,OCCNWJP,20,REACTOGENICITY,SYSTEMIC,,N,Y,,,Occurrence Indicator,VACCINATION 2-NEW OR WORSENED JOINT PAIN-DAY 4,VACCINATION 2-NEW OR WORSENED JOINT PAIN,OCCUR,NEW OR WORSENED JOINT PAIN,,,STUDY SUBJECT,VACCINATION 2,,1,VACCINE B,2021-12-16T12:41:00,2021-12-16T12:41:00,N,2021-10-07,2021-12-16,N,N
305,ABC,ABC-1002,1002,1002,70,YEARS,F,BLACK OR AFRICAN AMERICAN,Y,VACCINE A VACCINE B,VAXAB,VACCINE A VACCINE B,VAXAB,VACCINE B,VACCINE B,VACCINE A,VACCINE A,VACCINE B,VACCINE B,2021-10-07,2021-10-07T12:48:00Z,2021-12-16,2021-12-16T12:41:00Z,2021-12-16,2022-06-14,2021-12-20,2021-12-20T18:33:47Z,75,DAY 5,5,VACCINATION 2,2,New or worsened joint pain occurrence indicator,OCCNWJP,20,REACTOGENICITY,SYSTEMIC,,N,Y,,,Occurrence Indicator,VACCINATION 2-NEW OR WORSENED JOINT PAIN-DAY 5,VACCINATION 2-NEW OR WORSENED JOINT PAIN,OCCUR,NEW OR WORSENED JOINT PAIN,,,STUDY SUBJECT,VACCINATION 2,,1,VACCINE B,2021-12-16T12:41:00,2021-12-16T12:41:00,N,2021-10-07,2021-12-16,N,N
306,ABC,ABC-1002,1002,1002,70,YEARS,F,BLACK OR AFRICAN AMERICAN,Y,VACCINE A VACCINE B,VAXAB,VACCINE A VACCINE B,VAXAB,VACCINE B,VACCINE B,VACCINE A,VACCINE A,VACCINE B,VACCINE B,2021-10-07,2021-10-07T12:48:00Z,2021-12-16,2021-12-16T12:41:00Z,2021-12-16,2022-06-14,2021-12-21,2021-12-21T18:20:15Z,76,DAY 6,6,VACCINATION 2,2,New or worsened joint pain occurrence indicator,OCCNWJP,20,REACTOGENICITY,SYSTEMIC,,N,Y,,,Occurrence Indicator,VACCINATION 2-NEW OR WORSENED JOINT PAIN-DAY 6,VACCINATION 2-NEW OR WORSENED JOINT PAIN,OCCUR,NEW OR WORSENED JOINT PAIN,,,STUDY SUBJECT,VACCINATION 2,,1,VACCINE B,2021-12-16T12:41:00,2021-12-16T12:41:00,N,2021-10-07,2021-12-16,N,N
307,ABC,ABC-1002,1002,1002,70,YEARS,F,BLACK OR AFRICAN AMERICAN,Y,VACCINE A VACCINE B,VAXAB,VACCINE A VACCINE B,VAXAB,VACCINE B,VACCINE B,VACCINE A,VACCINE A,VACCINE B,VACCINE B,2021-10-07,2021-10-07T12:48:00Z,2021-12-16,2021-12-16T12:41:00Z,2021-12-16,2022-06-14,2021-12-22,2021-12-22T18:23:21Z,77,DAY 7,7,VACCINATION 2,2,New or worsened joint pain occurrence indicator,OCCNWJP,20,REACTOGENICITY,SYSTEMIC,,N,Y,,,Occurrence Indicator,VACCINATION 2-NEW OR WORSENED JOINT PAIN-DAY 7,VACCINATION 2-NEW OR WORSENED JOINT PAIN,OCCUR,NEW OR WORSENED JOINT PAIN,,,STUDY SUBJECT,VACCINATION 2,,1,VACCINE B,2021-12-16T12:41:00,2021-12-16T12:41:00,N,2021-10-07,2021-12-16,N,N
308,ABC,ABC-1002,1002,1002,70,YEARS,F,BLACK OR AFRICAN AMERICAN,Y,VACCINE A VACCINE B,VAXAB,VACCINE A VACCINE B,VAXAB,VACCINE B,VACCINE B,VACCINE A,VACCINE A,VACCINE B,VACCINE B,2021-10-07,2021-10-07T12:48:00Z,2021-12-16,2021-12-16T12:41:00Z,2021-12-16,2022-06-14,2021-12-16,2021-12-16T18:01:47Z,71,DAY 1,1,VACCINATION 2,2,New or worsened muscle pain occurrence indicator,OCCNWMP,21,REACTOGENICITY,SYSTEMIC,,N,Y,,,Occurrence Indicator,VACCINATION 2-NEW OR WORSENED MUSCLE PAIN-DAY 1,VACCINATION 2-NEW OR WORSENED MUSCLE PAIN,OCCUR,NEW OR WORSENED MUSCLE PAIN,,,STUDY SUBJECT,VACCINATION 2,SINCE VACCINATION,1,VACCINE B,2021-12-16T12:41:00,2021-12-16T12:41:00,N,2021-10-07,2021-12-16,N,N
309,ABC,ABC-1002,1002,1002,70,YEARS,F,BLACK OR AFRICAN AMERICAN,Y,VACCINE A VACCINE B,VAXAB,VACCINE A VACCINE B,VAXAB,VACCINE B,VACCINE B,VACCINE A,VACCINE A,VACCINE B,VACCINE B,2021-10-07,2021-10-07T12:48:00Z,2021-12-16,2021-12-16T12:41:00Z,2021-12-16,2022-06-14,2021-12-17,2021-12-17T18:22:25Z,72,DAY 2,2,VACCINATION 2,2,New or worsened muscle pain occurrence indicator,OCCNWMP,21,REACTOGENICITY,SYSTEMIC,,N,Y,,,Occurrence Indicator,VACCINATION 2-NEW OR WORSENED MUSCLE PAIN-DAY 2,VACCINATION 2-NEW OR WORSENED MUSCLE PAIN,OCCUR,NEW OR WORSENED MUSCLE PAIN,,,STUDY SUBJECT,VACCINATION 2,,1,VACCINE B,2021-12-16T12:41:00,2021-12-16T12:41:00,N,2021-10-07,2021-12-16,N,N
310,ABC,ABC-1002,1002,1002,70,YEARS,F,BLACK OR AFRICAN AMERICAN,Y,VACCINE A VACCINE B,VAXAB,VACCINE A VACCINE B,VAXAB,VACCINE B,VACCINE B,VACCINE A,VACCINE A,VACCINE B,VACCINE B,2021-10-07,2021-10-07T12:48:00Z,2021-12-16,2021-12-16T12:41:00Z,2021-12-16,2022-06-14,2021-12-18,2021-12-18T18:34:53Z,73,DAY 3,3,VACCINATION 2,2,New or worsened muscle pain occurrence indicator,OCCNWMP,21,REACTOGENICITY,SYSTEMIC,,N,Y,,,Occurrence Indicator,VACCINATION 2-NEW OR WORSENED MUSCLE PAIN-DAY 3,VACCINATION 2-NEW OR WORSENED MUSCLE PAIN,OCCUR,NEW OR WORSENED MUSCLE PAIN,,,STUDY SUBJECT,VACCINATION 2,,1,VACCINE B,2021-12-16T12:41:00,2021-12-16T12:41:00,N,2021-10-07,2021-12-16,N,N
311,ABC,ABC-1002,1002,1002,70,YEARS,F,BLACK OR AFRICAN AMERICAN,Y,VACCINE A VACCINE B,VAXAB,VACCINE A VACCINE B,VAXAB,VACCINE B,VACCINE B,VACCINE A,VACCINE A,VACCINE B,VACCINE B,2021-10-07,2021-10-07T12:48:00Z,2021-12-16,2021-12-16T12:41:00Z,2021-12-16,2022-06-14,2021-12-19,2021-12-19T18:40:14Z,74,DAY 4,4,VACCINATION 2,2,New or worsened muscle pain occurrence indicator,OCCNWMP,21,REACTOGENICITY,SYSTEMIC,,N,Y,,,Occurrence Indicator,VACCINATION 2-NEW OR WORSENED MUSCLE PAIN-DAY 4,VACCINATION 2-NEW OR WORSENED MUSCLE PAIN,OCCUR,NEW OR WORSENED MUSCLE PAIN,,,STUDY SUBJECT,VACCINATION 2,,1,VACCINE B,2021-12-16T12:41:00,2021-12-16T12:41:00,N,2021-10-07,2021-12-16,N,N
312,ABC,ABC-1002,1002,1002,70,YEARS,F,BLACK OR AFRICAN AMERICAN,Y,VACCINE A VACCINE B,VAXAB,VACCINE A VACCINE B,VAXAB,VACCINE B,VACCINE B,VACCINE A,VACCINE A,VACCINE B,VACCINE B,2021-10-07,2021-10-07T12:48:00Z,2021-12-16,2021-12-16T12:41:00Z,2021-12-16,2022-06-14,2021-12-20,2021-12-20T18:33:47Z,75,DAY 5,5,VACCINATION 2,2,New or worsened muscle pain occurrence indicator,OCCNWMP,21,REACTOGENICITY,SYSTEMIC,,N,Y,,,Occurrence Indicator,VACCINATION 2-NEW OR WORSENED MUSCLE PAIN-DAY 5,VACCINATION 2-NEW OR WORSENED MUSCLE PAIN,OCCUR,NEW OR WORSENED MUSCLE PAIN,,,STUDY SUBJECT,VACCINATION 2,,1,VACCINE B,2021-12-16T12:41:00,2021-12-16T12:41:00,N,2021-10-07,2021-12-16,N,N
313,ABC,ABC-1002,1002,1002,70,YEARS,F,BLACK OR AFRICAN AMERICAN,Y,VACCINE A VACCINE B,VAXAB,VACCINE A VACCINE B,VAXAB,VACCINE B,VACCINE B,VACCINE A,VACCINE A,VACCINE B,VACCINE B,2021-10-07,2021-10-07T12:48:00Z,2021-12-16,2021-12-16T12:41:00Z,2021-12-16,2022-06-14,2021-12-21,2021-12-21T18:20:15Z,76,DAY 6,6,VACCINATION 2,2,New or worsened muscle pain occurrence indicator,OCCNWMP,21,REACTOGENICITY,SYSTEMIC,,N,Y,,,Occurrence Indicator,VACCINATION 2-NEW OR WORSENED MUSCLE PAIN-DAY 6,VACCINATION 2-NEW OR WORSENED MUSCLE PAIN,OCCUR,NEW OR WORSENED MUSCLE PAIN,,,STUDY SUBJECT,VACCINATION 2,,1,VACCINE B,2021-12-16T12:41:00,2021-12-16T12:41:00,N,2021-10-07,2021-12-16,N,N
314,ABC,ABC-1002,1002,1002,70,YEARS,F,BLACK OR AFRICAN AMERICAN,Y,VACCINE A VACCINE B,VAXAB,VACCINE A VACCINE B,VAXAB,VACCINE B,VACCINE B,VACCINE A,VACCINE A,VACCINE B,VACCINE B,2021-10-07,2021-10-07T12:48:00Z,2021-12-16,2021-12-16T12:41:00Z,2021-12-16,2022-06-14,2021-12-22,2021-12-22T18:23:21Z,77,DAY 7,7,VACCINATION 2,2,New or worsened muscle pain occurrence indicator,OCCNWMP,21,REACTOGENICITY,SYSTEMIC,,N,Y,,,Occurrence Indicator,VACCINATION 2-NEW OR WORSENED MUSCLE PAIN-DAY 7,VACCINATION 2-NEW OR WORSENED MUSCLE PAIN,OCCUR,NEW OR WORSENED MUSCLE PAIN,,,STUDY SUBJECT,VACCINATION 2,,1,VACCINE B,2021-12-16T12:41:00,2021-12-16T12:41:00,N,2021-10-07,2021-12-16,N,N
315,ABC,ABC-1002,1002,1002,70,YEARS,F,BLACK OR AFRICAN AMERICAN,Y,VACCINE A VACCINE B,VAXAB,VACCINE A VACCINE B,VAXAB,VACCINE B,VACCINE B,VACCINE A,VACCINE A,VACCINE B,VACCINE B,2021-10-07,2021-10-07T12:48:00Z,2021-12-16,2021-12-16T12:41:00Z,2021-12-16,2022-06-14,2021-12-16,2021-12-16T18:01:47Z,71,DAY 1,1,VACCINATION 2,2,Pain at injection site occurrence indicator deltoid muscle left,OCPIS,15,REACTOGENICITY,ADMINISTRATION SITE,,Y,Y,,,Occurrence Indicator,VACCINATION 2-DELTOID MUSCLE-LEFT-PAIN AT INJECTION SITE-DAY 1,VACCINATION 2-DELTOID MUSCLE-LEFT-PAIN AT INJECTION SITE,OCCUR,PAIN AT INJECTION SITE,,,STUDY SUBJECT,VACCINATION 2,SINCE VACCINATION,1,VACCINE B,2021-12-16T12:41:00,2021-12-16T12:41:00,Y,2021-10-07,2021-12-16,Y,Y
316,ABC,ABC-1002,1002,1002,70,YEARS,F,BLACK OR AFRICAN AMERICAN,Y,VACCINE A VACCINE B,VAXAB,VACCINE A VACCINE B,VAXAB,VACCINE B,VACCINE B,VACCINE A,VACCINE A,VACCINE B,VACCINE B,2021-10-07,2021-10-07T12:48:00Z,2021-12-16,2021-12-16T12:41:00Z,2021-12-16,2022-06-14,2021-12-17,2021-12-17T18:22:25Z,72,DAY 2,2,VACCINATION 2,2,Pain at injection site occurrence indicator deltoid muscle left,OCPIS,15,REACTOGENICITY,ADMINISTRATION SITE,,N,Y,,,Occurrence Indicator,VACCINATION 2-DELTOID MUSCLE-LEFT-PAIN AT INJECTION SITE-DAY 2,VACCINATION 2-DELTOID MUSCLE-LEFT-PAIN AT INJECTION SITE,OCCUR,PAIN AT INJECTION SITE,,,STUDY SUBJECT,VACCINATION 2,,1,VACCINE B,2021-12-16T12:41:00,2021-12-16T12:41:00,N,2021-10-07,2021-12-16,Y,N
317,ABC,ABC-1002,1002,1002,70,YEARS,F,BLACK OR AFRICAN AMERICAN,Y,VACCINE A VACCINE B,VAXAB,VACCINE A VACCINE B,VAXAB,VACCINE B,VACCINE B,VACCINE A,VACCINE A,VACCINE B,VACCINE B,2021-10-07,2021-10-07T12:48:00Z,2021-12-16,2021-12-16T12:41:00Z,2021-12-16,2022-06-14,2021-12-18,2021-12-18T18:34:53Z,73,DAY 3,3,VACCINATION 2,2,Pain at injection site occurrence indicator deltoid muscle left,OCPIS,15,REACTOGENICITY,ADMINISTRATION SITE,,N,Y,,,Occurrence Indicator,VACCINATION 2-DELTOID MUSCLE-LEFT-PAIN AT INJECTION SITE-DAY 3,VACCINATION 2-DELTOID MUSCLE-LEFT-PAIN AT INJECTION SITE,OCCUR,PAIN AT INJECTION SITE,,,STUDY SUBJECT,VACCINATION 2,,1,VACCINE B,2021-12-16T12:41:00,2021-12-16T12:41:00,N,2021-10-07,2021-12-16,Y,N
318,ABC,ABC-1002,1002,1002,70,YEARS,F,BLACK OR AFRICAN AMERICAN,Y,VACCINE A VACCINE B,VAXAB,VACCINE A VACCINE B,VAXAB,VACCINE B,VACCINE B,VACCINE A,VACCINE A,VACCINE B,VACCINE B,2021-10-07,2021-10-07T12:48:00Z,2021-12-16,2021-12-16T12:41:00Z,2021-12-16,2022-06-14,2021-12-19,2021-12-19T18:40:14Z,74,DAY 4,4,VACCINATION 2,2,Pain at injection site occurrence indicator deltoid muscle left,OCPIS,15,REACTOGENICITY,ADMINISTRATION SITE,,Y,Y,,,Occurrence Indicator,VACCINATION 2-DELTOID MUSCLE-LEFT-PAIN AT INJECTION SITE-DAY 4,VACCINATION 2-DELTOID MUSCLE-LEFT-PAIN AT INJECTION SITE,OCCUR,PAIN AT INJECTION SITE,,,STUDY SUBJECT,VACCINATION 2,,1,VACCINE B,2021-12-16T12:41:00,2021-12-16T12:41:00,Y,2021-10-07,2021-12-16,Y,Y
319,ABC,ABC-1002,1002,1002,70,YEARS,F,BLACK OR AFRICAN AMERICAN,Y,VACCINE A VACCINE B,VAXAB,VACCINE A VACCINE B,VAXAB,VACCINE B,VACCINE B,VACCINE A,VACCINE A,VACCINE B,VACCINE B,2021-10-07,2021-10-07T12:48:00Z,2021-12-16,2021-12-16T12:41:00Z,2021-12-16,2022-06-14,2021-12-20,2021-12-20T18:33:47Z,75,DAY 5,5,VACCINATION 2,2,Pain at injection site occurrence indicator deltoid muscle left,OCPIS,15,REACTOGENICITY,ADMINISTRATION SITE,,N,Y,,,Occurrence Indicator,VACCINATION 2-DELTOID MUSCLE-LEFT-PAIN AT INJECTION SITE-DAY 5,VACCINATION 2-DELTOID MUSCLE-LEFT-PAIN AT INJECTION SITE,OCCUR,PAIN AT INJECTION SITE,,,STUDY SUBJECT,VACCINATION 2,,1,VACCINE B,2021-12-16T12:41:00,2021-12-16T12:41:00,N,2021-10-07,2021-12-16,Y,N
320,ABC,ABC-1002,1002,1002,70,YEARS,F,BLACK OR AFRICAN AMERICAN,Y,VACCINE A VACCINE B,VAXAB,VACCINE A VACCINE B,VAXAB,VACCINE B,VACCINE B,VACCINE A,VACCINE A,VACCINE B,VACCINE B,2021-10-07,2021-10-07T12:48:00Z,2021-12-16,2021-12-16T12:41:00Z,2021-12-16,2022-06-14,2021-12-21,2021-12-21T18:20:15Z,76,DAY 6,6,VACCINATION 2,2,Pain at injection site occurrence indicator deltoid muscle left,OCPIS,15,REACTOGENICITY,ADMINISTRATION SITE,,N,Y,,,Occurrence Indicator,VACCINATION 2-DELTOID MUSCLE-LEFT-PAIN AT INJECTION SITE-DAY 6,VACCINATION 2-DELTOID MUSCLE-LEFT-PAIN AT INJECTION SITE,OCCUR,PAIN AT INJECTION SITE,,,STUDY SUBJECT,VACCINATION 2,,1,VACCINE B,2021-12-16T12:41:00,2021-12-16T12:41:00,N,2021-10-07,2021-12-16,Y,N
321,ABC,ABC-1002,1002,1002,70,YEARS,F,BLACK OR AFRICAN AMERICAN,Y,VACCINE A VACCINE B,VAXAB,VACCINE A VACCINE B,VAXAB,VACCINE B,VACCINE B,VACCINE A,VACCINE A,VACCINE B,VACCINE B,2021-10-07,2021-10-07T12:48:00Z,2021-12-16,2021-12-16T12:41:00Z,2021-12-16,2022-06-14,2021-12-22,2021-12-22T18:23:21Z,77,DAY 7,7,VACCINATION 2,2,Pain at injection site occurrence indicator deltoid muscle left,OCPIS,15,REACTOGENICITY,ADMINISTRATION SITE,,N,Y,,,Occurrence Indicator,VACCINATION 2-DELTOID MUSCLE-LEFT-PAIN AT INJECTION SITE-DAY 7,VACCINATION 2-DELTOID MUSCLE-LEFT-PAIN AT INJECTION SITE,OCCUR,PAIN AT INJECTION SITE,,,STUDY SUBJECT,VACCINATION 2,,1,VACCINE B,2021-12-16T12:41:00,2021-12-16T12:41:00,N,2021-10-07,2021-12-16,Y,N
322,ABC,ABC-1002,1002,1002,70,YEARS,F,BLACK OR AFRICAN AMERICAN,Y,VACCINE A VACCINE B,VAXAB,VACCINE A VACCINE B,VAXAB,VACCINE B,VACCINE B,VACCINE A,VACCINE A,VACCINE B,VACCINE B,2021-10-07,2021-10-07T12:48:00Z,2021-12-16,2021-12-16T12:41:00Z,2021-12-16,2022-06-14,2021-12-16,2021-12-16T18:01:47Z,71,DAY 1,1,VACCINATION 2,2,Pain at injection site severity/intensity deltoid muscle left,SEVPIS,23,REACTOGENICITY,ADMINISTRATION SITE,1,MILD,Y,Y,Y,Severity/Intensity,VACCINATION 2-DELTOID MUSCLE-LEFT-PAIN AT INJECTION SITE-DAY 1,VACCINATION 2-DELTOID MUSCLE-LEFT-PAIN AT INJECTION SITE,SEV,PAIN AT INJECTION SITE,,,STUDY SUBJECT,VACCINATION 2,SINCE VACCINATION,1,VACCINE B,2021-12-16T12:41:00,2021-12-16T12:41:00,MILD,2021-10-07,2021-12-16,Y,Y
323,ABC,ABC-1002,1002,1002,70,YEARS,F,BLACK OR AFRICAN AMERICAN,Y,VACCINE A VACCINE B,VAXAB,VACCINE A VACCINE B,VAXAB,VACCINE B,VACCINE B,VACCINE A,VACCINE A,VACCINE B,VACCINE B,2021-10-07,2021-10-07T12:48:00Z,2021-12-16,2021-12-16T12:41:00Z,2021-12-16,2022-06-14,2021-12-19,2021-12-19T18:40:14Z,74,DAY 4,4,VACCINATION 2,2,Pain at injection site severity/intensity deltoid muscle left,SEVPIS,23,REACTOGENICITY,ADMINISTRATION SITE,1,MILD,Y,,,Severity/Intensity,VACCINATION 2-DELTOID MUSCLE-LEFT-PAIN AT INJECTION SITE-DAY 4,VACCINATION 2-DELTOID MUSCLE-LEFT-PAIN AT INJECTION SITE,SEV,PAIN AT INJECTION SITE,,,STUDY SUBJECT,VACCINATION 2,,1,VACCINE B,2021-12-16T12:41:00,2021-12-16T12:41:00,MILD,2021-10-07,2021-12-16,Y,Y
324,ABC,ABC-1002,1002,1002,70,YEARS,F,BLACK OR AFRICAN AMERICAN,Y,VACCINE A VACCINE B,VAXAB,VACCINE A VACCINE B,VAXAB,VACCINE B,VACCINE B,VACCINE A,VACCINE A,VACCINE B,VACCINE B,2021-10-07,2021-10-07T12:48:00Z,2021-12-16,2021-12-16T12:41:00Z,2021-12-16,2022-06-14,2021-12-17,2021-12-17T18:22:25Z,72,DAY 2,2,VACCINATION 2,2,Redness diameter deltoid muscle left,DIARE,2,REACTOGENICITY,ADMINISTRATION SITE,3,3,Y,Y,Y,Diameter,VACCINATION 2-DELTOID MUSCLE-LEFT-REDNESS-DAY 2,VACCINATION 2-DELTOID MUSCLE-LEFT-REDNESS,DIAMETER,REDNESS,,,STUDY SUBJECT,VACCINATION 2,,1,VACCINE B,2021-12-16T12:41:00,2021-12-16T12:41:00,6,2021-10-07,2021-12-16,Y,Y
325,ABC,ABC-1002,1002,1002,70,YEARS,F,BLACK OR AFRICAN AMERICAN,Y,VACCINE A VACCINE B,VAXAB,VACCINE A VACCINE B,VAXAB,VACCINE B,VACCINE B,VACCINE A,VACCINE A,VACCINE B,VACCINE B,2021-10-07,2021-10-07T12:48:00Z,2021-12-16,2021-12-16T12:41:00Z,2021-12-16,2022-06-14,2021-12-18,2021-12-18T18:34:53Z,73,DAY 3,3,VACCINATION 2,2,Redness diameter deltoid muscle left,DIARE,2,REACTOGENICITY,ADMINISTRATION SITE,2.5,2.5,Y,,,Diameter,VACCINATION 2-DELTOID MUSCLE-LEFT-REDNESS-DAY 3,VACCINATION 2-DELTOID MUSCLE-LEFT-REDNESS,DIAMETER,REDNESS,,,STUDY SUBJECT,VACCINATION 2,,1,VACCINE B,2021-12-16T12:41:00,2021-12-16T12:41:00,5,2021-10-07,2021-12-16,Y,N
326,ABC,ABC-1002,1002,1002,70,YEARS,F,BLACK OR AFRICAN AMERICAN,Y,VACCINE A VACCINE B,VAXAB,VACCINE A VACCINE B,VAXAB,VACCINE B,VACCINE B,VACCINE A,VACCINE A,VACCINE B,VACCINE B,2021-10-07,2021-10-07T12:48:00Z,2021-12-16,2021-12-16T12:41:00Z,2021-12-16,2022-06-14,2021-12-19,2021-12-19T18:40:14Z,74,DAY 4,4,VACCINATION 2,2,Redness diameter deltoid muscle left,DIARE,2,REACTOGENICITY,ADMINISTRATION SITE,3,3,Y,,,Diameter,VACCINATION 2-DELTOID MUSCLE-LEFT-REDNESS-DAY 4,VACCINATION 2-DELTOID MUSCLE-LEFT-REDNESS,DIAMETER,REDNESS,,,STUDY SUBJECT,VACCINATION 2,,1,VACCINE B,2021-12-16T12:41:00,2021-12-16T12:41:00,6,2021-10-07,2021-12-16,Y,Y
327,ABC,ABC-1002,1002,1002,70,YEARS,F,BLACK OR AFRICAN AMERICAN,Y,VACCINE A VACCINE B,VAXAB,VACCINE A VACCINE B,VAXAB,VACCINE B,VACCINE B,VACCINE A,VACCINE A,VACCINE B,VACCINE B,2021-10-07,2021-10-07T12:48:00Z,2021-12-16,2021-12-16T12:41:00Z,2021-12-16,2022-06-14,2021-12-21,2021-12-21T18:20:15Z,76,DAY 6,6,VACCINATION 2,2,Redness diameter deltoid muscle left,DIARE,2,REACTOGENICITY,ADMINISTRATION SITE,2,2,Y,,,Diameter,VACCINATION 2-DELTOID MUSCLE-LEFT-REDNESS-DAY 6,VACCINATION 2-DELTOID MUSCLE-LEFT-REDNESS,DIAMETER,REDNESS,,,STUDY SUBJECT,VACCINATION 2,,1,VACCINE B,2021-12-16T12:41:00,2021-12-16T12:41:00,4,2021-10-07,2021-12-16,Y,N
328,ABC,ABC-1002,1002,1002,70,YEARS,F,BLACK OR AFRICAN AMERICAN,Y,VACCINE A VACCINE B,VAXAB,VACCINE A VACCINE B,VAXAB,VACCINE B,VACCINE B,VACCINE A,VACCINE A,VACCINE B,VACCINE B,2021-10-07,2021-10-07T12:48:00Z,2021-12-16,2021-12-16T12:41:00Z,2021-12-16,2022-06-14,2021-12-16,2021-12-16T18:01:47Z,71,DAY 1,1,VACCINATION 2,2,Redness occurrence indicator deltoid muscle left,OCISR,13,REACTOGENICITY,ADMINISTRATION SITE,,N,Y,,,,,,,,,,,VACCINATION 2,,1,VACCINE B,2021-12-16T12:41:00,2021-12-16T12:41:00,,2021-10-07,2021-12-16,Y,N
329,ABC,ABC-1002,1002,1002,70,YEARS,F,BLACK OR AFRICAN AMERICAN,Y,VACCINE A VACCINE B,VAXAB,VACCINE A VACCINE B,VAXAB,VACCINE B,VACCINE B,VACCINE A,VACCINE A,VACCINE B,VACCINE B,2021-10-07,2021-10-07T12:48:00Z,2021-12-16,2021-12-16T12:41:00Z,2021-12-16,2022-06-14,2021-12-17,2021-12-17T18:22:25Z,72,DAY 2,2,VACCINATION 2,2,Redness occurrence indicator deltoid muscle left,OCISR,13,REACTOGENICITY,ADMINISTRATION SITE,,Y,Y,,,,,,,,,,,VACCINATION 2,,1,VACCINE B,2021-12-16T12:41:00,2021-12-16T12:41:00,,2021-10-07,2021-12-16,Y,Y
330,ABC,ABC-1002,1002,1002,70,YEARS,F,BLACK OR AFRICAN AMERICAN,Y,VACCINE A VACCINE B,VAXAB,VACCINE A VACCINE B,VAXAB,VACCINE B,VACCINE B,VACCINE A,VACCINE A,VACCINE B,VACCINE B,2021-10-07,2021-10-07T12:48:00Z,2021-12-16,2021-12-16T12:41:00Z,2021-12-16,2022-06-14,2021-12-18,2021-12-18T18:34:53Z,73,DAY 3,3,VACCINATION 2,2,Redness occurrence indicator deltoid muscle left,OCISR,13,REACTOGENICITY,ADMINISTRATION SITE,,Y,Y,,,,,,,,,,,VACCINATION 2,,1,VACCINE B,2021-12-16T12:41:00,2021-12-16T12:41:00,,2021-10-07,2021-12-16,Y,Y
331,ABC,ABC-1002,1002,1002,70,YEARS,F,BLACK OR AFRICAN AMERICAN,Y,VACCINE A VACCINE B,VAXAB,VACCINE A VACCINE B,VAXAB,VACCINE B,VACCINE B,VACCINE A,VACCINE A,VACCINE B,VACCINE B,2021-10-07,2021-10-07T12:48:00Z,2021-12-16,2021-12-16T12:41:00Z,2021-12-16,2022-06-14,2021-12-19,2021-12-19T18:40:14Z,74,DAY 4,4,VACCINATION 2,2,Redness occurrence indicator deltoid muscle left,OCISR,13,REACTOGENICITY,ADMINISTRATION SITE,,Y,Y,,,,,,,,,,,VACCINATION 2,,1,VACCINE B,2021-12-16T12:41:00,2021-12-16T12:41:00,,2021-10-07,2021-12-16,Y,Y
332,ABC,ABC-1002,1002,1002,70,YEARS,F,BLACK OR AFRICAN AMERICAN,Y,VACCINE A VACCINE B,VAXAB,VACCINE A VACCINE B,VAXAB,VACCINE B,VACCINE B,VACCINE A,VACCINE A,VACCINE B,VACCINE B,2021-10-07,2021-10-07T12:48:00Z,2021-12-16,2021-12-16T12:41:00Z,2021-12-16,2022-06-14,2021-12-20,2021-12-20T18:33:47Z,75,DAY 5,5,VACCINATION 2,2,Redness occurrence indicator deltoid muscle left,OCISR,13,REACTOGENICITY,ADMINISTRATION SITE,,N,Y,,,,,,,,,,,VACCINATION 2,,1,VACCINE B,2021-12-16T12:41:00,2021-12-16T12:41:00,,2021-10-07,2021-12-16,Y,N
333,ABC,ABC-1002,1002,1002,70,YEARS,F,BLACK OR AFRICAN AMERICAN,Y,VACCINE A VACCINE B,VAXAB,VACCINE A VACCINE B,VAXAB,VACCINE B,VACCINE B,VACCINE A,VACCINE A,VACCINE B,VACCINE B,2021-10-07,2021-10-07T12:48:00Z,2021-12-16,2021-12-16T12:41:00Z,2021-12-16,2022-06-14,2021-12-21,2021-12-21T18:20:15Z,76,DAY 6,6,VACCINATION 2,2,Redness occurrence indicator deltoid muscle left,OCISR,13,REACTOGENICITY,ADMINISTRATION SITE,,Y,Y,,,,,,,,,,,VACCINATION 2,,1,VACCINE B,2021-12-16T12:41:00,2021-12-16T12:41:00,,2021-10-07,2021-12-16,Y,Y
334,ABC,ABC-1002,1002,1002,70,YEARS,F,BLACK OR AFRICAN AMERICAN,Y,VACCINE A VACCINE B,VAXAB,VACCINE A VACCINE B,VAXAB,VACCINE B,VACCINE B,VACCINE A,VACCINE A,VACCINE B,VACCINE B,2021-10-07,2021-10-07T12:48:00Z,2021-12-16,2021-12-16T12:41:00Z,2021-12-16,2022-06-14,2021-12-22,2021-12-22T18:23:21Z,77,DAY 7,7,VACCINATION 2,2,Redness occurrence indicator deltoid muscle left,OCISR,13,REACTOGENICITY,ADMINISTRATION SITE,,N,Y,,,,,,,,,,,VACCINATION 2,,1,VACCINE B,2021-12-16T12:41:00,2021-12-16T12:41:00,,2021-10-07,2021-12-16,Y,N
335,ABC,ABC-1002,1002,1002,70,YEARS,F,BLACK OR AFRICAN AMERICAN,Y,VACCINE A VACCINE B,VAXAB,VACCINE A VACCINE B,VAXAB,VACCINE B,VACCINE B,VACCINE A,VACCINE A,VACCINE B,VACCINE B,2021-10-07,2021-10-07T12:48:00Z,2021-12-16,2021-12-16T12:41:00Z,2021-12-16,2022-06-14,2021-12-17,2021-12-17T18:22:25Z,72,DAY 2,2,VACCINATION 2,2,Swelling diameter deltoid muscle left,DIASWEL,32,REACTOGENICITY,ADMINISTRATION SITE,2.5,2.5,Y,Y,Y,Diameter,VACCINATION 2-DELTOID MUSCLE-LEFT-SWELLING-DAY 2,VACCINATION 2-DELTOID MUSCLE-LEFT-SWELLING,DIAMETER,SWELLING,,,STUDY SUBJECT,VACCINATION 2,,1,VACCINE B,2021-12-16T12:41:00,2021-12-16T12:41:00,5,2021-10-07,2021-12-16,Y,N
336,ABC,ABC-1002,1002,1002,70,YEARS,F,BLACK OR AFRICAN AMERICAN,Y,VACCINE A VACCINE B,VAXAB,VACCINE A VACCINE B,VAXAB,VACCINE B,VACCINE B,VACCINE A,VACCINE A,VACCINE B,VACCINE B,2021-10-07,2021-10-07T12:48:00Z,2021-12-16,2021-12-16T12:41:00Z,2021-12-16,2022-06-14,2021-12-19,2021-12-19T18:40:14Z,74,DAY 4,4,VACCINATION 2,2,Swelling diameter deltoid muscle left,DIASWEL,32,REACTOGENICITY,ADMINISTRATION SITE,2.5,2.5,Y,,,Diameter,VACCINATION 2-DELTOID MUSCLE-LEFT-SWELLING-DAY 4,VACCINATION 2-DELTOID MUSCLE-LEFT-SWELLING,DIAMETER,SWELLING,,,STUDY SUBJECT,VACCINATION 2,,1,VACCINE B,2021-12-16T12:41:00,2021-12-16T12:41:00,5,2021-10-07,2021-12-16,Y,N
337,ABC,ABC-1002,1002,1002,70,YEARS,F,BLACK OR AFRICAN AMERICAN,Y,VACCINE A VACCINE B,VAXAB,VACCINE A VACCINE B,VAXAB,VACCINE B,VACCINE B,VACCINE A,VACCINE A,VACCINE B,VACCINE B,2021-10-07,2021-10-07T12:48:00Z,2021-12-16,2021-12-16T12:41:00Z,2021-12-16,2022-06-14,2021-12-16,2021-12-16T18:01:47Z,71,DAY 1,1,VACCINATION 2,2,Swelling occurrence indicator deltoid muscle left,OCINS,14,REACTOGENICITY,ADMINISTRATION SITE,,N,Y,,,,,,,,,,,VACCINATION 2,,1,VACCINE B,2021-12-16T12:41:00,2021-12-16T12:41:00,,2021-10-07,2021-12-16,Y,N
338,ABC,ABC-1002,1002,1002,70,YEARS,F,BLACK OR AFRICAN AMERICAN,Y,VACCINE A VACCINE B,VAXAB,VACCINE A VACCINE B,VAXAB,VACCINE B,VACCINE B,VACCINE A,VACCINE A,VACCINE B,VACCINE B,2021-10-07,2021-10-07T12:48:00Z,2021-12-16,2021-12-16T12:41:00Z,2021-12-16,2022-06-14,2021-12-17,2021-12-17T18:22:25Z,72,DAY 2,2,VACCINATION 2,2,Swelling occurrence indicator deltoid muscle left,OCINS,14,REACTOGENICITY,ADMINISTRATION SITE,,Y,Y,,,,,,,,,,,VACCINATION 2,,1,VACCINE B,2021-12-16T12:41:00,2021-12-16T12:41:00,,2021-10-07,2021-12-16,Y,Y
339,ABC,ABC-1002,1002,1002,70,YEARS,F,BLACK OR AFRICAN AMERICAN,Y,VACCINE A VACCINE B,VAXAB,VACCINE A VACCINE B,VAXAB,VACCINE B,VACCINE B,VACCINE A,VACCINE A,VACCINE B,VACCINE B,2021-10-07,2021-10-07T12:48:00Z,2021-12-16,2021-12-16T12:41:00Z,2021-12-16,2022-06-14,2021-12-18,2021-12-18T18:34:53Z,73,DAY 3,3,VACCINATION 2,2,Swelling occurrence indicator deltoid muscle left,OCINS,14,REACTOGENICITY,ADMINISTRATION SITE,,N,Y,,,,,,,,,,,VACCINATION 2,,1,VACCINE B,2021-12-16T12:41:00,2021-12-16T12:41:00,,2021-10-07,2021-12-16,Y,N
340,ABC,ABC-1002,1002,1002,70,YEARS,F,BLACK OR AFRICAN AMERICAN,Y,VACCINE A VACCINE B,VAXAB,VACCINE A VACCINE B,VAXAB,VACCINE B,VACCINE B,VACCINE A,VACCINE A,VACCINE B,VACCINE B,2021-10-07,2021-10-07T12:48:00Z,2021-12-16,2021-12-16T12:41:00Z,2021-12-16,2022-06-14,2021-12-19,2021-12-19T18:40:14Z,74,DAY 4,4,VACCINATION 2,2,Swelling occurrence indicator deltoid muscle left,OCINS,14,REACTOGENICITY,ADMINISTRATION SITE,,Y,Y,,,,,,,,,,,VACCINATION 2,,1,VACCINE B,2021-12-16T12:41:00,2021-12-16T12:41:00,,2021-10-07,2021-12-16,Y,Y
341,ABC,ABC-1002,1002,1002,70,YEARS,F,BLACK OR AFRICAN AMERICAN,Y,VACCINE A VACCINE B,VAXAB,VACCINE A VACCINE B,VAXAB,VACCINE B,VACCINE B,VACCINE A,VACCINE A,VACCINE B,VACCINE B,2021-10-07,2021-10-07T12:48:00Z,2021-12-16,2021-12-16T12:41:00Z,2021-12-16,2022-06-14,2021-12-20,2021-12-20T18:33:47Z,75,DAY 5,5,VACCINATION 2,2,Swelling occurrence indicator deltoid muscle left,OCINS,14,REACTOGENICITY,ADMINISTRATION SITE,,N,Y,,,,,,,,,,,VACCINATION 2,,1,VACCINE B,2021-12-16T12:41:00,2021-12-16T12:41:00,,2021-10-07,2021-12-16,Y,N
