rownames,STUDYID,USUBJID,SUBJID,SITEID,COUNTRY,DOMAIN,RFSTDTC,RFENDTC,RFXSTDTC,RFXENDTC,RFPENDTC,DTHDTC,DTHFL,REGION1,BRTHDTC,DMDTC,DMDY,AGE,AGEU,AGEGR1,SEX,RACE,RACEGR1,ETHNIC,SAFFL,PPROTFL,ARM,ARMCD,ACTARM,ACTARMCD,TRTP,TRTA,TRT01P,TRT01A,TRT02P,TRT02A,TRTSDT,TRTSDTM,TRTEDT,TRTEDTM,AP01SDT,AP01EDT,AP02SDT,AP02EDT,APERSDT,APEREDT,RFICDTC,ADT,ADY,AVISIT,AVISITN,ATPT,ATPTN,ATPTREF,APERIOD,PARAM,PARAMCD,PARAMN,PARCAT1,AVAL,AVALU,BASE,BASECAT1,BASETYPE,CHG,R2BASE,CRIT1,CRIT1FL,CRIT1FN,DTYPE,ABLFL,ISSEQ,ISTESTCD,ISTEST,ISCAT,ISORRES,ISORRESU,ISSTRESC,ISSTRESN,ISSTRESU,ISSTAT,ISREASND,ISNAM,ISSPEC,ISMETHOD,ISBLFL,ISLLOQ,VISITNUM,EPOCH,ISDTC,ISDY,ISULOQ,LOD,DERIVED,CUTOFF02,CUTOFF03,SERCAT1,SERCAT1N,PPSRFL,INVID,INVNAM,VAX01DT,VAX02DT
1,ABC,ABC-1001,1001,1001,USA,IS,2021-11-03,2022-04-27,2021-11-03T10:50:00,2021-12-30T09:10:00,2022-04-27,,,NA,1947-09-21,,,74,YEARS,>64,F,WHITE,White,NOT HISPANIC OR LATINO,Y,Y,VACCINE A VACCINE B,VAXAB,VACCINE A VACCINE B,VAXAB,VACCINE A,VACCINE A,VACCINE A,VACCINE A,VACCINE B,VACCINE B,2021-11-03,2021-11-03T10:50:00Z,2021-12-30,2021-12-30T09:10:00Z,2021-11-03,2021-12-29,2021-12-30,2022-04-27,2021-11-03,2021-12-29,2021-10-28,2021-12-15,43,Visit 3,30,Visit 3 (Day 61),3,SECOND TREATMENT,1,4FOLD (J0033VN Antibody),J0033VNF,21,IMMUNOLOGY,2,titer,,,VISIT 1,,,Titer >= ISLLOQ,Y,1,,,,J0033VN,J0033VN Antibody,IMMUNOLOGY,2,1/DIL,2,2,titer,,,LABNAME,SERUM,METHODNAME,,2,30,SECOND TREATMENT,2021-12,61,100,4,4FOLD,4,8,,,Y,1328,"Potter, Harry",2021-11-03,2021-12-30
2,ABC,ABC-1001,1001,1001,USA,IS,2021-11-03,2022-04-27,2021-11-03T10:50:00,2021-12-30T09:10:00,2022-04-27,,,NA,1947-09-21,,,74,YEARS,>64,F,WHITE,White,NOT HISPANIC OR LATINO,Y,Y,VACCINE A VACCINE B,VAXAB,VACCINE A VACCINE B,VAXAB,VACCINE A,VACCINE A,VACCINE A,VACCINE A,VACCINE B,VACCINE B,2021-11-03,2021-11-03T10:50:00Z,2021-12-30,2021-12-30T09:10:00Z,2021-11-03,2021-12-29,2021-12-30,2022-04-27,2021-11-03,2021-12-29,2021-10-28,2021-12-15,43,Visit 3,30,Visit 3 (Day 61),3,SECOND TREATMENT,1,4FOLD (I0019NT Antibody),I0019NTF,22,IMMUNOLOGY,200,titer,4,Titer value < 1:10,VISIT 1,196,50,Titer >= ISLLOQ,Y,1,,,,I0019NT,I0019NT Antibody,IMMUNOLOGY,>200,1/DIL,>200,,titer,,,LABNAME,SERUM,METHODNAME,,4,30,SECOND TREATMENT,2021-12,61,200,5,4FOLD,4,8,,,Y,1328,"Potter, Harry",2021-11-03,2021-12-30
3,ABC,ABC-1001,1001,1001,USA,IS,2021-11-03,2022-04-27,2021-11-03T10:50:00,2021-12-30T09:10:00,2022-04-27,,,NA,1947-09-21,,,74,YEARS,>64,F,WHITE,White,NOT HISPANIC OR LATINO,Y,Y,VACCINE A VACCINE B,VAXAB,VACCINE A VACCINE B,VAXAB,VACCINE A,VACCINE A,VACCINE A,VACCINE A,VACCINE B,VACCINE B,2021-11-03,2021-11-03T10:50:00Z,2021-12-30,2021-12-30T09:10:00Z,2021-11-03,2021-12-29,2021-12-30,2022-04-27,2021-11-03,2021-12-29,2021-10-28,2021-12-15,43,Visit 3,30,Visit 3 (Day 61),3,SECOND TREATMENT,1,4FOLD (M0019LN Antibody),M0019LNF,23,IMMUNOLOGY,8,titer,150,Titer value >= 1:10,VISIT 1,-142,0.05333333333333334,Titer >= ISLLOQ,Y,1,,,,M0019LN,M0019LN Antibody,IMMUNOLOGY,<2,1/DIL,<2,,titer,,,LABNAME,SERUM,METHODNAME,,8,30,SECOND TREATMENT,2021-12,61,150,4,4FOLD,4,8,,,Y,1328,"Potter, Harry",2021-11-03,2021-12-30
4,ABC,ABC-1001,1001,1001,USA,IS,2021-11-03,2022-04-27,2021-11-03T10:50:00,2021-12-30T09:10:00,2022-04-27,,,NA,1947-09-21,,,74,YEARS,>64,F,WHITE,White,NOT HISPANIC OR LATINO,Y,Y,VACCINE A VACCINE B,VAXAB,VACCINE A VACCINE B,VAXAB,VACCINE A,VACCINE A,VACCINE A,VACCINE A,VACCINE B,VACCINE B,2021-11-03,2021-11-03T10:50:00Z,2021-12-30,2021-12-30T09:10:00Z,2021-11-03,2021-12-29,2021-12-30,2022-04-27,2021-11-03,2021-12-29,2021-10-28,2021-12-15,43,Visit 3,30,Visit 3 (Day 61),3,SECOND TREATMENT,1,4FOLD (R0003MA Antibody),R0003MAF,24,IMMUNOLOGY,98.2,titer,120,Titer value >= 1:10,VISIT 1,-21.799999999999997,0.8183333333333334,Titer >= ISLLOQ,Y,1,,,,R0003MA,R0003MA Antibody,IMMUNOLOGY,98.2,1/DIL,98.2,98.2,titer,,,LABNAME,SERUM,METHODNAME,,4,30,SECOND TREATMENT,2021-12,61,120,8,4FOLD,4,8,,,Y,1328,"Potter, Harry",2021-11-03,2021-12-30
5,ABC,ABC-1001,1001,1001,USA,IS,2021-11-03,2022-04-27,2021-11-03T10:50:00,2021-12-30T09:10:00,2022-04-27,,,NA,1947-09-21,,,74,YEARS,>64,F,WHITE,White,NOT HISPANIC OR LATINO,Y,Y,VACCINE A VACCINE B,VAXAB,VACCINE A VACCINE B,VAXAB,VACCINE A,VACCINE A,VACCINE A,VACCINE A,VACCINE B,VACCINE B,2021-11-03,2021-11-03T10:50:00Z,2021-12-30,2021-12-30T09:10:00Z,2021-11-03,2021-12-29,2021-12-30,2022-04-27,2021-11-03,2021-12-29,2021-10-28,2021-11-15,13,Visit 1,10,Visit 1 (Day 1),1,FIRST TREATMENT,1,4FOLD (I0019NT Antibody),I0019NTF,22,IMMUNOLOGY,4,titer,4,Titer value < 1:10,VISIT 1,,,Titer >= ISLLOQ,Y,1,,Y,,I0019NT,I0019NT Antibody,IMMUNOLOGY,3,1/DIL,3,3,titer,,,LABNAME,SERUM,METHODNAME,Y,4,10,FIRST TREATMENT,2021-11,1,200,5,4FOLD,4,8,S+,2,Y,1328,"Potter, Harry",2021-11-03,2021-12-30
6,ABC,ABC-1001,1001,1001,USA,IS,2021-11-03,2022-04-27,2021-11-03T10:50:00,2021-12-30T09:10:00,2022-04-27,,,NA,1947-09-21,,,74,YEARS,>64,F,WHITE,White,NOT HISPANIC OR LATINO,Y,Y,VACCINE A VACCINE B,VAXAB,VACCINE A VACCINE B,VAXAB,VACCINE A,VACCINE A,VACCINE A,VACCINE A,VACCINE B,VACCINE B,2021-11-03,2021-11-03T10:50:00Z,2021-12-30,2021-12-30T09:10:00Z,2021-11-03,2021-12-29,2021-12-30,2022-04-27,2021-11-03,2021-12-29,2021-10-28,2021-11-15,13,Visit 1,10,Visit 1 (Day 1),1,FIRST TREATMENT,1,4FOLD (M0019LN Antibody),M0019LNF,23,IMMUNOLOGY,150,titer,150,Titer value >= 1:10,VISIT 1,,,Titer >= ISLLOQ,Y,1,,Y,,M0019LN,M0019LN Antibody,IMMUNOLOGY,>150,1/DIL,>150,,titer,,,LABNAME,SERUM,METHODNAME,Y,8,10,FIRST TREATMENT,2021-11,1,150,4,4FOLD,4,8,S+,2,Y,1328,"Potter, Harry",2021-11-03,2021-12-30
7,ABC,ABC-1001,1001,1001,USA,IS,2021-11-03,2022-04-27,2021-11-03T10:50:00,2021-12-30T09:10:00,2022-04-27,,,NA,1947-09-21,,,74,YEARS,>64,F,WHITE,White,NOT HISPANIC OR LATINO,Y,Y,VACCINE A VACCINE B,VAXAB,VACCINE A VACCINE B,VAXAB,VACCINE A,VACCINE A,VACCINE A,VACCINE A,VACCINE B,VACCINE B,2021-11-03,2021-11-03T10:50:00Z,2021-12-30,2021-12-30T09:10:00Z,2021-11-03,2021-12-29,2021-12-30,2022-04-27,2021-11-03,2021-12-29,2021-10-28,2021-11-15,13,Visit 1,10,Visit 1 (Day 1),1,FIRST TREATMENT,1,4FOLD (R0003MA Antibody),R0003MAF,24,IMMUNOLOGY,120,titer,120,Titer value >= 1:10,VISIT 1,,,Titer >= ISLLOQ,Y,1,,Y,,R0003MA,R0003MA Antibody,IMMUNOLOGY,140.5,1/DIL,140.5,140.5,titer,,,LABNAME,SERUM,METHODNAME,Y,4,10,FIRST TREATMENT,2021-11,1,120,8,4FOLD,4,8,S+,2,Y,1328,"Potter, Harry",2021-11-03,2021-12-30
8,ABC,ABC-1001,1001,1001,USA,IS,2021-11-03,2022-04-27,2021-11-03T10:50:00,2021-12-30T09:10:00,2022-04-27,,,NA,1947-09-21,,,74,YEARS,>64,F,WHITE,White,NOT HISPANIC OR LATINO,Y,Y,VACCINE A VACCINE B,VAXAB,VACCINE A VACCINE B,VAXAB,,,VACCINE A,VACCINE A,VACCINE B,VACCINE B,2021-11-03,2021-11-03T10:50:00Z,2021-12-30,2021-12-30T09:10:00Z,2021-11-03,2021-12-29,2021-12-30,2022-04-27,,,2021-10-28,,,Visit 1,10,Visit 1 (Day 1),1,FIRST TREATMENT,,4FOLD (J0033VN Antibody),J0033VNF,21,IMMUNOLOGY,,,,,VISIT 1,,,,,,,Y,,J0033VN,J0033VN Antibody,IMMUNOLOGY,,,,,,NOT DONE,INVALID RESULT,LABNAME,SERUM,METHODNAME,Y,2,10,FIRST TREATMENT,,,100,4,4FOLD,4,8,UNKNOWN,3,Y,1328,"Potter, Harry",2021-11-03,2021-12-30
9,ABC,ABC-1001,1001,1001,USA,IS,2021-11-03,2022-04-27,2021-11-03T10:50:00,2021-12-30T09:10:00,2022-04-27,,,NA,1947-09-21,,,74,YEARS,>64,F,WHITE,White,NOT HISPANIC OR LATINO,Y,Y,VACCINE A VACCINE B,VAXAB,VACCINE A VACCINE B,VAXAB,VACCINE A,VACCINE A,VACCINE A,VACCINE A,VACCINE B,VACCINE B,2021-11-03,2021-11-03T10:50:00Z,2021-12-30,2021-12-30T09:10:00Z,2021-11-03,2021-12-29,2021-12-30,2022-04-27,2021-11-03,2021-12-29,2021-10-28,2021-12-15,43,Visit 3,30,Visit 3 (Day 61),3,SECOND TREATMENT,1,LOG10 (J0033VN Antibody),J0033VNL,11,IMMUNOLOGY,0.3,titer,,,VISIT 1,,,Titer >= ISLLOQ,N,0,,,,J0033VN,J0033VN Antibody,IMMUNOLOGY,2,1/DIL,2,2,titer,,,LABNAME,SERUM,METHODNAME,,2,30,SECOND TREATMENT,2021-12,61,100,4,LOG10,4,8,,,Y,1328,"Potter, Harry",2021-11-03,2021-12-30
10,ABC,ABC-1001,1001,1001,USA,IS,2021-11-03,2022-04-27,2021-11-03T10:50:00,2021-12-30T09:10:00,2022-04-27,,,NA,1947-09-21,,,74,YEARS,>64,F,WHITE,White,NOT HISPANIC OR LATINO,Y,Y,VACCINE A VACCINE B,VAXAB,VACCINE A VACCINE B,VAXAB,VACCINE A,VACCINE A,VACCINE A,VACCINE A,VACCINE B,VACCINE B,2021-11-03,2021-11-03T10:50:00Z,2021-12-30,2021-12-30T09:10:00Z,2021-11-03,2021-12-29,2021-12-30,2022-04-27,2021-11-03,2021-12-29,2021-10-28,2021-12-15,43,Visit 3,30,Visit 3 (Day 61),3,SECOND TREATMENT,1,LOG10 (I0019NT Antibody),I0019NTL,12,IMMUNOLOGY,2.3,titer,0.3,Titer value < 1:10,VISIT 1,1.9999999999999998,7.666666666666666,Titer >= ISLLOQ,N,0,ULOQ,,,I0019NT,I0019NT Antibody,IMMUNOLOGY,>200,1/DIL,>200,,titer,,,LABNAME,SERUM,METHODNAME,,4,30,SECOND TREATMENT,2021-12,61,200,5,LOG10,4,8,,,Y,1328,"Potter, Harry",2021-11-03,2021-12-30
11,ABC,ABC-1001,1001,1001,USA,IS,2021-11-03,2022-04-27,2021-11-03T10:50:00,2021-12-30T09:10:00,2022-04-27,,,NA,1947-09-21,,,74,YEARS,>64,F,WHITE,White,NOT HISPANIC OR LATINO,Y,Y,VACCINE A VACCINE B,VAXAB,VACCINE A VACCINE B,VAXAB,VACCINE A,VACCINE A,VACCINE A,VACCINE A,VACCINE B,VACCINE B,2021-11-03,2021-11-03T10:50:00Z,2021-12-30,2021-12-30T09:10:00Z,2021-11-03,2021-12-29,2021-12-30,2022-04-27,2021-11-03,2021-12-29,2021-10-28,2021-12-15,43,Visit 3,30,Visit 3 (Day 61),3,SECOND TREATMENT,1,LOG10 (M0019LN Antibody),M0019LNL,13,IMMUNOLOGY,0.6,titer,2.18,Titer value < 1:10,VISIT 1,-1.58,0.2752293577981651,Titer >= ISLLOQ,N,0,HALFLLOQ,,,M0019LN,M0019LN Antibody,IMMUNOLOGY,<2,1/DIL,<2,,titer,,,LABNAME,SERUM,METHODNAME,,8,30,SECOND TREATMENT,2021-12,61,150,4,LOG10,4,8,,,Y,1328,"Potter, Harry",2021-11-03,2021-12-30
12,ABC,ABC-1001,1001,1001,USA,IS,2021-11-03,2022-04-27,2021-11-03T10:50:00,2021-12-30T09:10:00,2022-04-27,,,NA,1947-09-21,,,74,YEARS,>64,F,WHITE,White,NOT HISPANIC OR LATINO,Y,Y,VACCINE A VACCINE B,VAXAB,VACCINE A VACCINE B,VAXAB,VACCINE A,VACCINE A,VACCINE A,VACCINE A,VACCINE B,VACCINE B,2021-11-03,2021-11-03T10:50:00Z,2021-12-30,2021-12-30T09:10:00Z,2021-11-03,2021-12-29,2021-12-30,2022-04-27,2021-11-03,2021-12-29,2021-10-28,2021-12-15,43,Visit 3,30,Visit 3 (Day 61),3,SECOND TREATMENT,1,LOG10 (R0003MA Antibody),R0003MAL,14,IMMUNOLOGY,1.99,titer,2.08,Titer value < 1:10,VISIT 1,-0.09000000000000008,0.9567307692307692,Titer >= ISLLOQ,N,0,,,,R0003MA,R0003MA Antibody,IMMUNOLOGY,98.2,1/DIL,98.2,98.2,titer,,,LABNAME,SERUM,METHODNAME,,4,30,SECOND TREATMENT,2021-12,61,120,8,LOG10,4,8,,,Y,1328,"Potter, Harry",2021-11-03,2021-12-30
13,ABC,ABC-1001,1001,1001,USA,IS,2021-11-03,2022-04-27,2021-11-03T10:50:00,2021-12-30T09:10:00,2022-04-27,,,NA,1947-09-21,,,74,YEARS,>64,F,WHITE,White,NOT HISPANIC OR LATINO,Y,Y,VACCINE A VACCINE B,VAXAB,VACCINE A VACCINE B,VAXAB,VACCINE A,VACCINE A,VACCINE A,VACCINE A,VACCINE B,VACCINE B,2021-11-03,2021-11-03T10:50:00Z,2021-12-30,2021-12-30T09:10:00Z,2021-11-03,2021-12-29,2021-12-30,2022-04-27,2021-11-03,2021-12-29,2021-10-28,2021-11-15,13,Visit 1,10,Visit 1 (Day 1),1,FIRST TREATMENT,1,LOG10 (I0019NT Antibody),I0019NTL,12,IMMUNOLOGY,0.3,titer,0.3,Titer value < 1:10,VISIT 1,,,Titer >= ISLLOQ,N,0,HALFLLOQ,Y,,I0019NT,I0019NT Antibody,IMMUNOLOGY,3,1/DIL,3,3,titer,,,LABNAME,SERUM,METHODNAME,Y,4,10,FIRST TREATMENT,2021-11,1,200,5,LOG10,4,8,S-,1,Y,1328,"Potter, Harry",2021-11-03,2021-12-30
14,ABC,ABC-1001,1001,1001,USA,IS,2021-11-03,2022-04-27,2021-11-03T10:50:00,2021-12-30T09:10:00,2022-04-27,,,NA,1947-09-21,,,74,YEARS,>64,F,WHITE,White,NOT HISPANIC OR LATINO,Y,Y,VACCINE A VACCINE B,VAXAB,VACCINE A VACCINE B,VAXAB,VACCINE A,VACCINE A,VACCINE A,VACCINE A,VACCINE B,VACCINE B,2021-11-03,2021-11-03T10:50:00Z,2021-12-30,2021-12-30T09:10:00Z,2021-11-03,2021-12-29,2021-12-30,2022-04-27,2021-11-03,2021-12-29,2021-10-28,2021-11-15,13,Visit 1,10,Visit 1 (Day 1),1,FIRST TREATMENT,1,LOG10 (M0019LN Antibody),M0019LNL,13,IMMUNOLOGY,2.18,titer,2.18,Titer value < 1:10,VISIT 1,,,Titer >= ISLLOQ,N,0,ULOQ,Y,,M0019LN,M0019LN Antibody,IMMUNOLOGY,>150,1/DIL,>150,,titer,,,LABNAME,SERUM,METHODNAME,Y,8,10,FIRST TREATMENT,2021-11,1,150,4,LOG10,4,8,S-,1,Y,1328,"Potter, Harry",2021-11-03,2021-12-30
15,ABC,ABC-1001,1001,1001,USA,IS,2021-11-03,2022-04-27,2021-11-03T10:50:00,2021-12-30T09:10:00,2022-04-27,,,NA,1947-09-21,,,74,YEARS,>64,F,WHITE,White,NOT HISPANIC OR LATINO,Y,Y,VACCINE A VACCINE B,VAXAB,VACCINE A VACCINE B,VAXAB,VACCINE A,VACCINE A,VACCINE A,VACCINE A,VACCINE B,VACCINE B,2021-11-03,2021-11-03T10:50:00Z,2021-12-30,2021-12-30T09:10:00Z,2021-11-03,2021-12-29,2021-12-30,2022-04-27,2021-11-03,2021-12-29,2021-10-28,2021-11-15,13,Visit 1,10,Visit 1 (Day 1),1,FIRST TREATMENT,1,LOG10 (R0003MA Antibody),R0003MAL,14,IMMUNOLOGY,2.08,titer,2.08,Titer value < 1:10,VISIT 1,,,Titer >= ISLLOQ,N,0,ULOQ,Y,,R0003MA,R0003MA Antibody,IMMUNOLOGY,140.5,1/DIL,140.5,140.5,titer,,,LABNAME,SERUM,METHODNAME,Y,4,10,FIRST TREATMENT,2021-11,1,120,8,LOG10,4,8,S-,1,Y,1328,"Potter, Harry",2021-11-03,2021-12-30
16,ABC,ABC-1001,1001,1001,USA,IS,2021-11-03,2022-04-27,2021-11-03T10:50:00,2021-12-30T09:10:00,2022-04-27,,,NA,1947-09-21,,,74,YEARS,>64,F,WHITE,White,NOT HISPANIC OR LATINO,Y,Y,VACCINE A VACCINE B,VAXAB,VACCINE A VACCINE B,VAXAB,,,VACCINE A,VACCINE A,VACCINE B,VACCINE B,2021-11-03,2021-11-03T10:50:00Z,2021-12-30,2021-12-30T09:10:00Z,2021-11-03,2021-12-29,2021-12-30,2022-04-27,,,2021-10-28,,,Visit 1,10,Visit 1 (Day 1),1,FIRST TREATMENT,,LOG10 (J0033VN Antibody),J0033VNL,11,IMMUNOLOGY,,,,,VISIT 1,,,,,,,Y,,J0033VN,J0033VN Antibody,IMMUNOLOGY,,,,,,NOT DONE,INVALID RESULT,LABNAME,SERUM,METHODNAME,Y,2,10,FIRST TREATMENT,,,100,4,LOG10,4,8,UNKNOWN,3,Y,1328,"Potter, Harry",2021-11-03,2021-12-30
17,ABC,ABC-1001,1001,1001,USA,IS,2021-11-03,2022-04-27,2021-11-03T10:50:00,2021-12-30T09:10:00,2022-04-27,,,NA,1947-09-21,,,74,YEARS,>64,F,WHITE,White,NOT HISPANIC OR LATINO,Y,Y,VACCINE A VACCINE B,VAXAB,VACCINE A VACCINE B,VAXAB,VACCINE A,VACCINE A,VACCINE A,VACCINE A,VACCINE B,VACCINE B,2021-11-03,2021-11-03T10:50:00Z,2021-12-30,2021-12-30T09:10:00Z,2021-11-03,2021-12-29,2021-12-30,2022-04-27,2021-11-03,2021-12-29,2021-10-28,2021-12-15,43,Visit 3,30,Visit 3 (Day 61),3,SECOND TREATMENT,1,LOG10 4FOLD (J0033VN Antibody),J0033VLF,31,IMMUNOLOGY,0.3,titer,,,VISIT 1,,,Titer >= ISLLOQ,N,0,,,,J0033VN,J0033VN Antibody,IMMUNOLOGY,2,1/DIL,2,2,titer,,,LABNAME,SERUM,METHODNAME,,2,30,SECOND TREATMENT,2021-12,61,100,4,LOG10 4FOLD,4,8,,,Y,1328,"Potter, Harry",2021-11-03,2021-12-30
18,ABC,ABC-1001,1001,1001,USA,IS,2021-11-03,2022-04-27,2021-11-03T10:50:00,2021-12-30T09:10:00,2022-04-27,,,NA,1947-09-21,,,74,YEARS,>64,F,WHITE,White,NOT HISPANIC OR LATINO,Y,Y,VACCINE A VACCINE B,VAXAB,VACCINE A VACCINE B,VAXAB,VACCINE A,VACCINE A,VACCINE A,VACCINE A,VACCINE B,VACCINE B,2021-11-03,2021-11-03T10:50:00Z,2021-12-30,2021-12-30T09:10:00Z,2021-11-03,2021-12-29,2021-12-30,2022-04-27,2021-11-03,2021-12-29,2021-10-28,2021-12-15,43,Visit 3,30,Visit 3 (Day 61),3,SECOND TREATMENT,1,LOG10 4FOLD (I0019NT Antibody),I0019NLF,32,IMMUNOLOGY,2.3,titer,0.6,Titer value < 1:10,VISIT 1,1.6999999999999997,3.833333333333333,Titer >= ISLLOQ,N,0,,,,I0019NT,I0019NT Antibody,IMMUNOLOGY,>200,1/DIL,>200,,titer,,,LABNAME,SERUM,METHODNAME,,4,30,SECOND TREATMENT,2021-12,61,200,5,LOG10 4FOLD,4,8,,,Y,1328,"Potter, Harry",2021-11-03,2021-12-30
19,ABC,ABC-1001,1001,1001,USA,IS,2021-11-03,2022-04-27,2021-11-03T10:50:00,2021-12-30T09:10:00,2022-04-27,,,NA,1947-09-21,,,74,YEARS,>64,F,WHITE,White,NOT HISPANIC OR LATINO,Y,Y,VACCINE A VACCINE B,VAXAB,VACCINE A VACCINE B,VAXAB,VACCINE A,VACCINE A,VACCINE A,VACCINE A,VACCINE B,VACCINE B,2021-11-03,2021-11-03T10:50:00Z,2021-12-30,2021-12-30T09:10:00Z,2021-11-03,2021-12-29,2021-12-30,2022-04-27,2021-11-03,2021-12-29,2021-10-28,2021-12-15,43,Visit 3,30,Visit 3 (Day 61),3,SECOND TREATMENT,1,LOG10 4FOLD (M0019LN Antibody),M0019LLF,33,IMMUNOLOGY,0.9,titer,2.18,Titer value < 1:10,VISIT 1,-1.2800000000000002,0.4128440366972477,Titer >= ISLLOQ,N,0,,,,M0019LN,M0019LN Antibody,IMMUNOLOGY,<2,1/DIL,<2,,titer,,,LABNAME,SERUM,METHODNAME,,8,30,SECOND TREATMENT,2021-12,61,150,4,LOG10 4FOLD,4,8,,,Y,1328,"Potter, Harry",2021-11-03,2021-12-30
20,ABC,ABC-1001,1001,1001,USA,IS,2021-11-03,2022-04-27,2021-11-03T10:50:00,2021-12-30T09:10:00,2022-04-27,,,NA,1947-09-21,,,74,YEARS,>64,F,WHITE,White,NOT HISPANIC OR LATINO,Y,Y,VACCINE A VACCINE B,VAXAB,VACCINE A VACCINE B,VAXAB,VACCINE A,VACCINE A,VACCINE A,VACCINE A,VACCINE B,VACCINE B,2021-11-03,2021-11-03T10:50:00Z,2021-12-30,2021-12-30T09:10:00Z,2021-11-03,2021-12-29,2021-12-30,2022-04-27,2021-11-03,2021-12-29,2021-10-28,2021-12-15,43,Visit 3,30,Visit 3 (Day 61),3,SECOND TREATMENT,1,LOG10 4FOLD (R0003MA Antibody),R0003MLF,34,IMMUNOLOGY,1.99,titer,2.08,Titer value < 1:10,VISIT 1,-0.09000000000000008,0.9567307692307692,Titer >= ISLLOQ,N,0,,,,R0003MA,R0003MA Antibody,IMMUNOLOGY,98.2,1/DIL,98.2,98.2,titer,,,LABNAME,SERUM,METHODNAME,,4,30,SECOND TREATMENT,2021-12,61,120,8,LOG10 4FOLD,4,8,,,Y,1328,"Potter, Harry",2021-11-03,2021-12-30
21,ABC,ABC-1001,1001,1001,USA,IS,2021-11-03,2022-04-27,2021-11-03T10:50:00,2021-12-30T09:10:00,2022-04-27,,,NA,1947-09-21,,,74,YEARS,>64,F,WHITE,White,NOT HISPANIC OR LATINO,Y,Y,VACCINE A VACCINE B,VAXAB,VACCINE A VACCINE B,VAXAB,VACCINE A,VACCINE A,VACCINE A,VACCINE A,VACCINE B,VACCINE B,2021-11-03,2021-11-03T10:50:00Z,2021-12-30,2021-12-30T09:10:00Z,2021-11-03,2021-12-29,2021-12-30,2022-04-27,2021-11-03,2021-12-29,2021-10-28,2021-11-15,13,Visit 1,10,Visit 1 (Day 1),1,FIRST TREATMENT,1,LOG10 4FOLD (I0019NT Antibody),I0019NLF,32,IMMUNOLOGY,0.6,titer,0.6,Titer value < 1:10,VISIT 1,,,Titer >= ISLLOQ,N,0,,Y,,I0019NT,I0019NT Antibody,IMMUNOLOGY,3,1/DIL,3,3,titer,,,LABNAME,SERUM,METHODNAME,Y,4,10,FIRST TREATMENT,2021-11,1,200,5,LOG10 4FOLD,4,8,S-,1,Y,1328,"Potter, Harry",2021-11-03,2021-12-30
22,ABC,ABC-1001,1001,1001,USA,IS,2021-11-03,2022-04-27,2021-11-03T10:50:00,2021-12-30T09:10:00,2022-04-27,,,NA,1947-09-21,,,74,YEARS,>64,F,WHITE,White,NOT HISPANIC OR LATINO,Y,Y,VACCINE A VACCINE B,VAXAB,VACCINE A VACCINE B,VAXAB,VACCINE A,VACCINE A,VACCINE A,VACCINE A,VACCINE B,VACCINE B,2021-11-03,2021-11-03T10:50:00Z,2021-12-30,2021-12-30T09:10:00Z,2021-11-03,2021-12-29,2021-12-30,2022-04-27,2021-11-03,2021-12-29,2021-10-28,2021-11-15,13,Visit 1,10,Visit 1 (Day 1),1,FIRST TREATMENT,1,LOG10 4FOLD (M0019LN Antibody),M0019LLF,33,IMMUNOLOGY,2.18,titer,2.18,Titer value < 1:10,VISIT 1,,,Titer >= ISLLOQ,N,0,,Y,,M0019LN,M0019LN Antibody,IMMUNOLOGY,>150,1/DIL,>150,,titer,,,LABNAME,SERUM,METHODNAME,Y,8,10,FIRST TREATMENT,2021-11,1,150,4,LOG10 4FOLD,4,8,S-,1,Y,1328,"Potter, Harry",2021-11-03,2021-12-30
23,ABC,ABC-1001,1001,1001,USA,IS,2021-11-03,2022-04-27,2021-11-03T10:50:00,2021-12-30T09:10:00,2022-04-27,,,NA,1947-09-21,,,74,YEARS,>64,F,WHITE,White,NOT HISPANIC OR LATINO,Y,Y,VACCINE A VACCINE B,VAXAB,VACCINE A VACCINE B,VAXAB,VACCINE A,VACCINE A,VACCINE A,VACCINE A,VACCINE B,VACCINE B,2021-11-03,2021-11-03T10:50:00Z,2021-12-30,2021-12-30T09:10:00Z,2021-11-03,2021-12-29,2021-12-30,2022-04-27,2021-11-03,2021-12-29,2021-10-28,2021-11-15,13,Visit 1,10,Visit 1 (Day 1),1,FIRST TREATMENT,1,LOG10 4FOLD (R0003MA Antibody),R0003MLF,34,IMMUNOLOGY,2.08,titer,2.08,Titer value < 1:10,VISIT 1,,,Titer >= ISLLOQ,N,0,,Y,,R0003MA,R0003MA Antibody,IMMUNOLOGY,140.5,1/DIL,140.5,140.5,titer,,,LABNAME,SERUM,METHODNAME,Y,4,10,FIRST TREATMENT,2021-11,1,120,8,LOG10 4FOLD,4,8,S-,1,Y,1328,"Potter, Harry",2021-11-03,2021-12-30
24,ABC,ABC-1001,1001,1001,USA,IS,2021-11-03,2022-04-27,2021-11-03T10:50:00,2021-12-30T09:10:00,2022-04-27,,,NA,1947-09-21,,,74,YEARS,>64,F,WHITE,White,NOT HISPANIC OR LATINO,Y,Y,VACCINE A VACCINE B,VAXAB,VACCINE A VACCINE B,VAXAB,,,VACCINE A,VACCINE A,VACCINE B,VACCINE B,2021-11-03,2021-11-03T10:50:00Z,2021-12-30,2021-12-30T09:10:00Z,2021-11-03,2021-12-29,2021-12-30,2022-04-27,,,2021-10-28,,,Visit 1,10,Visit 1 (Day 1),1,FIRST TREATMENT,,LOG10 4FOLD (J0033VN Antibody),J0033VLF,31,IMMUNOLOGY,,,,,VISIT 1,,,,,,,Y,,J0033VN,J0033VN Antibody,IMMUNOLOGY,,,,,,NOT DONE,INVALID RESULT,LABNAME,SERUM,METHODNAME,Y,2,10,FIRST TREATMENT,,,100,4,LOG10 4FOLD,4,8,UNKNOWN,3,Y,1328,"Potter, Harry",2021-11-03,2021-12-30
25,ABC,ABC-1001,1001,1001,USA,IS,2021-11-03,2022-04-27,2021-11-03T10:50:00,2021-12-30T09:10:00,2022-04-27,,,NA,1947-09-21,,,74,YEARS,>64,F,WHITE,White,NOT HISPANIC OR LATINO,Y,Y,VACCINE A VACCINE B,VAXAB,VACCINE A VACCINE B,VAXAB,,,VACCINE A,VACCINE A,VACCINE B,VACCINE B,2021-11-03,2021-11-03T10:50:00Z,2021-12-30,2021-12-30T09:10:00Z,2021-11-03,2021-12-29,2021-12-30,2022-04-27,,,2021-10-28,,,Visit 1,10,Visit 1 (Day 1),1,FIRST TREATMENT,,J0033VN Antibody,J0033VN,1,IMMUNOLOGY,,,,,VISIT 1,,,,,,,Y,1,J0033VN,J0033VN Antibody,IMMUNOLOGY,,,,,,NOT DONE,INVALID RESULT,LABNAME,SERUM,METHODNAME,Y,2,10,FIRST TREATMENT,,,100,4,ORIG,4,8,UNKNOWN,3,Y,1328,"Potter, Harry",2021-11-03,2021-12-30
26,ABC,ABC-1001,1001,1001,USA,IS,2021-11-03,2022-04-27,2021-11-03T10:50:00,2021-12-30T09:10:00,2022-04-27,,,NA,1947-09-21,,,74,YEARS,>64,F,WHITE,White,NOT HISPANIC OR LATINO,Y,Y,VACCINE A VACCINE B,VAXAB,VACCINE A VACCINE B,VAXAB,VACCINE A,VACCINE A,VACCINE A,VACCINE A,VACCINE B,VACCINE B,2021-11-03,2021-11-03T10:50:00Z,2021-12-30,2021-12-30T09:10:00Z,2021-11-03,2021-12-29,2021-12-30,2022-04-27,2021-11-03,2021-12-29,2021-10-28,2021-11-15,13,Visit 1,10,Visit 1 (Day 1),1,FIRST TREATMENT,1,I0019NT Antibody,I0019NT,2,IMMUNOLOGY,2,titer,2,Titer value < 1:10,VISIT 1,,,Titer >= ISLLOQ,N,0,HALFLLOQ,Y,2,I0019NT,I0019NT Antibody,IMMUNOLOGY,3,1/DIL,3,3,titer,,,LABNAME,SERUM,METHODNAME,Y,4,10,FIRST TREATMENT,2021-11,1,200,5,ORIG,4,8,S-,1,Y,1328,"Potter, Harry",2021-11-03,2021-12-30
27,ABC,ABC-1001,1001,1001,USA,IS,2021-11-03,2022-04-27,2021-11-03T10:50:00,2021-12-30T09:10:00,2022-04-27,,,NA,1947-09-21,,,74,YEARS,>64,F,WHITE,White,NOT HISPANIC OR LATINO,Y,Y,VACCINE A VACCINE B,VAXAB,VACCINE A VACCINE B,VAXAB,VACCINE A,VACCINE A,VACCINE A,VACCINE A,VACCINE B,VACCINE B,2021-11-03,2021-11-03T10:50:00Z,2021-12-30,2021-12-30T09:10:00Z,2021-11-03,2021-12-29,2021-12-30,2022-04-27,2021-11-03,2021-12-29,2021-10-28,2021-11-15,13,Visit 1,10,Visit 1 (Day 1),1,FIRST TREATMENT,1,M0019LN Antibody,M0019LN,3,IMMUNOLOGY,150,titer,150,Titer value >= 1:10,VISIT 1,,,Titer >= ISLLOQ,Y,1,ULOQ,Y,3,M0019LN,M0019LN Antibody,IMMUNOLOGY,>150,1/DIL,>150,,titer,,,LABNAME,SERUM,METHODNAME,Y,8,10,FIRST TREATMENT,2021-11,1,150,4,ORIG,4,8,S+,2,Y,1328,"Potter, Harry",2021-11-03,2021-12-30
28,ABC,ABC-1001,1001,1001,USA,IS,2021-11-03,2022-04-27,2021-11-03T10:50:00,2021-12-30T09:10:00,2022-04-27,,,NA,1947-09-21,,,74,YEARS,>64,F,WHITE,White,NOT HISPANIC OR LATINO,Y,Y,VACCINE A VACCINE B,VAXAB,VACCINE A VACCINE B,VAXAB,VACCINE A,VACCINE A,VACCINE A,VACCINE A,VACCINE B,VACCINE B,2021-11-03,2021-11-03T10:50:00Z,2021-12-30,2021-12-30T09:10:00Z,2021-11-03,2021-12-29,2021-12-30,2022-04-27,2021-11-03,2021-12-29,2021-10-28,2021-11-15,13,Visit 1,10,Visit 1 (Day 1),1,FIRST TREATMENT,1,R0003MA Antibody,R0003MA,4,IMMUNOLOGY,120,titer,120,Titer value >= 1:10,VISIT 1,,,Titer >= ISLLOQ,Y,1,ULOQ,Y,4,R0003MA,R0003MA Antibody,IMMUNOLOGY,140.5,1/DIL,140.5,140.5,titer,,,LABNAME,SERUM,METHODNAME,Y,4,10,FIRST TREATMENT,2021-11,1,120,8,ORIG,4,8,S+,2,Y,1328,"Potter, Harry",2021-11-03,2021-12-30
29,ABC,ABC-1001,1001,1001,USA,IS,2021-11-03,2022-04-27,2021-11-03T10:50:00,2021-12-30T09:10:00,2022-04-27,,,NA,1947-09-21,,,74,YEARS,>64,F,WHITE,White,NOT HISPANIC OR LATINO,Y,Y,VACCINE A VACCINE B,VAXAB,VACCINE A VACCINE B,VAXAB,VACCINE A,VACCINE A,VACCINE A,VACCINE A,VACCINE B,VACCINE B,2021-11-03,2021-11-03T10:50:00Z,2021-12-30,2021-12-30T09:10:00Z,2021-11-03,2021-12-29,2021-12-30,2022-04-27,2021-11-03,2021-12-29,2021-10-28,2021-12-15,43,Visit 3,30,Visit 3 (Day 61),3,SECOND TREATMENT,1,J0033VN Antibody,J0033VN,1,IMMUNOLOGY,2,titer,,,VISIT 1,,,Titer >= ISLLOQ,Y,1,,,5,J0033VN,J0033VN Antibody,IMMUNOLOGY,2,1/DIL,2,2,titer,,,LABNAME,SERUM,METHODNAME,,2,30,SECOND TREATMENT,2021-12,61,100,4,ORIG,4,8,,,Y,1328,"Potter, Harry",2021-11-03,2021-12-30
30,ABC,ABC-1001,1001,1001,USA,IS,2021-11-03,2022-04-27,2021-11-03T10:50:00,2021-12-30T09:10:00,2022-04-27,,,NA,1947-09-21,,,74,YEARS,>64,F,WHITE,White,NOT HISPANIC OR LATINO,Y,Y,VACCINE A VACCINE B,VAXAB,VACCINE A VACCINE B,VAXAB,VACCINE A,VACCINE A,VACCINE A,VACCINE A,VACCINE B,VACCINE B,2021-11-03,2021-11-03T10:50:00Z,2021-12-30,2021-12-30T09:10:00Z,2021-11-03,2021-12-29,2021-12-30,2022-04-27,2021-11-03,2021-12-29,2021-10-28,2021-12-15,43,Visit 3,30,Visit 3 (Day 61),3,SECOND TREATMENT,1,I0019NT Antibody,I0019NT,2,IMMUNOLOGY,200,titer,2,Titer value < 1:10,VISIT 1,198,100,Titer >= ISLLOQ,Y,1,ULOQ,,6,I0019NT,I0019NT Antibody,IMMUNOLOGY,>200,1/DIL,>200,,titer,,,LABNAME,SERUM,METHODNAME,,4,30,SECOND TREATMENT,2021-12,61,200,5,ORIG,4,8,,,Y,1328,"Potter, Harry",2021-11-03,2021-12-30
31,ABC,ABC-1001,1001,1001,USA,IS,2021-11-03,2022-04-27,2021-11-03T10:50:00,2021-12-30T09:10:00,2022-04-27,,,NA,1947-09-21,,,74,YEARS,>64,F,WHITE,White,NOT HISPANIC OR LATINO,Y,Y,VACCINE A VACCINE B,VAXAB,VACCINE A VACCINE B,VAXAB,VACCINE A,VACCINE A,VACCINE A,VACCINE A,VACCINE B,VACCINE B,2021-11-03,2021-11-03T10:50:00Z,2021-12-30,2021-12-30T09:10:00Z,2021-11-03,2021-12-29,2021-12-30,2022-04-27,2021-11-03,2021-12-29,2021-10-28,2021-12-15,43,Visit 3,30,Visit 3 (Day 61),3,SECOND TREATMENT,1,M0019LN Antibody,M0019LN,3,IMMUNOLOGY,4,titer,150,Titer value >= 1:10,VISIT 1,-146,0.02666666666666667,Titer >= ISLLOQ,N,0,HALFLLOQ,,7,M0019LN,M0019LN Antibody,IMMUNOLOGY,<2,1/DIL,<2,,titer,,,LABNAME,SERUM,METHODNAME,,8,30,SECOND TREATMENT,2021-12,61,150,4,ORIG,4,8,,,Y,1328,"Potter, Harry",2021-11-03,2021-12-30
32,ABC,ABC-1001,1001,1001,USA,IS,2021-11-03,2022-04-27,2021-11-03T10:50:00,2021-12-30T09:10:00,2022-04-27,,,NA,1947-09-21,,,74,YEARS,>64,F,WHITE,White,NOT HISPANIC OR LATINO,Y,Y,VACCINE A VACCINE B,VAXAB,VACCINE A VACCINE B,VAXAB,VACCINE A,VACCINE A,VACCINE A,VACCINE A,VACCINE B,VACCINE B,2021-11-03,2021-11-03T10:50:00Z,2021-12-30,2021-12-30T09:10:00Z,2021-11-03,2021-12-29,2021-12-30,2022-04-27,2021-11-03,2021-12-29,2021-10-28,2021-12-15,43,Visit 3,30,Visit 3 (Day 61),3,SECOND TREATMENT,1,R0003MA Antibody,R0003MA,4,IMMUNOLOGY,98.2,titer,120,Titer value >= 1:10,VISIT 1,-21.799999999999997,0.8183333333333334,Titer >= ISLLOQ,Y,1,,,8,R0003MA,R0003MA Antibody,IMMUNOLOGY,98.2,1/DIL,98.2,98.2,titer,,,LABNAME,SERUM,METHODNAME,,4,30,SECOND TREATMENT,2021-12,61,120,8,ORIG,4,8,,,Y,1328,"Potter, Harry",2021-11-03,2021-12-30
33,ABC,ABC-1002,1002,1002,USA,IS,2021-10-07,2022-06-14,2021-10-07T12:48:00,2021-12-16T12:41:00,2022-06-14,,,NA,1951-07-13,,,70,YEARS,>64,F,BLACK OR AFRICAN AMERICAN,Non-white,HISPANIC OR LATINO,Y,Y,VACCINE A VACCINE B,VAXAB,VACCINE A VACCINE B,VAXAB,,,VACCINE A,VACCINE A,VACCINE B,VACCINE B,2021-10-07,2021-10-07T12:48:00Z,2021-12-16,2021-12-16T12:41:00Z,2021-10-07,2021-12-15,2021-12-16,2022-06-14,,,2021-09-22,2021-06-30,-99,Visit 3,30,Visit 3 (Day 61),3,SECOND TREATMENT,,4FOLD (J0033VN Antibody),J0033VNF,21,IMMUNOLOGY,100,titer,3,Titer value < 1:10,VISIT 1,97,33.333333333333336,Titer >= ISLLOQ,Y,1,,,,J0033VN,J0033VN Antibody,IMMUNOLOGY,>100,1/DIL,>100,,titer,,,LABNAME,SERUM,METHODNAME,,2,30,SECOND TREATMENT,2021,61,100,4,4FOLD,4,8,,,Y,1212,"Gomez, Selena",2021-10-07,2021-12-16
34,ABC,ABC-1002,1002,1002,USA,IS,2021-10-07,2022-06-14,2021-10-07T12:48:00,2021-12-16T12:41:00,2022-06-14,,,NA,1951-07-13,,,70,YEARS,>64,F,BLACK OR AFRICAN AMERICAN,Non-white,HISPANIC OR LATINO,Y,Y,VACCINE A VACCINE B,VAXAB,VACCINE A VACCINE B,VAXAB,,,VACCINE A,VACCINE A,VACCINE B,VACCINE B,2021-10-07,2021-10-07T12:48:00Z,2021-12-16,2021-12-16T12:41:00Z,2021-10-07,2021-12-15,2021-12-16,2022-06-14,,,2021-09-22,2021-06-30,-99,Visit 3,30,Visit 3 (Day 61),3,SECOND TREATMENT,,4FOLD (I0019NT Antibody),I0019NTF,22,IMMUNOLOGY,4,titer,,,VISIT 1,,,Titer >= ISLLOQ,Y,1,,,,I0019NT,I0019NT Antibody,IMMUNOLOGY,<2,1/DIL,<2,,titer,,,LABNAME,SERUM,METHODNAME,,4,30,SECOND TREATMENT,2021,61,200,5,4FOLD,4,8,,,Y,1212,"Gomez, Selena",2021-10-07,2021-12-16
35,ABC,ABC-1002,1002,1002,USA,IS,2021-10-07,2022-06-14,2021-10-07T12:48:00,2021-12-16T12:41:00,2022-06-14,,,NA,1951-07-13,,,70,YEARS,>64,F,BLACK OR AFRICAN AMERICAN,Non-white,HISPANIC OR LATINO,Y,Y,VACCINE A VACCINE B,VAXAB,VACCINE A VACCINE B,VAXAB,,,VACCINE A,VACCINE A,VACCINE B,VACCINE B,2021-10-07,2021-10-07T12:48:00Z,2021-12-16,2021-12-16T12:41:00Z,2021-10-07,2021-12-15,2021-12-16,2022-06-14,,,2021-09-22,2021-06-30,-99,Visit 3,30,Visit 3 (Day 61),3,SECOND TREATMENT,,4FOLD (M0019LN Antibody),M0019LNF,23,IMMUNOLOGY,8,titer,8,Titer value < 1:10,VISIT 1,0,1,Titer >= ISLLOQ,Y,1,,,,M0019LN,M0019LN Antibody,IMMUNOLOGY,5,1/DIL,5,5,titer,,,LABNAME,SERUM,METHODNAME,,8,30,SECOND TREATMENT,2021,61,150,4,4FOLD,4,8,,,Y,1212,"Gomez, Selena",2021-10-07,2021-12-16
36,ABC,ABC-1002,1002,1002,USA,IS,2021-10-07,2022-06-14,2021-10-07T12:48:00,2021-12-16T12:41:00,2022-06-14,,,NA,1951-07-13,,,70,YEARS,>64,F,BLACK OR AFRICAN AMERICAN,Non-white,HISPANIC OR LATINO,Y,Y,VACCINE A VACCINE B,VAXAB,VACCINE A VACCINE B,VAXAB,,,VACCINE A,VACCINE A,VACCINE B,VACCINE B,2021-10-07,2021-10-07T12:48:00Z,2021-12-16,2021-12-16T12:41:00Z,2021-10-07,2021-12-15,2021-12-16,2022-06-14,,,2021-09-22,2021-06-30,-99,Visit 3,30,Visit 3 (Day 61),3,SECOND TREATMENT,,4FOLD (R0003MA Antibody),R0003MAF,24,IMMUNOLOGY,120,titer,48.9,Titer value >= 1:10,VISIT 1,71.1,2.4539877300613497,Titer >= ISLLOQ,Y,1,,,,R0003MA,R0003MA Antibody,IMMUNOLOGY,228.1,1/DIL,228.1,228.1,titer,,,LABNAME,SERUM,METHODNAME,,4,30,SECOND TREATMENT,2021,61,120,8,4FOLD,4,8,,,Y,1212,"Gomez, Selena",2021-10-07,2021-12-16
37,ABC,ABC-1002,1002,1002,USA,IS,2021-10-07,2022-06-14,2021-10-07T12:48:00,2021-12-16T12:41:00,2022-06-14,,,NA,1951-07-13,,,70,YEARS,>64,F,BLACK OR AFRICAN AMERICAN,Non-white,HISPANIC OR LATINO,Y,Y,VACCINE A VACCINE B,VAXAB,VACCINE A VACCINE B,VAXAB,,,VACCINE A,VACCINE A,VACCINE B,VACCINE B,2021-10-07,2021-10-07T12:48:00Z,2021-12-16,2021-12-16T12:41:00Z,2021-10-07,2021-12-15,2021-12-16,2022-06-14,,,2021-09-22,2021-06-30,-99,Visit 1,10,Visit 1 (Day 1),1,FIRST TREATMENT,,4FOLD (J0033VN Antibody),J0033VNF,21,IMMUNOLOGY,3,titer,3,Titer value < 1:10,VISIT 1,,,Titer >= ISLLOQ,Y,1,,Y,,J0033VN,J0033VN Antibody,IMMUNOLOGY,3,1/DIL,3,3,titer,,,LABNAME,SERUM,METHODNAME,Y,2,10,FIRST TREATMENT,2021,1,100,4,4FOLD,4,8,S+,2,Y,1212,"Gomez, Selena",2021-10-07,2021-12-16
38,ABC,ABC-1002,1002,1002,USA,IS,2021-10-07,2022-06-14,2021-10-07T12:48:00,2021-12-16T12:41:00,2022-06-14,,,NA,1951-07-13,,,70,YEARS,>64,F,BLACK OR AFRICAN AMERICAN,Non-white,HISPANIC OR LATINO,Y,Y,VACCINE A VACCINE B,VAXAB,VACCINE A VACCINE B,VAXAB,,,VACCINE A,VACCINE A,VACCINE B,VACCINE B,2021-10-07,2021-10-07T12:48:00Z,2021-12-16,2021-12-16T12:41:00Z,2021-10-07,2021-12-15,2021-12-16,2022-06-14,,,2021-09-22,2021-06-30,-99,Visit 1,10,Visit 1 (Day 1),1,FIRST TREATMENT,,4FOLD (M0019LN Antibody),M0019LNF,23,IMMUNOLOGY,8,titer,8,Titer value < 1:10,VISIT 1,,,Titer >= ISLLOQ,Y,1,,Y,,M0019LN,M0019LN Antibody,IMMUNOLOGY,<2,1/DIL,<2,,titer,,,LABNAME,SERUM,METHODNAME,Y,8,10,FIRST TREATMENT,2021,1,150,4,4FOLD,4,8,S+,2,Y,1212,"Gomez, Selena",2021-10-07,2021-12-16
39,ABC,ABC-1002,1002,1002,USA,IS,2021-10-07,2022-06-14,2021-10-07T12:48:00,2021-12-16T12:41:00,2022-06-14,,,NA,1951-07-13,,,70,YEARS,>64,F,BLACK OR AFRICAN AMERICAN,Non-white,HISPANIC OR LATINO,Y,Y,VACCINE A VACCINE B,VAXAB,VACCINE A VACCINE B,VAXAB,,,VACCINE A,VACCINE A,VACCINE B,VACCINE B,2021-10-07,2021-10-07T12:48:00Z,2021-12-16,2021-12-16T12:41:00Z,2021-10-07,2021-12-15,2021-12-16,2022-06-14,,,2021-09-22,2021-06-30,-99,Visit 1,10,Visit 1 (Day 1),1,FIRST TREATMENT,,4FOLD (R0003MA Antibody),R0003MAF,24,IMMUNOLOGY,48.9,titer,48.9,Titer value >= 1:10,VISIT 1,,,Titer >= ISLLOQ,Y,1,,Y,,R0003MA,R0003MA Antibody,IMMUNOLOGY,48.9,1/DIL,48.9,48.9,titer,,,LABNAME,SERUM,METHODNAME,Y,4,10,FIRST TREATMENT,2021,1,120,8,4FOLD,4,8,S+,2,Y,1212,"Gomez, Selena",2021-10-07,2021-12-16
40,ABC,ABC-1002,1002,1002,USA,IS,2021-10-07,2022-06-14,2021-10-07T12:48:00,2021-12-16T12:41:00,2022-06-14,,,NA,1951-07-13,,,70,YEARS,>64,F,BLACK OR AFRICAN AMERICAN,Non-white,HISPANIC OR LATINO,Y,Y,VACCINE A VACCINE B,VAXAB,VACCINE A VACCINE B,VAXAB,,,VACCINE A,VACCINE A,VACCINE B,VACCINE B,2021-10-07,2021-10-07T12:48:00Z,2021-12-16,2021-12-16T12:41:00Z,2021-10-07,2021-12-15,2021-12-16,2022-06-14,,,2021-09-22,,,Visit 1,10,Visit 1 (Day 1),1,FIRST TREATMENT,,4FOLD (I0019NT Antibody),I0019NTF,22,IMMUNOLOGY,,,,,VISIT 1,,,,,,,Y,,I0019NT,I0019NT Antibody,IMMUNOLOGY,,,,,,NOT DONE,INVALID RESULT,LABNAME,SERUM,METHODNAME,Y,4,10,FIRST TREATMENT,,,200,5,4FOLD,4,8,UNKNOWN,3,Y,1212,"Gomez, Selena",2021-10-07,2021-12-16
41,ABC,ABC-1002,1002,1002,USA,IS,2021-10-07,2022-06-14,2021-10-07T12:48:00,2021-12-16T12:41:00,2022-06-14,,,NA,1951-07-13,,,70,YEARS,>64,F,BLACK OR AFRICAN AMERICAN,Non-white,HISPANIC OR LATINO,Y,Y,VACCINE A VACCINE B,VAXAB,VACCINE A VACCINE B,VAXAB,,,VACCINE A,VACCINE A,VACCINE B,VACCINE B,2021-10-07,2021-10-07T12:48:00Z,2021-12-16,2021-12-16T12:41:00Z,2021-10-07,2021-12-15,2021-12-16,2022-06-14,,,2021-09-22,2021-06-30,-99,Visit 3,30,Visit 3 (Day 61),3,SECOND TREATMENT,,LOG10 (J0033VN Antibody),J0033VNL,11,IMMUNOLOGY,2,titer,0.48,Titer value < 1:10,VISIT 1,1.52,4.166666666666667,Titer >= ISLLOQ,Y,1,ULOQ,,,J0033VN,J0033VN Antibody,IMMUNOLOGY,>100,1/DIL,>100,,titer,,,LABNAME,SERUM,METHODNAME,,2,30,SECOND TREATMENT,2021,61,100,4,LOG10,4,8,,,Y,1212,"Gomez, Selena",2021-10-07,2021-12-16
42,ABC,ABC-1002,1002,1002,USA,IS,2021-10-07,2022-06-14,2021-10-07T12:48:00,2021-12-16T12:41:00,2022-06-14,,,NA,1951-07-13,,,70,YEARS,>64,F,BLACK OR AFRICAN AMERICAN,Non-white,HISPANIC OR LATINO,Y,Y,VACCINE A VACCINE B,VAXAB,VACCINE A VACCINE B,VAXAB,,,VACCINE A,VACCINE A,VACCINE B,VACCINE B,2021-10-07,2021-10-07T12:48:00Z,2021-12-16,2021-12-16T12:41:00Z,2021-10-07,2021-12-15,2021-12-16,2022-06-14,,,2021-09-22,2021-06-30,-99,Visit 3,30,Visit 3 (Day 61),3,SECOND TREATMENT,,LOG10 (I0019NT Antibody),I0019NTL,12,IMMUNOLOGY,0.3,titer,,,VISIT 1,,,Titer >= ISLLOQ,N,0,HALFLLOQ,,,I0019NT,I0019NT Antibody,IMMUNOLOGY,<2,1/DIL,<2,,titer,,,LABNAME,SERUM,METHODNAME,,4,30,SECOND TREATMENT,2021,61,200,5,LOG10,4,8,,,Y,1212,"Gomez, Selena",2021-10-07,2021-12-16
43,ABC,ABC-1002,1002,1002,USA,IS,2021-10-07,2022-06-14,2021-10-07T12:48:00,2021-12-16T12:41:00,2022-06-14,,,NA,1951-07-13,,,70,YEARS,>64,F,BLACK OR AFRICAN AMERICAN,Non-white,HISPANIC OR LATINO,Y,Y,VACCINE A VACCINE B,VAXAB,VACCINE A VACCINE B,VAXAB,,,VACCINE A,VACCINE A,VACCINE B,VACCINE B,2021-10-07,2021-10-07T12:48:00Z,2021-12-16,2021-12-16T12:41:00Z,2021-10-07,2021-12-15,2021-12-16,2022-06-14,,,2021-09-22,2021-06-30,-99,Visit 3,30,Visit 3 (Day 61),3,SECOND TREATMENT,,LOG10 (M0019LN Antibody),M0019LNL,13,IMMUNOLOGY,0.6,titer,0.6,Titer value < 1:10,VISIT 1,0,1,Titer >= ISLLOQ,N,0,HALFLLOQ,,,M0019LN,M0019LN Antibody,IMMUNOLOGY,5,1/DIL,5,5,titer,,,LABNAME,SERUM,METHODNAME,,8,30,SECOND TREATMENT,2021,61,150,4,LOG10,4,8,,,Y,1212,"Gomez, Selena",2021-10-07,2021-12-16
44,ABC,ABC-1002,1002,1002,USA,IS,2021-10-07,2022-06-14,2021-10-07T12:48:00,2021-12-16T12:41:00,2022-06-14,,,NA,1951-07-13,,,70,YEARS,>64,F,BLACK OR AFRICAN AMERICAN,Non-white,HISPANIC OR LATINO,Y,Y,VACCINE A VACCINE B,VAXAB,VACCINE A VACCINE B,VAXAB,,,VACCINE A,VACCINE A,VACCINE B,VACCINE B,2021-10-07,2021-10-07T12:48:00Z,2021-12-16,2021-12-16T12:41:00Z,2021-10-07,2021-12-15,2021-12-16,2022-06-14,,,2021-09-22,2021-06-30,-99,Visit 3,30,Visit 3 (Day 61),3,SECOND TREATMENT,,LOG10 (R0003MA Antibody),R0003MAL,14,IMMUNOLOGY,2.08,titer,1.69,Titer value < 1:10,VISIT 1,0.3900000000000001,1.2307692307692308,Titer >= ISLLOQ,N,0,ULOQ,,,R0003MA,R0003MA Antibody,IMMUNOLOGY,228.1,1/DIL,228.1,228.1,titer,,,LABNAME,SERUM,METHODNAME,,4,30,SECOND TREATMENT,2021,61,120,8,LOG10,4,8,,,Y,1212,"Gomez, Selena",2021-10-07,2021-12-16
45,ABC,ABC-1002,1002,1002,USA,IS,2021-10-07,2022-06-14,2021-10-07T12:48:00,2021-12-16T12:41:00,2022-06-14,,,NA,1951-07-13,,,70,YEARS,>64,F,BLACK OR AFRICAN AMERICAN,Non-white,HISPANIC OR LATINO,Y,Y,VACCINE A VACCINE B,VAXAB,VACCINE A VACCINE B,VAXAB,,,VACCINE A,VACCINE A,VACCINE B,VACCINE B,2021-10-07,2021-10-07T12:48:00Z,2021-12-16,2021-12-16T12:41:00Z,2021-10-07,2021-12-15,2021-12-16,2022-06-14,,,2021-09-22,2021-06-30,-99,Visit 1,10,Visit 1 (Day 1),1,FIRST TREATMENT,,LOG10 (J0033VN Antibody),J0033VNL,11,IMMUNOLOGY,0.48,titer,0.48,Titer value < 1:10,VISIT 1,,,Titer >= ISLLOQ,N,0,,Y,,J0033VN,J0033VN Antibody,IMMUNOLOGY,3,1/DIL,3,3,titer,,,LABNAME,SERUM,METHODNAME,Y,2,10,FIRST TREATMENT,2021,1,100,4,LOG10,4,8,S-,1,Y,1212,"Gomez, Selena",2021-10-07,2021-12-16
46,ABC,ABC-1002,1002,1002,USA,IS,2021-10-07,2022-06-14,2021-10-07T12:48:00,2021-12-16T12:41:00,2022-06-14,,,NA,1951-07-13,,,70,YEARS,>64,F,BLACK OR AFRICAN AMERICAN,Non-white,HISPANIC OR LATINO,Y,Y,VACCINE A VACCINE B,VAXAB,VACCINE A VACCINE B,VAXAB,,,VACCINE A,VACCINE A,VACCINE B,VACCINE B,2021-10-07,2021-10-07T12:48:00Z,2021-12-16,2021-12-16T12:41:00Z,2021-10-07,2021-12-15,2021-12-16,2022-06-14,,,2021-09-22,2021-06-30,-99,Visit 1,10,Visit 1 (Day 1),1,FIRST TREATMENT,,LOG10 (M0019LN Antibody),M0019LNL,13,IMMUNOLOGY,0.6,titer,0.6,Titer value < 1:10,VISIT 1,,,Titer >= ISLLOQ,N,0,HALFLLOQ,Y,,M0019LN,M0019LN Antibody,IMMUNOLOGY,<2,1/DIL,<2,,titer,,,LABNAME,SERUM,METHODNAME,Y,8,10,FIRST TREATMENT,2021,1,150,4,LOG10,4,8,S-,1,Y,1212,"Gomez, Selena",2021-10-07,2021-12-16
47,ABC,ABC-1002,1002,1002,USA,IS,2021-10-07,2022-06-14,2021-10-07T12:48:00,2021-12-16T12:41:00,2022-06-14,,,NA,1951-07-13,,,70,YEARS,>64,F,BLACK OR AFRICAN AMERICAN,Non-white,HISPANIC OR LATINO,Y,Y,VACCINE A VACCINE B,VAXAB,VACCINE A VACCINE B,VAXAB,,,VACCINE A,VACCINE A,VACCINE B,VACCINE B,2021-10-07,2021-10-07T12:48:00Z,2021-12-16,2021-12-16T12:41:00Z,2021-10-07,2021-12-15,2021-12-16,2022-06-14,,,2021-09-22,2021-06-30,-99,Visit 1,10,Visit 1 (Day 1),1,FIRST TREATMENT,,LOG10 (R0003MA Antibody),R0003MAL,14,IMMUNOLOGY,1.69,titer,1.69,Titer value < 1:10,VISIT 1,,,Titer >= ISLLOQ,N,0,,Y,,R0003MA,R0003MA Antibody,IMMUNOLOGY,48.9,1/DIL,48.9,48.9,titer,,,LABNAME,SERUM,METHODNAME,Y,4,10,FIRST TREATMENT,2021,1,120,8,LOG10,4,8,S-,1,Y,1212,"Gomez, Selena",2021-10-07,2021-12-16
48,ABC,ABC-1002,1002,1002,USA,IS,2021-10-07,2022-06-14,2021-10-07T12:48:00,2021-12-16T12:41:00,2022-06-14,,,NA,1951-07-13,,,70,YEARS,>64,F,BLACK OR AFRICAN AMERICAN,Non-white,HISPANIC OR LATINO,Y,Y,VACCINE A VACCINE B,VAXAB,VACCINE A VACCINE B,VAXAB,,,VACCINE A,VACCINE A,VACCINE B,VACCINE B,2021-10-07,2021-10-07T12:48:00Z,2021-12-16,2021-12-16T12:41:00Z,2021-10-07,2021-12-15,2021-12-16,2022-06-14,,,2021-09-22,,,Visit 1,10,Visit 1 (Day 1),1,FIRST TREATMENT,,LOG10 (I0019NT Antibody),I0019NTL,12,IMMUNOLOGY,,,,,VISIT 1,,,,,,,Y,,I0019NT,I0019NT Antibody,IMMUNOLOGY,,,,,,NOT DONE,INVALID RESULT,LABNAME,SERUM,METHODNAME,Y,4,10,FIRST TREATMENT,,,200,5,LOG10,4,8,UNKNOWN,3,Y,1212,"Gomez, Selena",2021-10-07,2021-12-16
49,ABC,ABC-1002,1002,1002,USA,IS,2021-10-07,2022-06-14,2021-10-07T12:48:00,2021-12-16T12:41:00,2022-06-14,,,NA,1951-07-13,,,70,YEARS,>64,F,BLACK OR AFRICAN AMERICAN,Non-white,HISPANIC OR LATINO,Y,Y,VACCINE A VACCINE B,VAXAB,VACCINE A VACCINE B,VAXAB,,,VACCINE A,VACCINE A,VACCINE B,VACCINE B,2021-10-07,2021-10-07T12:48:00Z,2021-12-16,2021-12-16T12:41:00Z,2021-10-07,2021-12-15,2021-12-16,2022-06-14,,,2021-09-22,2021-06-30,-99,Visit 3,30,Visit 3 (Day 61),3,SECOND TREATMENT,,LOG10 4FOLD (J0033VN Antibody),J0033VLF,31,IMMUNOLOGY,2,titer,0.48,Titer value < 1:10,VISIT 1,1.52,4.166666666666667,Titer >= ISLLOQ,Y,1,,,,J0033VN,J0033VN Antibody,IMMUNOLOGY,>100,1/DIL,>100,,titer,,,LABNAME,SERUM,METHODNAME,,2,30,SECOND TREATMENT,2021,61,100,4,LOG10 4FOLD,4,8,,,Y,1212,"Gomez, Selena",2021-10-07,2021-12-16
50,ABC,ABC-1002,1002,1002,USA,IS,2021-10-07,2022-06-14,2021-10-07T12:48:00,2021-12-16T12:41:00,2022-06-14,,,NA,1951-07-13,,,70,YEARS,>64,F,BLACK OR AFRICAN AMERICAN,Non-white,HISPANIC OR LATINO,Y,Y,VACCINE A VACCINE B,VAXAB,VACCINE A VACCINE B,VAXAB,,,VACCINE A,VACCINE A,VACCINE B,VACCINE B,2021-10-07,2021-10-07T12:48:00Z,2021-12-16,2021-12-16T12:41:00Z,2021-10-07,2021-12-15,2021-12-16,2022-06-14,,,2021-09-22,2021-06-30,-99,Visit 3,30,Visit 3 (Day 61),3,SECOND TREATMENT,,LOG10 4FOLD (I0019NT Antibody),I0019NLF,32,IMMUNOLOGY,0.6,titer,,,VISIT 1,,,Titer >= ISLLOQ,N,0,,,,I0019NT,I0019NT Antibody,IMMUNOLOGY,<2,1/DIL,<2,,titer,,,LABNAME,SERUM,METHODNAME,,4,30,SECOND TREATMENT,2021,61,200,5,LOG10 4FOLD,4,8,,,Y,1212,"Gomez, Selena",2021-10-07,2021-12-16
51,ABC,ABC-1002,1002,1002,USA,IS,2021-10-07,2022-06-14,2021-10-07T12:48:00,2021-12-16T12:41:00,2022-06-14,,,NA,1951-07-13,,,70,YEARS,>64,F,BLACK OR AFRICAN AMERICAN,Non-white,HISPANIC OR LATINO,Y,Y,VACCINE A VACCINE B,VAXAB,VACCINE A VACCINE B,VAXAB,,,VACCINE A,VACCINE A,VACCINE B,VACCINE B,2021-10-07,2021-10-07T12:48:00Z,2021-12-16,2021-12-16T12:41:00Z,2021-10-07,2021-12-15,2021-12-16,2022-06-14,,,2021-09-22,2021-06-30,-99,Visit 3,30,Visit 3 (Day 61),3,SECOND TREATMENT,,LOG10 4FOLD (M0019LN Antibody),M0019LLF,33,IMMUNOLOGY,0.9,titer,0.9,Titer value < 1:10,VISIT 1,0,1,Titer >= ISLLOQ,N,0,,,,M0019LN,M0019LN Antibody,IMMUNOLOGY,5,1/DIL,5,5,titer,,,LABNAME,SERUM,METHODNAME,,8,30,SECOND TREATMENT,2021,61,150,4,LOG10 4FOLD,4,8,,,Y,1212,"Gomez, Selena",2021-10-07,2021-12-16
52,ABC,ABC-1002,1002,1002,USA,IS,2021-10-07,2022-06-14,2021-10-07T12:48:00,2021-12-16T12:41:00,2022-06-14,,,NA,1951-07-13,,,70,YEARS,>64,F,BLACK OR AFRICAN AMERICAN,Non-white,HISPANIC OR LATINO,Y,Y,VACCINE A VACCINE B,VAXAB,VACCINE A VACCINE B,VAXAB,,,VACCINE A,VACCINE A,VACCINE B,VACCINE B,2021-10-07,2021-10-07T12:48:00Z,2021-12-16,2021-12-16T12:41:00Z,2021-10-07,2021-12-15,2021-12-16,2022-06-14,,,2021-09-22,2021-06-30,-99,Visit 3,30,Visit 3 (Day 61),3,SECOND TREATMENT,,LOG10 4FOLD (R0003MA Antibody),R0003MLF,34,IMMUNOLOGY,2.08,titer,1.69,Titer value < 1:10,VISIT 1,0.3900000000000001,1.2307692307692308,Titer >= ISLLOQ,N,0,,,,R0003MA,R0003MA Antibody,IMMUNOLOGY,228.1,1/DIL,228.1,228.1,titer,,,LABNAME,SERUM,METHODNAME,,4,30,SECOND TREATMENT,2021,61,120,8,LOG10 4FOLD,4,8,,,Y,1212,"Gomez, Selena",2021-10-07,2021-12-16
53,ABC,ABC-1002,1002,1002,USA,IS,2021-10-07,2022-06-14,2021-10-07T12:48:00,2021-12-16T12:41:00,2022-06-14,,,NA,1951-07-13,,,70,YEARS,>64,F,BLACK OR AFRICAN AMERICAN,Non-white,HISPANIC OR LATINO,Y,Y,VACCINE A VACCINE B,VAXAB,VACCINE A VACCINE B,VAXAB,,,VACCINE A,VACCINE A,VACCINE B,VACCINE B,2021-10-07,2021-10-07T12:48:00Z,2021-12-16,2021-12-16T12:41:00Z,2021-10-07,2021-12-15,2021-12-16,2022-06-14,,,2021-09-22,2021-06-30,-99,Visit 1,10,Visit 1 (Day 1),1,FIRST TREATMENT,,LOG10 4FOLD (J0033VN Antibody),J0033VLF,31,IMMUNOLOGY,0.48,titer,0.48,Titer value < 1:10,VISIT 1,,,Titer >= ISLLOQ,N,0,,Y,,J0033VN,J0033VN Antibody,IMMUNOLOGY,3,1/DIL,3,3,titer,,,LABNAME,SERUM,METHODNAME,Y,2,10,FIRST TREATMENT,2021,1,100,4,LOG10 4FOLD,4,8,S-,1,Y,1212,"Gomez, Selena",2021-10-07,2021-12-16
54,ABC,ABC-1002,1002,1002,USA,IS,2021-10-07,2022-06-14,2021-10-07T12:48:00,2021-12-16T12:41:00,2022-06-14,,,NA,1951-07-13,,,70,YEARS,>64,F,BLACK OR AFRICAN AMERICAN,Non-white,HISPANIC OR LATINO,Y,Y,VACCINE A VACCINE B,VAXAB,VACCINE A VACCINE B,VAXAB,,,VACCINE A,VACCINE A,VACCINE B,VACCINE B,2021-10-07,2021-10-07T12:48:00Z,2021-12-16,2021-12-16T12:41:00Z,2021-10-07,2021-12-15,2021-12-16,2022-06-14,,,2021-09-22,2021-06-30,-99,Visit 1,10,Visit 1 (Day 1),1,FIRST TREATMENT,,LOG10 4FOLD (M0019LN Antibody),M0019LLF,33,IMMUNOLOGY,0.9,titer,0.9,Titer value < 1:10,VISIT 1,,,Titer >= ISLLOQ,N,0,,Y,,M0019LN,M0019LN Antibody,IMMUNOLOGY,<2,1/DIL,<2,,titer,,,LABNAME,SERUM,METHODNAME,Y,8,10,FIRST TREATMENT,2021,1,150,4,LOG10 4FOLD,4,8,S-,1,Y,1212,"Gomez, Selena",2021-10-07,2021-12-16
55,ABC,ABC-1002,1002,1002,USA,IS,2021-10-07,2022-06-14,2021-10-07T12:48:00,2021-12-16T12:41:00,2022-06-14,,,NA,1951-07-13,,,70,YEARS,>64,F,BLACK OR AFRICAN AMERICAN,Non-white,HISPANIC OR LATINO,Y,Y,VACCINE A VACCINE B,VAXAB,VACCINE A VACCINE B,VAXAB,,,VACCINE A,VACCINE A,VACCINE B,VACCINE B,2021-10-07,2021-10-07T12:48:00Z,2021-12-16,2021-12-16T12:41:00Z,2021-10-07,2021-12-15,2021-12-16,2022-06-14,,,2021-09-22,2021-06-30,-99,Visit 1,10,Visit 1 (Day 1),1,FIRST TREATMENT,,LOG10 4FOLD (R0003MA Antibody),R0003MLF,34,IMMUNOLOGY,1.69,titer,1.69,Titer value < 1:10,VISIT 1,,,Titer >= ISLLOQ,N,0,,Y,,R0003MA,R0003MA Antibody,IMMUNOLOGY,48.9,1/DIL,48.9,48.9,titer,,,LABNAME,SERUM,METHODNAME,Y,4,10,FIRST TREATMENT,2021,1,120,8,LOG10 4FOLD,4,8,S-,1,Y,1212,"Gomez, Selena",2021-10-07,2021-12-16
56,ABC,ABC-1002,1002,1002,USA,IS,2021-10-07,2022-06-14,2021-10-07T12:48:00,2021-12-16T12:41:00,2022-06-14,,,NA,1951-07-13,,,70,YEARS,>64,F,BLACK OR AFRICAN AMERICAN,Non-white,HISPANIC OR LATINO,Y,Y,VACCINE A VACCINE B,VAXAB,VACCINE A VACCINE B,VAXAB,,,VACCINE A,VACCINE A,VACCINE B,VACCINE B,2021-10-07,2021-10-07T12:48:00Z,2021-12-16,2021-12-16T12:41:00Z,2021-10-07,2021-12-15,2021-12-16,2022-06-14,,,2021-09-22,,,Visit 1,10,Visit 1 (Day 1),1,FIRST TREATMENT,,LOG10 4FOLD (I0019NT Antibody),I0019NLF,32,IMMUNOLOGY,,,,,VISIT 1,,,,,,,Y,,I0019NT,I0019NT Antibody,IMMUNOLOGY,,,,,,NOT DONE,INVALID RESULT,LABNAME,SERUM,METHODNAME,Y,4,10,FIRST TREATMENT,,,200,5,LOG10 4FOLD,4,8,UNKNOWN,3,Y,1212,"Gomez, Selena",2021-10-07,2021-12-16
57,ABC,ABC-1002,1002,1002,USA,IS,2021-10-07,2022-06-14,2021-10-07T12:48:00,2021-12-16T12:41:00,2022-06-14,,,NA,1951-07-13,,,70,YEARS,>64,F,BLACK OR AFRICAN AMERICAN,Non-white,HISPANIC OR LATINO,Y,Y,VACCINE A VACCINE B,VAXAB,VACCINE A VACCINE B,VAXAB,,,VACCINE A,VACCINE A,VACCINE B,VACCINE B,2021-10-07,2021-10-07T12:48:00Z,2021-12-16,2021-12-16T12:41:00Z,2021-10-07,2021-12-15,2021-12-16,2022-06-14,,,2021-09-22,2021-06-30,-99,Visit 1,10,Visit 1 (Day 1),1,FIRST TREATMENT,,J0033VN Antibody,J0033VN,1,IMMUNOLOGY,3,titer,3,Titer value < 1:10,VISIT 1,,,Titer >= ISLLOQ,Y,1,,Y,1,J0033VN,J0033VN Antibody,IMMUNOLOGY,3,1/DIL,3,3,titer,,,LABNAME,SERUM,METHODNAME,Y,2,10,FIRST TREATMENT,2021,1,100,4,ORIG,4,8,S+,2,Y,1212,"Gomez, Selena",2021-10-07,2021-12-16
58,ABC,ABC-1002,1002,1002,USA,IS,2021-10-07,2022-06-14,2021-10-07T12:48:00,2021-12-16T12:41:00,2022-06-14,,,NA,1951-07-13,,,70,YEARS,>64,F,BLACK OR AFRICAN AMERICAN,Non-white,HISPANIC OR LATINO,Y,Y,VACCINE A VACCINE B,VAXAB,VACCINE A VACCINE B,VAXAB,,,VACCINE A,VACCINE A,VACCINE B,VACCINE B,2021-10-07,2021-10-07T12:48:00Z,2021-12-16,2021-12-16T12:41:00Z,2021-10-07,2021-12-15,2021-12-16,2022-06-14,,,2021-09-22,,,Visit 1,10,Visit 1 (Day 1),1,FIRST TREATMENT,,I0019NT Antibody,I0019NT,2,IMMUNOLOGY,,,,,VISIT 1,,,,,,,Y,2,I0019NT,I0019NT Antibody,IMMUNOLOGY,,,,,,NOT DONE,INVALID RESULT,LABNAME,SERUM,METHODNAME,Y,4,10,FIRST TREATMENT,,,200,5,ORIG,4,8,UNKNOWN,3,Y,1212,"Gomez, Selena",2021-10-07,2021-12-16
59,ABC,ABC-1002,1002,1002,USA,IS,2021-10-07,2022-06-14,2021-10-07T12:48:00,2021-12-16T12:41:00,2022-06-14,,,NA,1951-07-13,,,70,YEARS,>64,F,BLACK OR AFRICAN AMERICAN,Non-white,HISPANIC OR LATINO,Y,Y,VACCINE A VACCINE B,VAXAB,VACCINE A VACCINE B,VAXAB,,,VACCINE A,VACCINE A,VACCINE B,VACCINE B,2021-10-07,2021-10-07T12:48:00Z,2021-12-16,2021-12-16T12:41:00Z,2021-10-07,2021-12-15,2021-12-16,2022-06-14,,,2021-09-22,2021-06-30,-99,Visit 1,10,Visit 1 (Day 1),1,FIRST TREATMENT,,M0019LN Antibody,M0019LN,3,IMMUNOLOGY,4,titer,4,Titer value < 1:10,VISIT 1,,,Titer >= ISLLOQ,N,0,HALFLLOQ,Y,3,M0019LN,M0019LN Antibody,IMMUNOLOGY,<2,1/DIL,<2,,titer,,,LABNAME,SERUM,METHODNAME,Y,8,10,FIRST TREATMENT,2021,1,150,4,ORIG,4,8,S-,1,Y,1212,"Gomez, Selena",2021-10-07,2021-12-16
60,ABC,ABC-1002,1002,1002,USA,IS,2021-10-07,2022-06-14,2021-10-07T12:48:00,2021-12-16T12:41:00,2022-06-14,,,NA,1951-07-13,,,70,YEARS,>64,F,BLACK OR AFRICAN AMERICAN,Non-white,HISPANIC OR LATINO,Y,Y,VACCINE A VACCINE B,VAXAB,VACCINE A VACCINE B,VAXAB,,,VACCINE A,VACCINE A,VACCINE B,VACCINE B,2021-10-07,2021-10-07T12:48:00Z,2021-12-16,2021-12-16T12:41:00Z,2021-10-07,2021-12-15,2021-12-16,2022-06-14,,,2021-09-22,2021-06-30,-99,Visit 1,10,Visit 1 (Day 1),1,FIRST TREATMENT,,R0003MA Antibody,R0003MA,4,IMMUNOLOGY,48.9,titer,48.9,Titer value >= 1:10,VISIT 1,,,Titer >= ISLLOQ,Y,1,,Y,4,R0003MA,R0003MA Antibody,IMMUNOLOGY,48.9,1/DIL,48.9,48.9,titer,,,LABNAME,SERUM,METHODNAME,Y,4,10,FIRST TREATMENT,2021,1,120,8,ORIG,4,8,S+,2,Y,1212,"Gomez, Selena",2021-10-07,2021-12-16
61,ABC,ABC-1002,1002,1002,USA,IS,2021-10-07,2022-06-14,2021-10-07T12:48:00,2021-12-16T12:41:00,2022-06-14,,,NA,1951-07-13,,,70,YEARS,>64,F,BLACK OR AFRICAN AMERICAN,Non-white,HISPANIC OR LATINO,Y,Y,VACCINE A VACCINE B,VAXAB,VACCINE A VACCINE B,VAXAB,,,VACCINE A,VACCINE A,VACCINE B,VACCINE B,2021-10-07,2021-10-07T12:48:00Z,2021-12-16,2021-12-16T12:41:00Z,2021-10-07,2021-12-15,2021-12-16,2022-06-14,,,2021-09-22,2021-06-30,-99,Visit 3,30,Visit 3 (Day 61),3,SECOND TREATMENT,,J0033VN Antibody,J0033VN,1,IMMUNOLOGY,100,titer,3,Titer value < 1:10,VISIT 1,97,33.333333333333336,Titer >= ISLLOQ,Y,1,ULOQ,,5,J0033VN,J0033VN Antibody,IMMUNOLOGY,>100,1/DIL,>100,,titer,,,LABNAME,SERUM,METHODNAME,,2,30,SECOND TREATMENT,2021,61,100,4,ORIG,4,8,,,Y,1212,"Gomez, Selena",2021-10-07,2021-12-16
62,ABC,ABC-1002,1002,1002,USA,IS,2021-10-07,2022-06-14,2021-10-07T12:48:00,2021-12-16T12:41:00,2022-06-14,,,NA,1951-07-13,,,70,YEARS,>64,F,BLACK OR AFRICAN AMERICAN,Non-white,HISPANIC OR LATINO,Y,Y,VACCINE A VACCINE B,VAXAB,VACCINE A VACCINE B,VAXAB,,,VACCINE A,VACCINE A,VACCINE B,VACCINE B,2021-10-07,2021-10-07T12:48:00Z,2021-12-16,2021-12-16T12:41:00Z,2021-10-07,2021-12-15,2021-12-16,2022-06-14,,,2021-09-22,2021-06-30,-99,Visit 3,30,Visit 3 (Day 61),3,SECOND TREATMENT,,I0019NT Antibody,I0019NT,2,IMMUNOLOGY,2,titer,,,VISIT 1,,,Titer >= ISLLOQ,N,0,HALFLLOQ,,6,I0019NT,I0019NT Antibody,IMMUNOLOGY,<2,1/DIL,<2,,titer,,,LABNAME,SERUM,METHODNAME,,4,30,SECOND TREATMENT,2021,61,200,5,ORIG,4,8,,,Y,1212,"Gomez, Selena",2021-10-07,2021-12-16
63,ABC,ABC-1002,1002,1002,USA,IS,2021-10-07,2022-06-14,2021-10-07T12:48:00,2021-12-16T12:41:00,2022-06-14,,,NA,1951-07-13,,,70,YEARS,>64,F,BLACK OR AFRICAN AMERICAN,Non-white,HISPANIC OR LATINO,Y,Y,VACCINE A VACCINE B,VAXAB,VACCINE A VACCINE B,VAXAB,,,VACCINE A,VACCINE A,VACCINE B,VACCINE B,2021-10-07,2021-10-07T12:48:00Z,2021-12-16,2021-12-16T12:41:00Z,2021-10-07,2021-12-15,2021-12-16,2022-06-14,,,2021-09-22,2021-06-30,-99,Visit 3,30,Visit 3 (Day 61),3,SECOND TREATMENT,,M0019LN Antibody,M0019LN,3,IMMUNOLOGY,4,titer,4,Titer value < 1:10,VISIT 1,0,1,Titer >= ISLLOQ,N,0,HALFLLOQ,,7,M0019LN,M0019LN Antibody,IMMUNOLOGY,5,1/DIL,5,5,titer,,,LABNAME,SERUM,METHODNAME,,8,30,SECOND TREATMENT,2021,61,150,4,ORIG,4,8,,,Y,1212,"Gomez, Selena",2021-10-07,2021-12-16
64,ABC,ABC-1002,1002,1002,USA,IS,2021-10-07,2022-06-14,2021-10-07T12:48:00,2021-12-16T12:41:00,2022-06-14,,,NA,1951-07-13,,,70,YEARS,>64,F,BLACK OR AFRICAN AMERICAN,Non-white,HISPANIC OR LATINO,Y,Y,VACCINE A VACCINE B,VAXAB,VACCINE A VACCINE B,VAXAB,,,VACCINE A,VACCINE A,VACCINE B,VACCINE B,2021-10-07,2021-10-07T12:48:00Z,2021-12-16,2021-12-16T12:41:00Z,2021-10-07,2021-12-15,2021-12-16,2022-06-14,,,2021-09-22,2021-06-30,-99,Visit 3,30,Visit 3 (Day 61),3,SECOND TREATMENT,,R0003MA Antibody,R0003MA,4,IMMUNOLOGY,120,titer,48.9,Titer value >= 1:10,VISIT 1,71.1,2.4539877300613497,Titer >= ISLLOQ,Y,1,ULOQ,,8,R0003MA,R0003MA Antibody,IMMUNOLOGY,228.1,1/DIL,228.1,228.1,titer,,,LABNAME,SERUM,METHODNAME,,4,30,SECOND TREATMENT,2021,61,120,8,ORIG,4,8,,,Y,1212,"Gomez, Selena",2021-10-07,2021-12-16
