rownames,STUDYID,USUBJID,DOMAIN,TRT01P,TRT01A,TRTSDT,TRTEDT,ADT,ADY,AVISIT,AVISITN,PARAM,PARAMCD,PARAMN,PARCAT1,PARCAT2,AVAL,AVALC,ANRLO,ANRHI,LBSEQ,LBTESTCD,LBTEST,LBCAT,LBORRES,LBORRESU,LBORNRLO,LBORNRHI,LBSTRESC,LBSTRESN,LBSTRESU,LBSTNRLO,LBSTNRHI,LBNRIND,LBBLFL,LBFAST,VISITNUM,VISIT,VISITDY,LBDTC,LBDY,BMI,WSTCIR
1,CDISCPILOT01,01-701-1015,LB,Placebo,Placebo,2014-01-02,2014-07-02,2013-12-26,-7,Baseline,0,Insulin (mIU/L),INSULIN,8,CHEMISTRY,CV,14.4,,2,25,8,INSULIN,Insulin,CHEMISTRY,14.4,mIU/L,2,25,86.4,86.4,pmol/L,12,150,NORMAL,Y,Y,1,SCREENING 1,-7,2013-12-26T14:45,-7,38.10500234952369,99
2,CDISCPILOT01,01-701-1023,LB,Placebo,Placebo,2012-08-05,2012-09-01,2012-07-22,-14,Baseline,0,Insulin (mIU/L),INSULIN,8,CHEMISTRY,CV,27.5,,2,25,8,INSULIN,Insulin,CHEMISTRY,27.5,mIU/L,2,25,165,165,pmol/L,12,150,HIGH,Y,Y,1,SCREENING 1,-7,2012-07-22T12:13,-14,38.55257168866636,106
3,CDISCPILOT01,01-701-1028,LB,Insulin,Insulin,2013-07-19,2014-01-14,2013-07-11,-8,Baseline,0,Insulin (mIU/L),INSULIN,8,CHEMISTRY,CV,26.1,,2,25,8,INSULIN,Insulin,CHEMISTRY,26.1,mIU/L,2,25,156.6,156.60000000000002,pmol/L,12,150,HIGH,Y,Y,1,SCREENING 1,-7,2013-07-11T12:02,-8,37.63300502353547,105
4,CDISCPILOT01,01-701-1033,LB,Insulin,Insulin,2014-03-18,2014-03-31,2014-03-10,-8,Baseline,0,Insulin (mIU/L),INSULIN,8,CHEMISTRY,CV,30.7,,2,25,8,INSULIN,Insulin,CHEMISTRY,30.7,mIU/L,2,25,184.2,184.2,pmol/L,12,150,HIGH,Y,Y,1,SCREENING 1,-7,2014-03-10T12:31,-8,40.78673289536933,108
5,CDISCPILOT01,01-701-1034,LB,Insulin,Insulin,2014-07-01,2014-12-30,2014-06-24,-7,Baseline,0,Insulin (mIU/L),INSULIN,8,CHEMISTRY,CV,19.7,,2,25,8,INSULIN,Insulin,CHEMISTRY,19.7,mIU/L,2,25,118.2,118.19999999999999,pmol/L,12,150,NORMAL,Y,Y,1,SCREENING 1,-7,2014-06-24T15:30,-7,40.694041928563365,115
6,CDISCPILOT01,01-701-1015,LB,Placebo,Placebo,2014-01-02,2014-07-02,2013-12-26,-7,Baseline,0,Triglycerides (mg/dL),TRIG,9,CHEMISTRY,CV,111.1,,0,150,9,TRIG,Triglycerides,CHEMISTRY,111.1,mg/dL,0,150,1.254319,1.254319,mmol/L,0,1.6935,NORMAL,Y,Y,1,SCREENING 1,-7,2013-12-26T14:45,-7,38.10500234952369,99
7,CDISCPILOT01,01-701-1023,LB,Placebo,Placebo,2012-08-05,2012-09-01,2012-07-22,-14,Baseline,0,Triglycerides (mg/dL),TRIG,9,CHEMISTRY,CV,49.6,,0,150,9,TRIG,Triglycerides,CHEMISTRY,49.6,mg/dL,0,150,0.559984,0.559984,mmol/L,0,1.6935,NORMAL,Y,Y,1,SCREENING 1,-7,2012-07-22T12:13,-14,38.55257168866636,106
8,CDISCPILOT01,01-701-1028,LB,Insulin,Insulin,2013-07-19,2014-01-14,2013-07-11,-8,Baseline,0,Triglycerides (mg/dL),TRIG,9,CHEMISTRY,CV,45,,0,150,9,TRIG,Triglycerides,CHEMISTRY,45,mg/dL,0,150,0.50805,0.50805,mmol/L,0,1.6935,NORMAL,Y,Y,1,SCREENING 1,-7,2013-07-11T12:02,-8,37.63300502353547,105
9,CDISCPILOT01,01-701-1033,LB,Insulin,Insulin,2014-03-18,2014-03-31,2014-03-10,-8,Baseline,0,Triglycerides (mg/dL),TRIG,9,CHEMISTRY,CV,200.2,,0,150,9,TRIG,Triglycerides,CHEMISTRY,200.2,mg/dL,0,150,2.260258,2.260258,mmol/L,0,1.6935,HIGH,Y,Y,1,SCREENING 1,-7,2014-03-10T12:31,-8,40.78673289536933,108
10,CDISCPILOT01,01-701-1034,LB,Insulin,Insulin,2014-07-01,2014-12-30,2014-06-24,-7,Baseline,0,Triglycerides (mg/dL),TRIG,9,CHEMISTRY,CV,234.8,,0,150,9,TRIG,Triglycerides,CHEMISTRY,234.8,mg/dL,0,150,2.650892,2.6508920000000002,mmol/L,0,1.6935,HIGH,Y,Y,1,SCREENING 1,-7,2014-06-24T15:30,-7,40.694041928563365,115
11,CDISCPILOT01,01-701-1015,LB,Placebo,Placebo,2014-01-02,2014-07-02,2014-03-26,84,Week 12,12,Insulin (mIU/L),INSULIN,8,CHEMISTRY,CV,31.1,,2,25,17,INSULIN,Insulin,CHEMISTRY,31.1,mIU/L,2,25,186.6,186.60000000000002,pmol/L,12,150,HIGH,,Y,9,WEEK 12,84,2014-03-26T15:15,84,38.95937459951301,102
12,CDISCPILOT01,01-701-1028,LB,Insulin,Insulin,2013-07-19,2014-01-14,2013-10-09,83,Week 12,12,Insulin (mIU/L),INSULIN,8,CHEMISTRY,CV,36.8,,2,25,17,INSULIN,Insulin,CHEMISTRY,36.8,mIU/L,2,25,220.8,220.79999999999998,pmol/L,12,150,HIGH,,Y,9,WEEK 12,84,2013-10-09T08:42,83,35.33483643843203,99.4
13,CDISCPILOT01,01-701-1034,LB,Insulin,Insulin,2014-07-01,2014-12-30,2014-09-25,87,Week 12,12,Insulin (mIU/L),INSULIN,8,CHEMISTRY,CV,29.9,,2,25,17,INSULIN,Insulin,CHEMISTRY,29.9,mIU/L,2,25,179.4,179.39999999999998,pmol/L,12,150,HIGH,,Y,9,WEEK 12,84,2014-09-25T15:40,87,37.67925025405548,110
14,CDISCPILOT01,01-701-1015,LB,Placebo,Placebo,2014-01-02,2014-07-02,2014-03-26,84,Week 12,12,Triglycerides (mg/dL),TRIG,9,CHEMISTRY,CV,39.2,,0,150,18,TRIG,Triglycerides,CHEMISTRY,39.2,mg/dL,0,150,0.442568,0.442568,mmol/L,0,1.6935,NORMAL,,Y,9,WEEK 12,84,2014-03-26T15:15,84,38.95937459951301,102
15,CDISCPILOT01,01-701-1028,LB,Insulin,Insulin,2013-07-19,2014-01-14,2013-10-09,83,Week 12,12,Triglycerides (mg/dL),TRIG,9,CHEMISTRY,CV,201.7,,0,150,18,TRIG,Triglycerides,CHEMISTRY,201.7,mg/dL,0,150,2.277193,2.277193,mmol/L,0,1.6935,HIGH,,Y,9,WEEK 12,84,2013-10-09T08:42,83,35.33483643843203,99.4
16,CDISCPILOT01,01-701-1034,LB,Insulin,Insulin,2014-07-01,2014-12-30,2014-09-25,87,Week 12,12,Triglycerides (mg/dL),TRIG,9,CHEMISTRY,CV,87.3,,0,150,18,TRIG,Triglycerides,CHEMISTRY,87.3,mg/dL,0,150,0.985617,0.985617,mmol/L,0,1.6935,NORMAL,,Y,9,WEEK 12,84,2014-09-25T15:40,87,37.67925025405548,110
17,CDISCPILOT01,01-701-1015,LB,Placebo,Placebo,2014-01-02,2014-07-02,2014-05-07,126,Week 16,16,Insulin (mIU/L),INSULIN,8,CHEMISTRY,CV,40.7,,2,25,26,INSULIN,Insulin,CHEMISTRY,40.7,mIU/L,2,25,244.2,244.20000000000002,pmol/L,12,150,HIGH,,Y,10,WEEK 16,112,2014-05-07T11:21,126,38.57917894826776,102.5
18,CDISCPILOT01,01-701-1028,LB,Insulin,Insulin,2013-07-19,2014-01-14,2013-11-06,111,Week 16,16,Insulin (mIU/L),INSULIN,8,CHEMISTRY,CV,20.9,,2,25,26,INSULIN,Insulin,CHEMISTRY,20.9,mIU/L,2,25,125.4,125.39999999999999,pmol/L,12,150,NORMAL,,Y,10,WEEK 16,112,2013-11-06T10:08,111,35.133103912028794,99
19,CDISCPILOT01,01-701-1034,LB,Insulin,Insulin,2014-07-01,2014-12-30,2014-10-21,113,Week 16,16,Insulin (mIU/L),INSULIN,8,CHEMISTRY,CV,11.5,,2,25,26,INSULIN,Insulin,CHEMISTRY,11.5,mIU/L,2,25,69,69,pmol/L,12,150,NORMAL,,Y,10,WEEK 16,112,2014-10-21T09:52,113,36.66679212616207,109.2
20,CDISCPILOT01,01-701-1015,LB,Placebo,Placebo,2014-01-02,2014-07-02,2014-05-07,126,Week 16,16,Triglycerides (mg/dL),TRIG,9,CHEMISTRY,CV,24.9,,0,150,27,TRIG,Triglycerides,CHEMISTRY,24.9,mg/dL,0,150,0.281121,0.28112099999999995,mmol/L,0,1.6935,NORMAL,,Y,10,WEEK 16,112,2014-05-07T11:21,126,38.57917894826776,102.5
21,CDISCPILOT01,01-701-1028,LB,Insulin,Insulin,2013-07-19,2014-01-14,2013-11-06,111,Week 16,16,Triglycerides (mg/dL),TRIG,9,CHEMISTRY,CV,162.9,,0,150,27,TRIG,Triglycerides,CHEMISTRY,162.9,mg/dL,0,150,1.839141,1.839141,mmol/L,0,1.6935,HIGH,,Y,10,WEEK 16,112,2013-11-06T10:08,111,35.133103912028794,99
22,CDISCPILOT01,01-701-1034,LB,Insulin,Insulin,2014-07-01,2014-12-30,2014-10-21,113,Week 16,16,Triglycerides (mg/dL),TRIG,9,CHEMISTRY,CV,246.3,,0,150,27,TRIG,Triglycerides,CHEMISTRY,246.3,mg/dL,0,150,2.780727,2.780727,mmol/L,0,1.6935,HIGH,,Y,10,WEEK 16,112,2014-10-21T09:52,113,36.66679212616207,109.2
23,CDISCPILOT01,01-701-1015,LB,Placebo,Placebo,2014-01-02,2014-07-02,2014-01-16,15,Week 2,2,Insulin (mIU/L),INSULIN,8,CHEMISTRY,CV,40,,2,25,35,INSULIN,Insulin,CHEMISTRY,40,mIU/L,2,25,240,240,pmol/L,12,150,HIGH,,Y,4,WEEK 2,14,2014-01-16T13:17,15,38.53218847451835,100
24,CDISCPILOT01,01-701-1023,LB,Placebo,Placebo,2012-08-05,2012-09-01,2012-08-27,23,Week 2,2,Insulin (mIU/L),INSULIN,8,CHEMISTRY,CV,43.4,,2,25,17,INSULIN,Insulin,CHEMISTRY,43.4,mIU/L,2,25,260.4,260.4,pmol/L,12,150,HIGH,,Y,4,WEEK 2,14,2012-08-27T15:47,23,38.972725044641294,107.8
25,CDISCPILOT01,01-701-1028,LB,Insulin,Insulin,2013-07-19,2014-01-14,2013-08-01,14,Week 2,2,Insulin (mIU/L),INSULIN,8,CHEMISTRY,CV,34.4,,2,25,35,INSULIN,Insulin,CHEMISTRY,34.4,mIU/L,2,25,206.4,206.39999999999998,pmol/L,12,150,HIGH,,Y,4,WEEK 2,14,2013-08-01T09:15,14,37.273050907796375,104
26,CDISCPILOT01,01-701-1033,LB,Insulin,Insulin,2014-03-18,2014-03-31,2014-04-01,15,Week 2,2,Insulin (mIU/L),INSULIN,8,CHEMISTRY,CV,6.4,,2,25,17,INSULIN,Insulin,CHEMISTRY,6.4,mIU/L,2,25,38.4,38.400000000000006,pmol/L,12,150,NORMAL,,Y,4,WEEK 2,14,2014-04-01T08:55,15,40.31405223521872,107
27,CDISCPILOT01,01-701-1034,LB,Insulin,Insulin,2014-07-01,2014-12-30,2014-07-15,15,Week 2,2,Insulin (mIU/L),INSULIN,8,CHEMISTRY,CV,15,,2,25,35,INSULIN,Insulin,CHEMISTRY,15,mIU/L,2,25,90,90,pmol/L,12,150,NORMAL,,Y,4,WEEK 2,14,2014-07-15T09:25,15,39.674056230945844,114
28,CDISCPILOT01,01-701-1015,LB,Placebo,Placebo,2014-01-02,2014-07-02,2014-01-16,15,Week 2,2,Triglycerides (mg/dL),TRIG,9,CHEMISTRY,CV,25.7,,0,150,36,TRIG,Triglycerides,CHEMISTRY,25.7,mg/dL,0,150,0.290153,0.290153,mmol/L,0,1.6935,NORMAL,,Y,4,WEEK 2,14,2014-01-16T13:17,15,38.53218847451835,100
29,CDISCPILOT01,01-701-1023,LB,Placebo,Placebo,2012-08-05,2012-09-01,2012-08-27,23,Week 2,2,Triglycerides (mg/dL),TRIG,9,CHEMISTRY,CV,177.3,,0,150,18,TRIG,Triglycerides,CHEMISTRY,177.3,mg/dL,0,150,2.001717,2.001717,mmol/L,0,1.6935,HIGH,,Y,4,WEEK 2,14,2012-08-27T15:47,23,38.972725044641294,107.8
30,CDISCPILOT01,01-701-1028,LB,Insulin,Insulin,2013-07-19,2014-01-14,2013-08-01,14,Week 2,2,Triglycerides (mg/dL),TRIG,9,CHEMISTRY,CV,103,,0,150,36,TRIG,Triglycerides,CHEMISTRY,103,mg/dL,0,150,1.16287,1.16287,mmol/L,0,1.6935,NORMAL,,Y,4,WEEK 2,14,2013-08-01T09:15,14,37.273050907796375,104
31,CDISCPILOT01,01-701-1033,LB,Insulin,Insulin,2014-03-18,2014-03-31,2014-04-01,15,Week 2,2,Triglycerides (mg/dL),TRIG,9,CHEMISTRY,CV,246.5,,0,150,18,TRIG,Triglycerides,CHEMISTRY,246.5,mg/dL,0,150,2.782985,2.782985,mmol/L,0,1.6935,HIGH,,Y,4,WEEK 2,14,2014-04-01T08:55,15,40.31405223521872,107
32,CDISCPILOT01,01-701-1034,LB,Insulin,Insulin,2014-07-01,2014-12-30,2014-07-15,15,Week 2,2,Triglycerides (mg/dL),TRIG,9,CHEMISTRY,CV,237.7,,0,150,36,TRIG,Triglycerides,CHEMISTRY,237.7,mg/dL,0,150,2.683633,2.683633,mmol/L,0,1.6935,HIGH,,Y,4,WEEK 2,14,2014-07-15T09:25,15,39.674056230945844,114
33,CDISCPILOT01,01-701-1015,LB,Placebo,Placebo,2014-01-02,2014-07-02,2014-05-21,140,Week 20,20,Insulin (mIU/L),INSULIN,8,CHEMISTRY,CV,16.1,,2,25,44,INSULIN,Insulin,CHEMISTRY,16.1,mIU/L,2,25,96.6,96.60000000000001,pmol/L,12,150,NORMAL,,Y,11,WEEK 20,140,2014-05-21T10:58,140,39.031996240762105,102.7
34,CDISCPILOT01,01-701-1028,LB,Insulin,Insulin,2013-07-19,2014-01-14,2013-12-04,139,Week 20,20,Insulin (mIU/L),INSULIN,8,CHEMISTRY,CV,32.5,,2,25,44,INSULIN,Insulin,CHEMISTRY,32.5,mIU/L,2,25,195,195,pmol/L,12,150,HIGH,,Y,11,WEEK 20,140,2013-12-04T15:10,139,34.86808274989123,97
35,CDISCPILOT01,01-701-1034,LB,Insulin,Insulin,2014-07-01,2014-12-30,2014-11-18,141,Week 20,20,Insulin (mIU/L),INSULIN,8,CHEMISTRY,CV,8.6,,2,25,44,INSULIN,Insulin,CHEMISTRY,8.6,mIU/L,2,25,51.6,51.599999999999994,pmol/L,12,150,NORMAL,,Y,11,WEEK 20,140,2014-11-18T12:23,141,36.48989423764538,109
36,CDISCPILOT01,01-701-1015,LB,Placebo,Placebo,2014-01-02,2014-07-02,2014-05-21,140,Week 20,20,Triglycerides (mg/dL),TRIG,9,CHEMISTRY,CV,224,,0,150,45,TRIG,Triglycerides,CHEMISTRY,224,mg/dL,0,150,2.52896,2.52896,mmol/L,0,1.6935,HIGH,,Y,11,WEEK 20,140,2014-05-21T10:58,140,39.031996240762105,102.7
37,CDISCPILOT01,01-701-1028,LB,Insulin,Insulin,2013-07-19,2014-01-14,2013-12-04,139,Week 20,20,Triglycerides (mg/dL),TRIG,9,CHEMISTRY,CV,126.7,,0,150,45,TRIG,Triglycerides,CHEMISTRY,126.7,mg/dL,0,150,1.430443,1.430443,mmol/L,0,1.6935,NORMAL,,Y,11,WEEK 20,140,2013-12-04T15:10,139,34.86808274989123,97
38,CDISCPILOT01,01-701-1034,LB,Insulin,Insulin,2014-07-01,2014-12-30,2014-11-18,141,Week 20,20,Triglycerides (mg/dL),TRIG,9,CHEMISTRY,CV,48.3,,0,150,45,TRIG,Triglycerides,CHEMISTRY,48.3,mg/dL,0,150,0.545307,0.545307,mmol/L,0,1.6935,NORMAL,,Y,11,WEEK 20,140,2014-11-18T12:23,141,36.48989423764538,109
39,CDISCPILOT01,01-701-1015,LB,Placebo,Placebo,2014-01-02,2014-07-02,2014-06-18,168,Week 24,24,Insulin (mIU/L),INSULIN,8,CHEMISTRY,CV,31.8,,2,25,53,INSULIN,Insulin,CHEMISTRY,31.8,mIU/L,2,25,190.8,190.8,pmol/L,12,150,HIGH,,Y,12,WEEK 24,168,2014-06-18T13:00,168,39.10888974326114,104
40,CDISCPILOT01,01-701-1028,LB,Insulin,Insulin,2013-07-19,2014-01-14,2014-01-06,172,Week 24,24,Insulin (mIU/L),INSULIN,8,CHEMISTRY,CV,11.5,,2,25,53,INSULIN,Insulin,CHEMISTRY,11.5,mIU/L,2,25,69,69,pmol/L,12,150,NORMAL,,Y,12,WEEK 24,168,2014-01-06T10:00,172,34.436928918951,96
41,CDISCPILOT01,01-701-1034,LB,Insulin,Insulin,2014-07-01,2014-12-30,2014-12-17,170,Week 24,24,Insulin (mIU/L),INSULIN,8,CHEMISTRY,CV,31.7,,2,25,53,INSULIN,Insulin,CHEMISTRY,31.7,mIU/L,2,25,190.2,190.2,pmol/L,12,150,HIGH,,Y,12,WEEK 24,168,2014-12-17T14:27,170,35.70326320147541,108
42,CDISCPILOT01,01-701-1015,LB,Placebo,Placebo,2014-01-02,2014-07-02,2014-06-18,168,Week 24,24,Triglycerides (mg/dL),TRIG,9,CHEMISTRY,CV,248.7,,0,150,54,TRIG,Triglycerides,CHEMISTRY,248.7,mg/dL,0,150,2.807823,2.807823,mmol/L,0,1.6935,HIGH,,Y,12,WEEK 24,168,2014-06-18T13:00,168,39.10888974326114,104
43,CDISCPILOT01,01-701-1028,LB,Insulin,Insulin,2013-07-19,2014-01-14,2014-01-06,172,Week 24,24,Triglycerides (mg/dL),TRIG,9,CHEMISTRY,CV,159,,0,150,54,TRIG,Triglycerides,CHEMISTRY,159,mg/dL,0,150,1.79511,1.79511,mmol/L,0,1.6935,HIGH,,Y,12,WEEK 24,168,2014-01-06T10:00,172,34.436928918951,96
44,CDISCPILOT01,01-701-1034,LB,Insulin,Insulin,2014-07-01,2014-12-30,2014-12-17,170,Week 24,24,Triglycerides (mg/dL),TRIG,9,CHEMISTRY,CV,224.5,,0,150,54,TRIG,Triglycerides,CHEMISTRY,224.5,mg/dL,0,150,2.534605,2.534605,mmol/L,0,1.6935,HIGH,,Y,12,WEEK 24,168,2014-12-17T14:27,170,35.70326320147541,108
45,CDISCPILOT01,01-701-1015,LB,Placebo,Placebo,2014-01-02,2014-07-02,2014-07-02,182,Week 26,26,Insulin (mIU/L),INSULIN,8,CHEMISTRY,CV,30.2,,2,25,62,INSULIN,Insulin,CHEMISTRY,30.2,mIU/L,2,25,181.2,181.2,pmol/L,12,150,HIGH,,Y,13,WEEK 26,182,2014-07-02T11:45,182,39.77102823700286,105
46,CDISCPILOT01,01-701-1028,LB,Insulin,Insulin,2013-07-19,2014-01-14,2014-01-14,180,Week 26,26,Insulin (mIU/L),INSULIN,8,CHEMISTRY,CV,17.1,,2,25,62,INSULIN,Insulin,CHEMISTRY,17.1,mIU/L,2,25,102.6,102.60000000000001,pmol/L,12,150,NORMAL,,Y,13,WEEK 26,182,2014-01-14T11:10,180,34.06510818401171,95
47,CDISCPILOT01,01-701-1034,LB,Insulin,Insulin,2014-07-01,2014-12-30,2014-12-30,183,Week 26,26,Insulin (mIU/L),INSULIN,8,CHEMISTRY,CV,30.9,,2,25,62,INSULIN,Insulin,CHEMISTRY,30.9,mIU/L,2,25,185.4,185.39999999999998,pmol/L,12,150,HIGH,,Y,13,WEEK 26,182,2014-12-30T09:50,183,35.42097933682111,107
48,CDISCPILOT01,01-701-1015,LB,Placebo,Placebo,2014-01-02,2014-07-02,2014-07-02,182,Week 26,26,Triglycerides (mg/dL),TRIG,9,CHEMISTRY,CV,142.9,,0,150,63,TRIG,Triglycerides,CHEMISTRY,142.9,mg/dL,0,150,1.613341,1.613341,mmol/L,0,1.6935,NORMAL,,Y,13,WEEK 26,182,2014-07-02T11:45,182,39.77102823700286,105
49,CDISCPILOT01,01-701-1028,LB,Insulin,Insulin,2013-07-19,2014-01-14,2014-01-14,180,Week 26,26,Triglycerides (mg/dL),TRIG,9,CHEMISTRY,CV,72.3,,0,150,63,TRIG,Triglycerides,CHEMISTRY,72.3,mg/dL,0,150,0.816267,0.816267,mmol/L,0,1.6935,NORMAL,,Y,13,WEEK 26,182,2014-01-14T11:10,180,34.06510818401171,95
50,CDISCPILOT01,01-701-1034,LB,Insulin,Insulin,2014-07-01,2014-12-30,2014-12-30,183,Week 26,26,Triglycerides (mg/dL),TRIG,9,CHEMISTRY,CV,137.5,,0,150,63,TRIG,Triglycerides,CHEMISTRY,137.5,mg/dL,0,150,1.552375,1.552375,mmol/L,0,1.6935,NORMAL,,Y,13,WEEK 26,182,2014-12-30T09:50,183,35.42097933682111,107
51,CDISCPILOT01,01-701-1015,LB,Placebo,Placebo,2014-01-02,2014-07-02,2014-02-12,42,Week 6,6,Insulin (mIU/L),INSULIN,8,CHEMISTRY,CV,24.7,,2,25,77,INSULIN,Insulin,CHEMISTRY,24.7,mIU/L,2,25,148.2,148.2,pmol/L,12,150,NORMAL,,Y,7,WEEK 6,42,2014-02-12T12:56,42,38.677431757016535,101
52,CDISCPILOT01,01-701-1028,LB,Insulin,Insulin,2013-07-19,2014-01-14,2013-08-29,42,Week 6,6,Insulin (mIU/L),INSULIN,8,CHEMISTRY,CV,30.6,,2,25,77,INSULIN,Insulin,CHEMISTRY,30.6,mIU/L,2,25,183.6,183.60000000000002,pmol/L,12,150,HIGH,,Y,7,WEEK 6,42,2013-08-29T11:54,42,36.21296625924607,101
53,CDISCPILOT01,01-701-1034,LB,Insulin,Insulin,2014-07-01,2014-12-30,2014-08-11,42,Week 6,6,Insulin (mIU/L),INSULIN,8,CHEMISTRY,CV,33,,2,25,77,INSULIN,Insulin,CHEMISTRY,33,mIU/L,2,25,198,198,pmol/L,12,150,HIGH,,Y,7,WEEK 6,42,2014-08-11T13:15,42,39.011630095223765,112
54,CDISCPILOT01,01-701-1015,LB,Placebo,Placebo,2014-01-02,2014-07-02,2014-02-12,42,Week 6,6,Triglycerides (mg/dL),TRIG,9,CHEMISTRY,CV,144.6,,0,150,78,TRIG,Triglycerides,CHEMISTRY,144.6,mg/dL,0,150,1.632534,1.632534,mmol/L,0,1.6935,NORMAL,,Y,7,WEEK 6,42,2014-02-12T12:56,42,38.677431757016535,101
55,CDISCPILOT01,01-701-1028,LB,Insulin,Insulin,2013-07-19,2014-01-14,2013-08-29,42,Week 6,6,Triglycerides (mg/dL),TRIG,9,CHEMISTRY,CV,105.2,,0,150,78,TRIG,Triglycerides,CHEMISTRY,105.2,mg/dL,0,150,1.187708,1.187708,mmol/L,0,1.6935,NORMAL,,Y,7,WEEK 6,42,2013-08-29T11:54,42,36.21296625924607,101
56,CDISCPILOT01,01-701-1034,LB,Insulin,Insulin,2014-07-01,2014-12-30,2014-08-11,42,Week 6,6,Triglycerides (mg/dL),TRIG,9,CHEMISTRY,CV,144.1,,0,150,78,TRIG,Triglycerides,CHEMISTRY,144.1,mg/dL,0,150,1.626889,1.6268889999999998,mmol/L,0,1.6935,NORMAL,,Y,7,WEEK 6,42,2014-08-11T13:15,42,39.011630095223765,112
57,CDISCPILOT01,01-701-1015,LB,Placebo,Placebo,2014-01-02,2014-07-02,2014-03-05,63,Week 8,8,Insulin (mIU/L),INSULIN,8,CHEMISTRY,CV,21.6,,2,25,86,INSULIN,Insulin,CHEMISTRY,21.6,mIU/L,2,25,129.6,129.60000000000002,pmol/L,12,150,NORMAL,,Y,8,WEEK 8,56,2014-03-05T12:25,63,38.79277201076509,101
58,CDISCPILOT01,01-701-1028,LB,Insulin,Insulin,2013-07-19,2014-01-14,2013-09-10,54,Week 8,8,Insulin (mIU/L),INSULIN,8,CHEMISTRY,CV,13.8,,2,25,86,INSULIN,Insulin,CHEMISTRY,13.8,mIU/L,2,25,82.8,82.80000000000001,pmol/L,12,150,NORMAL,,Y,8,WEEK 8,56,2013-09-10T09:13,54,35.69479055417112,100
59,CDISCPILOT01,01-701-1034,LB,Insulin,Insulin,2014-07-01,2014-12-30,2014-08-26,57,Week 8,8,Insulin (mIU/L),INSULIN,8,CHEMISTRY,CV,43,,2,25,86,INSULIN,Insulin,CHEMISTRY,43,mIU/L,2,25,258,258,pmol/L,12,150,HIGH,,Y,8,WEEK 8,56,2014-08-26T09:57,57,38.812149497534726,113
60,CDISCPILOT01,01-701-1015,LB,Placebo,Placebo,2014-01-02,2014-07-02,2014-03-05,63,Week 8,8,Triglycerides (mg/dL),TRIG,9,CHEMISTRY,CV,121.5,,0,150,87,TRIG,Triglycerides,CHEMISTRY,121.5,mg/dL,0,150,1.371735,1.371735,mmol/L,0,1.6935,NORMAL,,Y,8,WEEK 8,56,2014-03-05T12:25,63,38.79277201076509,101
61,CDISCPILOT01,01-701-1028,LB,Insulin,Insulin,2013-07-19,2014-01-14,2013-09-10,54,Week 8,8,Triglycerides (mg/dL),TRIG,9,CHEMISTRY,CV,120.4,,0,150,87,TRIG,Triglycerides,CHEMISTRY,120.4,mg/dL,0,150,1.359316,1.359316,mmol/L,0,1.6935,NORMAL,,Y,8,WEEK 8,56,2013-09-10T09:13,54,35.69479055417112,100
62,CDISCPILOT01,01-701-1034,LB,Insulin,Insulin,2014-07-01,2014-12-30,2014-08-26,57,Week 8,8,Triglycerides (mg/dL),TRIG,9,CHEMISTRY,CV,110.1,,0,150,87,TRIG,Triglycerides,CHEMISTRY,110.1,mg/dL,0,150,1.243029,1.243029,mmol/L,0,1.6935,NORMAL,,Y,8,WEEK 8,56,2014-08-26T09:57,57,38.812149497534726,113
63,CDISCPILOT01,01-701-1015,LB,Placebo,Placebo,2014-01-02,2014-07-02,2013-12-26,-7,Baseline,0,Albumin (g/L),ALB,1,CHEMISTRY,SI,38,,33,49,1,ALB,Albumin,CHEMISTRY,3.8,g/dL,3.3,4.9,38,38,g/L,33,49,NORMAL,Y,Y,1,SCREENING 1,-7,2013-12-26T14:45,-7,38.10500234952369,99
64,CDISCPILOT01,01-701-1023,LB,Placebo,Placebo,2012-08-05,2012-09-01,2012-07-22,-14,Baseline,0,Albumin (g/L),ALB,1,CHEMISTRY,SI,40,,33,49,1,ALB,Albumin,CHEMISTRY,4.0,g/dL,3.3,4.9,40,40,g/L,33,49,NORMAL,Y,Y,1,SCREENING 1,-7,2012-07-22T12:13,-14,38.55257168866636,106
65,CDISCPILOT01,01-701-1028,LB,Insulin,Insulin,2013-07-19,2014-01-14,2013-07-11,-8,Baseline,0,Albumin (g/L),ALB,1,CHEMISTRY,SI,44,,35,46,1,ALB,Albumin,CHEMISTRY,4.4,g/dL,3.5,4.6,44,44,g/L,35,46,NORMAL,Y,Y,1,SCREENING 1,-7,2013-07-11T12:02,-8,37.63300502353547,105
66,CDISCPILOT01,01-701-1033,LB,Insulin,Insulin,2014-03-18,2014-03-31,2014-03-10,-8,Baseline,0,Albumin (g/L),ALB,1,CHEMISTRY,SI,38,,35,46,1,ALB,Albumin,CHEMISTRY,3.8,g/dL,3.5,4.6,38,38,g/L,35,46,NORMAL,Y,Y,1,SCREENING 1,-7,2014-03-10T12:31,-8,40.78673289536933,108
67,CDISCPILOT01,01-701-1034,LB,Insulin,Insulin,2014-07-01,2014-12-30,2014-06-24,-7,Baseline,0,Albumin (g/L),ALB,1,CHEMISTRY,SI,43,,35,46,1,ALB,Albumin,CHEMISTRY,4.3,g/dL,3.5,4.6,43,43,g/L,35,46,NORMAL,Y,Y,1,SCREENING 1,-7,2014-06-24T15:30,-7,40.694041928563365,115
68,CDISCPILOT01,01-701-1015,LB,Placebo,Placebo,2014-01-02,2014-07-02,2013-12-26,-7,Baseline,0,Alkaline Phosphatase (U/L),ALKPH,2,CHEMISTRY,SI,34,,35,115,2,ALP,Alkaline Phosphatase,CHEMISTRY,34,U/L,35,115,34,34,U/L,35,115,LOW,Y,Y,1,SCREENING 1,-7,2013-12-26T14:45,-7,38.10500234952369,99
69,CDISCPILOT01,01-701-1023,LB,Placebo,Placebo,2012-08-05,2012-09-01,2012-07-22,-14,Baseline,0,Alkaline Phosphatase (U/L),ALKPH,2,CHEMISTRY,SI,98,,35,115,2,ALP,Alkaline Phosphatase,CHEMISTRY,98,U/L,35,115,98,98,U/L,35,115,NORMAL,Y,Y,1,SCREENING 1,-7,2012-07-22T12:13,-14,38.55257168866636,106
70,CDISCPILOT01,01-701-1028,LB,Insulin,Insulin,2013-07-19,2014-01-14,2013-07-11,-8,Baseline,0,Alkaline Phosphatase (U/L),ALKPH,2,CHEMISTRY,SI,44,,35,115,2,ALP,Alkaline Phosphatase,CHEMISTRY,44,U/L,35,115,44,44,U/L,35,115,NORMAL,Y,Y,1,SCREENING 1,-7,2013-07-11T12:02,-8,37.63300502353547,105
71,CDISCPILOT01,01-701-1033,LB,Insulin,Insulin,2014-03-18,2014-03-31,2014-03-10,-8,Baseline,0,Alkaline Phosphatase (U/L),ALKPH,2,CHEMISTRY,SI,67,,35,115,2,ALP,Alkaline Phosphatase,CHEMISTRY,67,U/L,35,115,67,67,U/L,35,115,NORMAL,Y,Y,1,SCREENING 1,-7,2014-03-10T12:31,-8,40.78673289536933,108
72,CDISCPILOT01,01-701-1034,LB,Insulin,Insulin,2014-07-01,2014-12-30,2014-06-24,-7,Baseline,0,Alkaline Phosphatase (U/L),ALKPH,2,CHEMISTRY,SI,41,,35,115,2,ALP,Alkaline Phosphatase,CHEMISTRY,41,U/L,35,115,41,41,U/L,35,115,NORMAL,Y,Y,1,SCREENING 1,-7,2014-06-24T15:30,-7,40.694041928563365,115
73,CDISCPILOT01,01-701-1015,LB,Placebo,Placebo,2014-01-02,2014-07-02,2013-12-26,-7,Baseline,0,Aspartate Aminotransferase (U/L),AST,3,CHEMISTRY,SI,40,,9,34,3,AST,Aspartate Aminotransferase,CHEMISTRY,40,U/L,9,34,40,40,U/L,9,34,HIGH,Y,Y,1,SCREENING 1,-7,2013-12-26T14:45,-7,38.10500234952369,99
74,CDISCPILOT01,01-701-1023,LB,Placebo,Placebo,2012-08-05,2012-09-01,2012-07-22,-14,Baseline,0,Aspartate Aminotransferase (U/L),AST,3,CHEMISTRY,SI,21,,11,36,3,AST,Aspartate Aminotransferase,CHEMISTRY,21,U/L,11,36,21,21,U/L,11,36,NORMAL,Y,Y,1,SCREENING 1,-7,2012-07-22T12:13,-14,38.55257168866636,106
75,CDISCPILOT01,01-701-1028,LB,Insulin,Insulin,2013-07-19,2014-01-14,2013-07-11,-8,Baseline,0,Aspartate Aminotransferase (U/L),AST,3,CHEMISTRY,SI,24,,11,36,3,AST,Aspartate Aminotransferase,CHEMISTRY,24,U/L,11,36,24,24,U/L,11,36,NORMAL,Y,Y,1,SCREENING 1,-7,2013-07-11T12:02,-8,37.63300502353547,105
76,CDISCPILOT01,01-701-1033,LB,Insulin,Insulin,2014-03-18,2014-03-31,2014-03-10,-8,Baseline,0,Aspartate Aminotransferase (U/L),AST,3,CHEMISTRY,SI,20,,11,36,3,AST,Aspartate Aminotransferase,CHEMISTRY,20,U/L,11,36,20,20,U/L,11,36,NORMAL,Y,Y,1,SCREENING 1,-7,2014-03-10T12:31,-8,40.78673289536933,108
77,CDISCPILOT01,01-701-1034,LB,Insulin,Insulin,2014-07-01,2014-12-30,2014-06-24,-7,Baseline,0,Aspartate Aminotransferase (U/L),AST,3,CHEMISTRY,SI,23,,9,34,3,AST,Aspartate Aminotransferase,CHEMISTRY,23,U/L,9,34,23,23,U/L,9,34,NORMAL,Y,Y,1,SCREENING 1,-7,2014-06-24T15:30,-7,40.694041928563365,115
78,CDISCPILOT01,01-701-1015,LB,Placebo,Placebo,2014-01-02,2014-07-02,2013-12-26,-7,Baseline,0,Cholesterol (mmol/L),CHOLES,4,CHEMISTRY,SI,5.9478,,4.029999999999999,7.76,4,CHOL,Cholesterol,CHEMISTRY,230,mg/dL,156,300,5.9478,5.9478,mmol/L,4.029999999999999,7.76,NORMAL,Y,Y,1,SCREENING 1,-7,2013-12-26T14:45,-7,38.10500234952369,99
79,CDISCPILOT01,01-701-1023,LB,Placebo,Placebo,2012-08-05,2012-09-01,2012-07-22,-14,Baseline,0,Cholesterol (mmol/L),CHOLES,4,CHEMISTRY,SI,6.77532,,3.85,7.3999999999999995,4,CHOL,Cholesterol,CHEMISTRY,262,mg/dL,149,286,6.77532,6.77532,mmol/L,3.85,7.3999999999999995,NORMAL,Y,Y,1,SCREENING 1,-7,2012-07-22T12:13,-14,38.55257168866636,106
80,CDISCPILOT01,01-701-1028,LB,Insulin,Insulin,2013-07-19,2014-01-14,2013-07-11,-8,Baseline,0,Cholesterol (mmol/L),CHOLES,4,CHEMISTRY,SI,4.809959999999999,,3.85,7.3999999999999995,4,CHOL,Cholesterol,CHEMISTRY,186,mg/dL,149,286,4.80996,4.809959999999999,mmol/L,3.85,7.3999999999999995,NORMAL,Y,Y,1,SCREENING 1,-7,2013-07-11T12:02,-8,37.63300502353547,105
81,CDISCPILOT01,01-701-1033,LB,Insulin,Insulin,2014-03-18,2014-03-31,2014-03-10,-8,Baseline,0,Cholesterol (mmol/L),CHOLES,4,CHEMISTRY,SI,4.93926,,3.85,7.3999999999999995,4,CHOL,Cholesterol,CHEMISTRY,191,mg/dL,149,286,4.93926,4.93926,mmol/L,3.85,7.3999999999999995,NORMAL,Y,Y,1,SCREENING 1,-7,2014-03-10T12:31,-8,40.78673289536933,108
82,CDISCPILOT01,01-701-1034,LB,Insulin,Insulin,2014-07-01,2014-12-30,2014-06-24,-7,Baseline,0,Cholesterol (mmol/L),CHOLES,4,CHEMISTRY,SI,7.70628,,4.029999999999999,7.76,4,CHOL,Cholesterol,CHEMISTRY,298,mg/dL,156,300,7.70628,7.70628,mmol/L,4.029999999999999,7.76,NORMAL,Y,Y,1,SCREENING 1,-7,2014-06-24T15:30,-7,40.694041928563365,115
83,CDISCPILOT01,01-701-1015,LB,Placebo,Placebo,2014-01-02,2014-07-02,2013-12-26,-7,Baseline,0,Gamma Glutamyl Transferase (U/L),GGT,5,CHEMISTRY,SI,15,,5,50,5,GGT,Gamma Glutamyl Transferase,CHEMISTRY,15,U/L,5,50,15,15,U/L,5,50,NORMAL,Y,Y,1,SCREENING 1,-7,2013-12-26T14:45,-7,38.10500234952369,99
84,CDISCPILOT01,01-701-1023,LB,Placebo,Placebo,2012-08-05,2012-09-01,2012-07-22,-14,Baseline,0,Gamma Glutamyl Transferase (U/L),GGT,5,CHEMISTRY,SI,18,,10,50,5,GGT,Gamma Glutamyl Transferase,CHEMISTRY,18,U/L,10,50,18,18,U/L,10,50,NORMAL,Y,Y,1,SCREENING 1,-7,2012-07-22T12:13,-14,38.55257168866636,106
85,CDISCPILOT01,01-701-1028,LB,Insulin,Insulin,2013-07-19,2014-01-14,2013-07-11,-8,Baseline,0,Gamma Glutamyl Transferase (U/L),GGT,5,CHEMISTRY,SI,24,,10,50,5,GGT,Gamma Glutamyl Transferase,CHEMISTRY,24,U/L,10,50,24,24,U/L,10,50,NORMAL,Y,Y,1,SCREENING 1,-7,2013-07-11T12:02,-8,37.63300502353547,105
86,CDISCPILOT01,01-701-1033,LB,Insulin,Insulin,2014-03-18,2014-03-31,2014-03-10,-8,Baseline,0,Gamma Glutamyl Transferase (U/L),GGT,5,CHEMISTRY,SI,21,,10,50,5,GGT,Gamma Glutamyl Transferase,CHEMISTRY,21,U/L,10,50,21,21,U/L,10,50,NORMAL,Y,Y,1,SCREENING 1,-7,2014-03-10T12:31,-8,40.78673289536933,108
87,CDISCPILOT01,01-701-1034,LB,Insulin,Insulin,2014-07-01,2014-12-30,2014-06-24,-7,Baseline,0,Gamma Glutamyl Transferase (U/L),GGT,5,CHEMISTRY,SI,20,,5,50,5,GGT,Gamma Glutamyl Transferase,CHEMISTRY,20,U/L,5,50,20,20,U/L,5,50,NORMAL,Y,Y,1,SCREENING 1,-7,2014-06-24T15:30,-7,40.694041928563365,115
88,CDISCPILOT01,01-701-1015,LB,Placebo,Placebo,2014-01-02,2014-07-02,2013-12-26,-7,Baseline,0,Glucose (mmol/L),GLUC,6,CHEMISTRY,SI,4.71835,,2.8,13.899999999999999,6,GLUC,Glucose,CHEMISTRY,85,mg/dL,50,250,4.71835,4.71835,mmol/L,2.8,13.899999999999999,NORMAL,Y,Y,1,SCREENING 1,-7,2013-12-26T14:45,-7,38.10500234952369,99
89,CDISCPILOT01,01-701-1023,LB,Placebo,Placebo,2012-08-05,2012-09-01,2012-07-22,-14,Baseline,0,Glucose (mmol/L),GLUC,6,CHEMISTRY,SI,5.3289599999999995,,2.8,13.899999999999999,6,GLUC,Glucose,CHEMISTRY,96,mg/dL,50,250,5.32896,5.3289599999999995,mmol/L,2.8,13.899999999999999,NORMAL,Y,Y,1,SCREENING 1,-7,2012-07-22T12:13,-14,38.55257168866636,106
90,CDISCPILOT01,01-701-1028,LB,Insulin,Insulin,2013-07-19,2014-01-14,2013-07-11,-8,Baseline,0,Glucose (mmol/L),GLUC,6,CHEMISTRY,SI,4.77386,,2.8,13.899999999999999,6,GLUC,Glucose,CHEMISTRY,86,mg/dL,50,250,4.77386,4.77386,mmol/L,2.8,13.899999999999999,NORMAL,Y,Y,1,SCREENING 1,-7,2013-07-11T12:02,-8,37.63300502353547,105
91,CDISCPILOT01,01-701-1033,LB,Insulin,Insulin,2014-03-18,2014-03-31,2014-03-10,-8,Baseline,0,Glucose (mmol/L),GLUC,6,CHEMISTRY,SI,4.9959,,2.8,13.899999999999999,6,GLUC,Glucose,CHEMISTRY,90,mg/dL,50,250,4.9959,4.9959,mmol/L,2.8,13.899999999999999,NORMAL,Y,Y,1,SCREENING 1,-7,2014-03-10T12:31,-8,40.78673289536933,108
92,CDISCPILOT01,01-701-1034,LB,Insulin,Insulin,2014-07-01,2014-12-30,2014-06-24,-7,Baseline,0,Glucose (mmol/L),GLUC,6,CHEMISTRY,SI,4.496309999999999,,2.8,13.899999999999999,6,GLUC,Glucose,CHEMISTRY,81,mg/dL,50,250,4.49631,4.496309999999999,mmol/L,2.8,13.899999999999999,NORMAL,Y,Y,1,SCREENING 1,-7,2014-06-24T15:30,-7,40.694041928563365,115
93,CDISCPILOT01,01-701-1015,LB,Placebo,Placebo,2014-01-02,2014-07-02,2013-12-26,-7,Baseline,0,Hemoglobin A1C/Hemoglobin (mmol/mol),HBA1CHGB,7,CHEMISTRY,SI,62.841750000000005,,20.21865,38.79795000000001,7,HBA1CHGB,Hemoglobin A1C/Hemoglobin,CHEMISTRY,7.9,%,4.0,5.7,62.84175,62.841750000000005,mmol/mol,20.21865,38.79795000000001,HIGH,Y,Y,1,SCREENING 1,-7,2013-12-26T14:45,-7,38.10500234952369,99
94,CDISCPILOT01,01-701-1023,LB,Placebo,Placebo,2012-08-05,2012-09-01,2012-07-22,-14,Baseline,0,Hemoglobin A1C/Hemoglobin (mmol/mol),HBA1CHGB,7,CHEMISTRY,SI,35.51925000000001,,20.21865,38.79795000000001,7,HBA1CHGB,Hemoglobin A1C/Hemoglobin,CHEMISTRY,5.4,%,4.0,5.7,35.51925,35.51925000000001,mmol/mol,20.21865,38.79795000000001,NORMAL,Y,Y,1,SCREENING 1,-7,2012-07-22T12:13,-14,38.55257168866636,106
95,CDISCPILOT01,01-701-1028,LB,Insulin,Insulin,2013-07-19,2014-01-14,2013-07-11,-8,Baseline,0,Hemoglobin A1C/Hemoglobin (mmol/mol),HBA1CHGB,7,CHEMISTRY,SI,31.147650000000002,,20.21865,38.79795000000001,7,HBA1CHGB,Hemoglobin A1C/Hemoglobin,CHEMISTRY,5,%,4.0,5.7,31.14765,31.147650000000002,mmol/mol,20.21865,38.79795000000001,NORMAL,Y,Y,1,SCREENING 1,-7,2013-07-11T12:02,-8,37.63300502353547,105
96,CDISCPILOT01,01-701-1033,LB,Insulin,Insulin,2014-03-18,2014-03-31,2014-03-10,-8,Baseline,0,Hemoglobin A1C/Hemoglobin (mmol/mol),HBA1CHGB,7,CHEMISTRY,SI,43.16955,,20.21865,38.79795000000001,7,HBA1CHGB,Hemoglobin A1C/Hemoglobin,CHEMISTRY,6.1,%,4.0,5.7,43.16955,43.16955,mmol/mol,20.21865,38.79795000000001,HIGH,Y,Y,1,SCREENING 1,-7,2014-03-10T12:31,-8,40.78673289536933,108
97,CDISCPILOT01,01-701-1034,LB,Insulin,Insulin,2014-07-01,2014-12-30,2014-06-24,-7,Baseline,0,Hemoglobin A1C/Hemoglobin (mmol/mol),HBA1CHGB,7,CHEMISTRY,SI,27.868950000000005,,20.21865,38.79795000000001,7,HBA1CHGB,Hemoglobin A1C/Hemoglobin,CHEMISTRY,4.7,%,4.0,5.7,27.86895,27.868950000000005,mmol/mol,20.21865,38.79795000000001,NORMAL,Y,Y,1,SCREENING 1,-7,2014-06-24T15:30,-7,40.694041928563365,115
98,CDISCPILOT01,01-701-1015,LB,Placebo,Placebo,2014-01-02,2014-07-02,2014-03-26,84,Week 12,12,Albumin (g/L),ALB,1,CHEMISTRY,SI,38,,33,49,10,ALB,Albumin,CHEMISTRY,3.8,g/dL,3.3,4.9,38,38,g/L,33,49,NORMAL,,Y,9,WEEK 12,84,2014-03-26T15:15,84,38.95937459951301,102
99,CDISCPILOT01,01-701-1028,LB,Insulin,Insulin,2013-07-19,2014-01-14,2013-10-09,83,Week 12,12,Albumin (g/L),ALB,1,CHEMISTRY,SI,44,,35,46,10,ALB,Albumin,CHEMISTRY,4.4,g/dL,3.5,4.6,44,44,g/L,35,46,NORMAL,,Y,9,WEEK 12,84,2013-10-09T08:42,83,35.33483643843203,99.4
100,CDISCPILOT01,01-701-1034,LB,Insulin,Insulin,2014-07-01,2014-12-30,2014-09-25,87,Week 12,12,Albumin (g/L),ALB,1,CHEMISTRY,SI,39,,35,46,10,ALB,Albumin,CHEMISTRY,3.9,g/dL,3.5,4.6,39,39,g/L,35,46,NORMAL,,Y,9,WEEK 12,84,2014-09-25T15:40,87,37.67925025405548,110
101,CDISCPILOT01,01-701-1015,LB,Placebo,Placebo,2014-01-02,2014-07-02,2014-03-26,84,Week 12,12,Alkaline Phosphatase (U/L),ALKPH,2,CHEMISTRY,SI,53,,35,115,11,ALP,Alkaline Phosphatase,CHEMISTRY,53,U/L,35,115,53,53,U/L,35,115,NORMAL,,Y,9,WEEK 12,84,2014-03-26T15:15,84,38.95937459951301,102
102,CDISCPILOT01,01-701-1028,LB,Insulin,Insulin,2013-07-19,2014-01-14,2013-10-09,83,Week 12,12,Alkaline Phosphatase (U/L),ALKPH,2,CHEMISTRY,SI,41,,35,115,11,ALP,Alkaline Phosphatase,CHEMISTRY,41,U/L,35,115,41,41,U/L,35,115,NORMAL,,Y,9,WEEK 12,84,2013-10-09T08:42,83,35.33483643843203,99.4
103,CDISCPILOT01,01-701-1034,LB,Insulin,Insulin,2014-07-01,2014-12-30,2014-09-25,87,Week 12,12,Alkaline Phosphatase (U/L),ALKPH,2,CHEMISTRY,SI,34,,35,115,11,ALP,Alkaline Phosphatase,CHEMISTRY,34,U/L,35,115,34,34,U/L,35,115,LOW,,Y,9,WEEK 12,84,2014-09-25T15:40,87,37.67925025405548,110
104,CDISCPILOT01,01-701-1015,LB,Placebo,Placebo,2014-01-02,2014-07-02,2014-03-26,84,Week 12,12,Aspartate Aminotransferase (U/L),AST,3,CHEMISTRY,SI,22,,9,34,12,AST,Aspartate Aminotransferase,CHEMISTRY,22,U/L,9,34,22,22,U/L,9,34,NORMAL,,Y,9,WEEK 12,84,2014-03-26T15:15,84,38.95937459951301,102
105,CDISCPILOT01,01-701-1028,LB,Insulin,Insulin,2013-07-19,2014-01-14,2013-10-09,83,Week 12,12,Aspartate Aminotransferase (U/L),AST,3,CHEMISTRY,SI,28,,11,36,12,AST,Aspartate Aminotransferase,CHEMISTRY,28,U/L,11,36,28,28,U/L,11,36,NORMAL,,Y,9,WEEK 12,84,2013-10-09T08:42,83,35.33483643843203,99.4
106,CDISCPILOT01,01-701-1034,LB,Insulin,Insulin,2014-07-01,2014-12-30,2014-09-25,87,Week 12,12,Aspartate Aminotransferase (U/L),AST,3,CHEMISTRY,SI,23,,9,34,12,AST,Aspartate Aminotransferase,CHEMISTRY,23,U/L,9,34,23,23,U/L,9,34,NORMAL,,Y,9,WEEK 12,84,2014-09-25T15:40,87,37.67925025405548,110
107,CDISCPILOT01,01-701-1015,LB,Placebo,Placebo,2014-01-02,2014-07-02,2014-03-26,84,Week 12,12,Cholesterol (mmol/L),CHOLES,4,CHEMISTRY,SI,5.63748,,4.029999999999999,7.76,13,CHOL,Cholesterol,CHEMISTRY,218,mg/dL,156,300,5.63748,5.63748,mmol/L,4.029999999999999,7.76,NORMAL,,Y,9,WEEK 12,84,2014-03-26T15:15,84,38.95937459951301,102
108,CDISCPILOT01,01-701-1028,LB,Insulin,Insulin,2013-07-19,2014-01-14,2013-10-09,83,Week 12,12,Cholesterol (mmol/L),CHOLES,4,CHEMISTRY,SI,5.06856,,3.85,7.3999999999999995,13,CHOL,Cholesterol,CHEMISTRY,196,mg/dL,149,286,5.06856,5.06856,mmol/L,3.85,7.3999999999999995,NORMAL,,Y,9,WEEK 12,84,2013-10-09T08:42,83,35.33483643843203,99.4
109,CDISCPILOT01,01-701-1034,LB,Insulin,Insulin,2014-07-01,2014-12-30,2014-09-25,87,Week 12,12,Cholesterol (mmol/L),CHOLES,4,CHEMISTRY,SI,6.74946,,4.029999999999999,7.76,13,CHOL,Cholesterol,CHEMISTRY,261,mg/dL,156,300,6.74946,6.74946,mmol/L,4.029999999999999,7.76,NORMAL,,Y,9,WEEK 12,84,2014-09-25T15:40,87,37.67925025405548,110
110,CDISCPILOT01,01-701-1015,LB,Placebo,Placebo,2014-01-02,2014-07-02,2014-03-26,84,Week 12,12,Gamma Glutamyl Transferase (U/L),GGT,5,CHEMISTRY,SI,23,,5,50,14,GGT,Gamma Glutamyl Transferase,CHEMISTRY,23,U/L,5,50,23,23,U/L,5,50,NORMAL,,Y,9,WEEK 12,84,2014-03-26T15:15,84,38.95937459951301,102
111,CDISCPILOT01,01-701-1028,LB,Insulin,Insulin,2013-07-19,2014-01-14,2013-10-09,83,Week 12,12,Gamma Glutamyl Transferase (U/L),GGT,5,CHEMISTRY,SI,23,,10,50,14,GGT,Gamma Glutamyl Transferase,CHEMISTRY,23,U/L,10,50,23,23,U/L,10,50,NORMAL,,Y,9,WEEK 12,84,2013-10-09T08:42,83,35.33483643843203,99.4
112,CDISCPILOT01,01-701-1034,LB,Insulin,Insulin,2014-07-01,2014-12-30,2014-09-25,87,Week 12,12,Gamma Glutamyl Transferase (U/L),GGT,5,CHEMISTRY,SI,14,,5,50,14,GGT,Gamma Glutamyl Transferase,CHEMISTRY,14,U/L,5,50,14,14,U/L,5,50,NORMAL,,Y,9,WEEK 12,84,2014-09-25T15:40,87,37.67925025405548,110
113,CDISCPILOT01,01-701-1015,LB,Placebo,Placebo,2014-01-02,2014-07-02,2014-03-26,84,Week 12,12,Glucose (mmol/L),GLUC,6,CHEMISTRY,SI,4.82937,,2.8,13.899999999999999,15,GLUC,Glucose,CHEMISTRY,87,mg/dL,50,250,4.82937,4.82937,mmol/L,2.8,13.899999999999999,NORMAL,,Y,9,WEEK 12,84,2014-03-26T15:15,84,38.95937459951301,102
114,CDISCPILOT01,01-701-1028,LB,Insulin,Insulin,2013-07-19,2014-01-14,2013-10-09,83,Week 12,12,Glucose (mmol/L),GLUC,6,CHEMISTRY,SI,4.82937,,2.8,13.899999999999999,15,GLUC,Glucose,CHEMISTRY,87,mg/dL,50,250,4.82937,4.82937,mmol/L,2.8,13.899999999999999,NORMAL,,Y,9,WEEK 12,84,2013-10-09T08:42,83,35.33483643843203,99.4
115,CDISCPILOT01,01-701-1034,LB,Insulin,Insulin,2014-07-01,2014-12-30,2014-09-25,87,Week 12,12,Glucose (mmol/L),GLUC,6,CHEMISTRY,SI,5.05141,,2.8,13.899999999999999,15,GLUC,Glucose,CHEMISTRY,91,mg/dL,50,250,5.05141,5.05141,mmol/L,2.8,13.899999999999999,NORMAL,,Y,9,WEEK 12,84,2014-09-25T15:40,87,37.67925025405548,110
116,CDISCPILOT01,01-701-1015,LB,Placebo,Placebo,2014-01-02,2014-07-02,2014-03-26,84,Week 12,12,Hemoglobin A1C/Hemoglobin (mmol/mol),HBA1CHGB,7,CHEMISTRY,SI,51.91275,,20.21865,38.79795000000001,16,HBA1CHGB,Hemoglobin A1C/Hemoglobin,CHEMISTRY,6.9,%,4.0,5.7,51.91275,51.91275,mmol/mol,20.21865,38.79795000000001,HIGH,,Y,9,WEEK 12,84,2014-03-26T15:15,84,38.95937459951301,102
117,CDISCPILOT01,01-701-1028,LB,Insulin,Insulin,2013-07-19,2014-01-14,2013-10-09,83,Week 12,12,Hemoglobin A1C/Hemoglobin (mmol/mol),HBA1CHGB,7,CHEMISTRY,SI,65.02754999999999,,20.21865,38.79795000000001,16,HBA1CHGB,Hemoglobin A1C/Hemoglobin,CHEMISTRY,8.1,%,4.0,5.7,65.02755,65.02754999999999,mmol/mol,20.21865,38.79795000000001,HIGH,,Y,9,WEEK 12,84,2013-10-09T08:42,83,35.33483643843203,99.4
118,CDISCPILOT01,01-701-1034,LB,Insulin,Insulin,2014-07-01,2014-12-30,2014-09-25,87,Week 12,12,Hemoglobin A1C/Hemoglobin (mmol/mol),HBA1CHGB,7,CHEMISTRY,SI,37.70505,,20.21865,38.79795000000001,16,HBA1CHGB,Hemoglobin A1C/Hemoglobin,CHEMISTRY,5.6,%,4.0,5.7,37.70505,37.70505,mmol/mol,20.21865,38.79795000000001,NORMAL,,Y,9,WEEK 12,84,2014-09-25T15:40,87,37.67925025405548,110
119,CDISCPILOT01,01-701-1015,LB,Placebo,Placebo,2014-01-02,2014-07-02,2014-05-07,126,Week 16,16,Albumin (g/L),ALB,1,CHEMISTRY,SI,37,,33,49,19,ALB,Albumin,CHEMISTRY,3.7,g/dL,3.3,4.9,37,37,g/L,33,49,NORMAL,,Y,10,WEEK 16,112,2014-05-07T11:21,126,38.57917894826776,102.5
120,CDISCPILOT01,01-701-1028,LB,Insulin,Insulin,2013-07-19,2014-01-14,2013-11-06,111,Week 16,16,Albumin (g/L),ALB,1,CHEMISTRY,SI,37,,35,46,19,ALB,Albumin,CHEMISTRY,3.7,g/dL,3.5,4.6,37,37,g/L,35,46,NORMAL,,Y,10,WEEK 16,112,2013-11-06T10:08,111,35.133103912028794,99
121,CDISCPILOT01,01-701-1034,LB,Insulin,Insulin,2014-07-01,2014-12-30,2014-10-21,113,Week 16,16,Albumin (g/L),ALB,1,CHEMISTRY,SI,39,,35,46,19,ALB,Albumin,CHEMISTRY,3.9,g/dL,3.5,4.6,39,39,g/L,35,46,NORMAL,,Y,10,WEEK 16,112,2014-10-21T09:52,113,36.66679212616207,109.2
122,CDISCPILOT01,01-701-1015,LB,Placebo,Placebo,2014-01-02,2014-07-02,2014-05-07,126,Week 16,16,Alkaline Phosphatase (U/L),ALKPH,2,CHEMISTRY,SI,41,,35,115,20,ALP,Alkaline Phosphatase,CHEMISTRY,41,U/L,35,115,41,41,U/L,35,115,NORMAL,,Y,10,WEEK 16,112,2014-05-07T11:21,126,38.57917894826776,102.5
123,CDISCPILOT01,01-701-1028,LB,Insulin,Insulin,2013-07-19,2014-01-14,2013-11-06,111,Week 16,16,Alkaline Phosphatase (U/L),ALKPH,2,CHEMISTRY,SI,36,,35,115,20,ALP,Alkaline Phosphatase,CHEMISTRY,36,U/L,35,115,36,36,U/L,35,115,NORMAL,,Y,10,WEEK 16,112,2013-11-06T10:08,111,35.133103912028794,99
124,CDISCPILOT01,01-701-1034,LB,Insulin,Insulin,2014-07-01,2014-12-30,2014-10-21,113,Week 16,16,Alkaline Phosphatase (U/L),ALKPH,2,CHEMISTRY,SI,34,,35,115,20,ALP,Alkaline Phosphatase,CHEMISTRY,34,U/L,35,115,34,34,U/L,35,115,LOW,,Y,10,WEEK 16,112,2014-10-21T09:52,113,36.66679212616207,109.2
125,CDISCPILOT01,01-701-1015,LB,Placebo,Placebo,2014-01-02,2014-07-02,2014-05-07,126,Week 16,16,Aspartate Aminotransferase (U/L),AST,3,CHEMISTRY,SI,23,,9,34,21,AST,Aspartate Aminotransferase,CHEMISTRY,23,U/L,9,34,23,23,U/L,9,34,NORMAL,,Y,10,WEEK 16,112,2014-05-07T11:21,126,38.57917894826776,102.5
126,CDISCPILOT01,01-701-1028,LB,Insulin,Insulin,2013-07-19,2014-01-14,2013-11-06,111,Week 16,16,Aspartate Aminotransferase (U/L),AST,3,CHEMISTRY,SI,18,,11,36,21,AST,Aspartate Aminotransferase,CHEMISTRY,18,U/L,11,36,18,18,U/L,11,36,NORMAL,,Y,10,WEEK 16,112,2013-11-06T10:08,111,35.133103912028794,99
127,CDISCPILOT01,01-701-1034,LB,Insulin,Insulin,2014-07-01,2014-12-30,2014-10-21,113,Week 16,16,Aspartate Aminotransferase (U/L),AST,3,CHEMISTRY,SI,21,,9,34,21,AST,Aspartate Aminotransferase,CHEMISTRY,21,U/L,9,34,21,21,U/L,9,34,NORMAL,,Y,10,WEEK 16,112,2014-10-21T09:52,113,36.66679212616207,109.2
128,CDISCPILOT01,01-701-1015,LB,Placebo,Placebo,2014-01-02,2014-07-02,2014-05-07,126,Week 16,16,Cholesterol (mmol/L),CHOLES,4,CHEMISTRY,SI,5.508179999999999,,4.029999999999999,7.76,22,CHOL,Cholesterol,CHEMISTRY,213,mg/dL,156,300,5.50818,5.508179999999999,mmol/L,4.029999999999999,7.76,NORMAL,,Y,10,WEEK 16,112,2014-05-07T11:21,126,38.57917894826776,102.5
129,CDISCPILOT01,01-701-1028,LB,Insulin,Insulin,2013-07-19,2014-01-14,2013-11-06,111,Week 16,16,Cholesterol (mmol/L),CHOLES,4,CHEMISTRY,SI,3.93072,,3.85,7.3999999999999995,22,CHOL,Cholesterol,CHEMISTRY,152,mg/dL,149,286,3.93072,3.93072,mmol/L,3.85,7.3999999999999995,NORMAL,,Y,10,WEEK 16,112,2013-11-06T10:08,111,35.133103912028794,99
130,CDISCPILOT01,01-701-1034,LB,Insulin,Insulin,2014-07-01,2014-12-30,2014-10-21,113,Week 16,16,Cholesterol (mmol/L),CHOLES,4,CHEMISTRY,SI,7.16322,,4.029999999999999,7.76,22,CHOL,Cholesterol,CHEMISTRY,277,mg/dL,156,300,7.16322,7.16322,mmol/L,4.029999999999999,7.76,NORMAL,,Y,10,WEEK 16,112,2014-10-21T09:52,113,36.66679212616207,109.2
131,CDISCPILOT01,01-701-1015,LB,Placebo,Placebo,2014-01-02,2014-07-02,2014-05-07,126,Week 16,16,Gamma Glutamyl Transferase (U/L),GGT,5,CHEMISTRY,SI,15,,5,50,23,GGT,Gamma Glutamyl Transferase,CHEMISTRY,15,U/L,5,50,15,15,U/L,5,50,NORMAL,,Y,10,WEEK 16,112,2014-05-07T11:21,126,38.57917894826776,102.5
132,CDISCPILOT01,01-701-1028,LB,Insulin,Insulin,2013-07-19,2014-01-14,2013-11-06,111,Week 16,16,Gamma Glutamyl Transferase (U/L),GGT,5,CHEMISTRY,SI,19,,10,50,23,GGT,Gamma Glutamyl Transferase,CHEMISTRY,19,U/L,10,50,19,19,U/L,10,50,NORMAL,,Y,10,WEEK 16,112,2013-11-06T10:08,111,35.133103912028794,99
133,CDISCPILOT01,01-701-1034,LB,Insulin,Insulin,2014-07-01,2014-12-30,2014-10-21,113,Week 16,16,Gamma Glutamyl Transferase (U/L),GGT,5,CHEMISTRY,SI,18,,5,50,23,GGT,Gamma Glutamyl Transferase,CHEMISTRY,18,U/L,5,50,18,18,U/L,5,50,NORMAL,,Y,10,WEEK 16,112,2014-10-21T09:52,113,36.66679212616207,109.2
134,CDISCPILOT01,01-701-1015,LB,Placebo,Placebo,2014-01-02,2014-07-02,2014-05-07,126,Week 16,16,Glucose (mmol/L),GLUC,6,CHEMISTRY,SI,4.77386,,2.8,13.899999999999999,24,GLUC,Glucose,CHEMISTRY,86,mg/dL,50,250,4.77386,4.77386,mmol/L,2.8,13.899999999999999,NORMAL,,Y,10,WEEK 16,112,2014-05-07T11:21,126,38.57917894826776,102.5
135,CDISCPILOT01,01-701-1028,LB,Insulin,Insulin,2013-07-19,2014-01-14,2013-11-06,111,Week 16,16,Glucose (mmol/L),GLUC,6,CHEMISTRY,SI,4.82937,,2.8,13.899999999999999,24,GLUC,Glucose,CHEMISTRY,87,mg/dL,50,250,4.82937,4.82937,mmol/L,2.8,13.899999999999999,NORMAL,,Y,10,WEEK 16,112,2013-11-06T10:08,111,35.133103912028794,99
136,CDISCPILOT01,01-701-1034,LB,Insulin,Insulin,2014-07-01,2014-12-30,2014-10-21,113,Week 16,16,Glucose (mmol/L),GLUC,6,CHEMISTRY,SI,5.10692,,2.8,13.899999999999999,24,GLUC,Glucose,CHEMISTRY,92,mg/dL,50,250,5.10692,5.10692,mmol/L,2.8,13.899999999999999,NORMAL,,Y,10,WEEK 16,112,2014-10-21T09:52,113,36.66679212616207,109.2
137,CDISCPILOT01,01-701-1015,LB,Placebo,Placebo,2014-01-02,2014-07-02,2014-05-07,126,Week 16,16,Hemoglobin A1C/Hemoglobin (mmol/mol),HBA1CHGB,7,CHEMISTRY,SI,33.333450000000006,,20.21865,38.79795000000001,25,HBA1CHGB,Hemoglobin A1C/Hemoglobin,CHEMISTRY,5.2,%,4.0,5.7,33.33345,33.333450000000006,mmol/mol,20.21865,38.79795000000001,NORMAL,,Y,10,WEEK 16,112,2014-05-07T11:21,126,38.57917894826776,102.5
138,CDISCPILOT01,01-701-1028,LB,Insulin,Insulin,2013-07-19,2014-01-14,2013-11-06,111,Week 16,16,Hemoglobin A1C/Hemoglobin (mmol/mol),HBA1CHGB,7,CHEMISTRY,SI,61.748850000000004,,20.21865,38.79795000000001,25,HBA1CHGB,Hemoglobin A1C/Hemoglobin,CHEMISTRY,7.8,%,4.0,5.7,61.74885,61.748850000000004,mmol/mol,20.21865,38.79795000000001,HIGH,,Y,10,WEEK 16,112,2013-11-06T10:08,111,35.133103912028794,99
139,CDISCPILOT01,01-701-1034,LB,Insulin,Insulin,2014-07-01,2014-12-30,2014-10-21,113,Week 16,16,Hemoglobin A1C/Hemoglobin (mmol/mol),HBA1CHGB,7,CHEMISTRY,SI,39.89085,,20.21865,38.79795000000001,25,HBA1CHGB,Hemoglobin A1C/Hemoglobin,CHEMISTRY,5.8,%,4.0,5.7,39.89085,39.89085,mmol/mol,20.21865,38.79795000000001,HIGH,,Y,10,WEEK 16,112,2014-10-21T09:52,113,36.66679212616207,109.2
140,CDISCPILOT01,01-701-1015,LB,Placebo,Placebo,2014-01-02,2014-07-02,2014-01-16,15,Week 2,2,Albumin (g/L),ALB,1,CHEMISTRY,SI,39,,33,49,28,ALB,Albumin,CHEMISTRY,3.9,g/dL,3.3,4.9,39,39,g/L,33,49,NORMAL,,Y,4,WEEK 2,14,2014-01-16T13:17,15,38.53218847451835,100
141,CDISCPILOT01,01-701-1023,LB,Placebo,Placebo,2012-08-05,2012-09-01,2012-08-27,23,Week 2,2,Albumin (g/L),ALB,1,CHEMISTRY,SI,36,,33,49,10,ALB,Albumin,CHEMISTRY,3.6,g/dL,3.3,4.9,36,36,g/L,33,49,NORMAL,,Y,4,WEEK 2,14,2012-08-27T15:47,23,38.972725044641294,107.8
142,CDISCPILOT01,01-701-1028,LB,Insulin,Insulin,2013-07-19,2014-01-14,2013-08-01,14,Week 2,2,Albumin (g/L),ALB,1,CHEMISTRY,SI,42,,35,46,28,ALB,Albumin,CHEMISTRY,4.2,g/dL,3.5,4.6,42,42,g/L,35,46,NORMAL,,Y,4,WEEK 2,14,2013-08-01T09:15,14,37.273050907796375,104
143,CDISCPILOT01,01-701-1033,LB,Insulin,Insulin,2014-03-18,2014-03-31,2014-04-01,15,Week 2,2,Albumin (g/L),ALB,1,CHEMISTRY,SI,41,,35,46,10,ALB,Albumin,CHEMISTRY,4.1,g/dL,3.5,4.6,41,41,g/L,35,46,NORMAL,,Y,4,WEEK 2,14,2014-04-01T08:55,15,40.31405223521872,107
144,CDISCPILOT01,01-701-1034,LB,Insulin,Insulin,2014-07-01,2014-12-30,2014-07-15,15,Week 2,2,Albumin (g/L),ALB,1,CHEMISTRY,SI,42,,35,46,28,ALB,Albumin,CHEMISTRY,4.2,g/dL,3.5,4.6,42,42,g/L,35,46,NORMAL,,Y,4,WEEK 2,14,2014-07-15T09:25,15,39.674056230945844,114
145,CDISCPILOT01,01-701-1015,LB,Placebo,Placebo,2014-01-02,2014-07-02,2014-01-16,15,Week 2,2,Alkaline Phosphatase (U/L),ALKPH,2,CHEMISTRY,SI,50,,35,115,29,ALP,Alkaline Phosphatase,CHEMISTRY,50,U/L,35,115,50,50,U/L,35,115,NORMAL,,Y,4,WEEK 2,14,2014-01-16T13:17,15,38.53218847451835,100
146,CDISCPILOT01,01-701-1023,LB,Placebo,Placebo,2012-08-05,2012-09-01,2012-08-27,23,Week 2,2,Alkaline Phosphatase (U/L),ALKPH,2,CHEMISTRY,SI,90,,35,115,11,ALP,Alkaline Phosphatase,CHEMISTRY,90,U/L,35,115,90,90,U/L,35,115,NORMAL,,Y,4,WEEK 2,14,2012-08-27T15:47,23,38.972725044641294,107.8
147,CDISCPILOT01,01-701-1028,LB,Insulin,Insulin,2013-07-19,2014-01-14,2013-08-01,14,Week 2,2,Alkaline Phosphatase (U/L),ALKPH,2,CHEMISTRY,SI,46,,35,115,29,ALP,Alkaline Phosphatase,CHEMISTRY,46,U/L,35,115,46,46,U/L,35,115,NORMAL,,Y,4,WEEK 2,14,2013-08-01T09:15,14,37.273050907796375,104
148,CDISCPILOT01,01-701-1033,LB,Insulin,Insulin,2014-03-18,2014-03-31,2014-04-01,15,Week 2,2,Alkaline Phosphatase (U/L),ALKPH,2,CHEMISTRY,SI,89,,35,115,11,ALP,Alkaline Phosphatase,CHEMISTRY,89,U/L,35,115,89,89,U/L,35,115,NORMAL,,Y,4,WEEK 2,14,2014-04-01T08:55,15,40.31405223521872,107
149,CDISCPILOT01,01-701-1034,LB,Insulin,Insulin,2014-07-01,2014-12-30,2014-07-15,15,Week 2,2,Alkaline Phosphatase (U/L),ALKPH,2,CHEMISTRY,SI,34,,35,115,29,ALP,Alkaline Phosphatase,CHEMISTRY,34,U/L,35,115,34,34,U/L,35,115,LOW,,Y,4,WEEK 2,14,2014-07-15T09:25,15,39.674056230945844,114
150,CDISCPILOT01,01-701-1015,LB,Placebo,Placebo,2014-01-02,2014-07-02,2014-01-16,15,Week 2,2,Aspartate Aminotransferase (U/L),AST,3,CHEMISTRY,SI,33,,9,34,30,AST,Aspartate Aminotransferase,CHEMISTRY,33,U/L,9,34,33,33,U/L,9,34,NORMAL,,Y,4,WEEK 2,14,2014-01-16T13:17,15,38.53218847451835,100
151,CDISCPILOT01,01-701-1023,LB,Placebo,Placebo,2012-08-05,2012-09-01,2012-08-27,23,Week 2,2,Aspartate Aminotransferase (U/L),AST,3,CHEMISTRY,SI,25,,11,36,12,AST,Aspartate Aminotransferase,CHEMISTRY,25,U/L,11,36,25,25,U/L,11,36,NORMAL,,Y,4,WEEK 2,14,2012-08-27T15:47,23,38.972725044641294,107.8
152,CDISCPILOT01,01-701-1028,LB,Insulin,Insulin,2013-07-19,2014-01-14,2013-08-01,14,Week 2,2,Aspartate Aminotransferase (U/L),AST,3,CHEMISTRY,SI,23,,11,36,30,AST,Aspartate Aminotransferase,CHEMISTRY,23,U/L,11,36,23,23,U/L,11,36,NORMAL,,Y,4,WEEK 2,14,2013-08-01T09:15,14,37.273050907796375,104
153,CDISCPILOT01,01-701-1033,LB,Insulin,Insulin,2014-03-18,2014-03-31,2014-04-01,15,Week 2,2,Aspartate Aminotransferase (U/L),AST,3,CHEMISTRY,SI,26,,11,36,12,AST,Aspartate Aminotransferase,CHEMISTRY,26,U/L,11,36,26,26,U/L,11,36,NORMAL,,Y,4,WEEK 2,14,2014-04-01T08:55,15,40.31405223521872,107
154,CDISCPILOT01,01-701-1034,LB,Insulin,Insulin,2014-07-01,2014-12-30,2014-07-15,15,Week 2,2,Aspartate Aminotransferase (U/L),AST,3,CHEMISTRY,SI,23,,9,34,30,AST,Aspartate Aminotransferase,CHEMISTRY,23,U/L,9,34,23,23,U/L,9,34,NORMAL,,Y,4,WEEK 2,14,2014-07-15T09:25,15,39.674056230945844,114
155,CDISCPILOT01,01-701-1015,LB,Placebo,Placebo,2014-01-02,2014-07-02,2014-01-16,15,Week 2,2,Cholesterol (mmol/L),CHOLES,4,CHEMISTRY,SI,5.48232,,4.029999999999999,7.76,31,CHOL,Cholesterol,CHEMISTRY,212,mg/dL,156,300,5.48232,5.48232,mmol/L,4.029999999999999,7.76,NORMAL,,Y,4,WEEK 2,14,2014-01-16T13:17,15,38.53218847451835,100
156,CDISCPILOT01,01-701-1023,LB,Placebo,Placebo,2012-08-05,2012-09-01,2012-08-27,23,Week 2,2,Cholesterol (mmol/L),CHOLES,4,CHEMISTRY,SI,6.128819999999999,,3.85,7.3999999999999995,13,CHOL,Cholesterol,CHEMISTRY,237,mg/dL,149,286,6.12882,6.128819999999999,mmol/L,3.85,7.3999999999999995,NORMAL,,Y,4,WEEK 2,14,2012-08-27T15:47,23,38.972725044641294,107.8
157,CDISCPILOT01,01-701-1028,LB,Insulin,Insulin,2013-07-19,2014-01-14,2013-08-01,14,Week 2,2,Cholesterol (mmol/L),CHOLES,4,CHEMISTRY,SI,4.706519999999999,,3.85,7.3999999999999995,31,CHOL,Cholesterol,CHEMISTRY,182,mg/dL,149,286,4.70652,4.706519999999999,mmol/L,3.85,7.3999999999999995,NORMAL,,Y,4,WEEK 2,14,2013-08-01T09:15,14,37.273050907796375,104
158,CDISCPILOT01,01-701-1033,LB,Insulin,Insulin,2014-03-18,2014-03-31,2014-04-01,15,Week 2,2,Cholesterol (mmol/L),CHOLES,4,CHEMISTRY,SI,5.0944199999999995,,3.85,7.3999999999999995,13,CHOL,Cholesterol,CHEMISTRY,197,mg/dL,149,286,5.09442,5.0944199999999995,mmol/L,3.85,7.3999999999999995,NORMAL,,Y,4,WEEK 2,14,2014-04-01T08:55,15,40.31405223521872,107
159,CDISCPILOT01,01-701-1034,LB,Insulin,Insulin,2014-07-01,2014-12-30,2014-07-15,15,Week 2,2,Cholesterol (mmol/L),CHOLES,4,CHEMISTRY,SI,7.0080599999999995,,4.029999999999999,7.76,31,CHOL,Cholesterol,CHEMISTRY,271,mg/dL,156,300,7.00806,7.0080599999999995,mmol/L,4.029999999999999,7.76,NORMAL,,Y,4,WEEK 2,14,2014-07-15T09:25,15,39.674056230945844,114
160,CDISCPILOT01,01-701-1015,LB,Placebo,Placebo,2014-01-02,2014-07-02,2014-01-16,15,Week 2,2,Gamma Glutamyl Transferase (U/L),GGT,5,CHEMISTRY,SI,19,,5,50,32,GGT,Gamma Glutamyl Transferase,CHEMISTRY,19,U/L,5,50,19,19,U/L,5,50,NORMAL,,Y,4,WEEK 2,14,2014-01-16T13:17,15,38.53218847451835,100
161,CDISCPILOT01,01-701-1023,LB,Placebo,Placebo,2012-08-05,2012-09-01,2012-08-27,23,Week 2,2,Gamma Glutamyl Transferase (U/L),GGT,5,CHEMISTRY,SI,22,,10,50,14,GGT,Gamma Glutamyl Transferase,CHEMISTRY,22,U/L,10,50,22,22,U/L,10,50,NORMAL,,Y,4,WEEK 2,14,2012-08-27T15:47,23,38.972725044641294,107.8
162,CDISCPILOT01,01-701-1028,LB,Insulin,Insulin,2013-07-19,2014-01-14,2013-08-01,14,Week 2,2,Gamma Glutamyl Transferase (U/L),GGT,5,CHEMISTRY,SI,28,,10,50,32,GGT,Gamma Glutamyl Transferase,CHEMISTRY,28,U/L,10,50,28,28,U/L,10,50,NORMAL,,Y,4,WEEK 2,14,2013-08-01T09:15,14,37.273050907796375,104
163,CDISCPILOT01,01-701-1033,LB,Insulin,Insulin,2014-03-18,2014-03-31,2014-04-01,15,Week 2,2,Gamma Glutamyl Transferase (U/L),GGT,5,CHEMISTRY,SI,26,,10,50,14,GGT,Gamma Glutamyl Transferase,CHEMISTRY,26,U/L,10,50,26,26,U/L,10,50,NORMAL,,Y,4,WEEK 2,14,2014-04-01T08:55,15,40.31405223521872,107
164,CDISCPILOT01,01-701-1034,LB,Insulin,Insulin,2014-07-01,2014-12-30,2014-07-15,15,Week 2,2,Gamma Glutamyl Transferase (U/L),GGT,5,CHEMISTRY,SI,19,,5,50,32,GGT,Gamma Glutamyl Transferase,CHEMISTRY,19,U/L,5,50,19,19,U/L,5,50,NORMAL,,Y,4,WEEK 2,14,2014-07-15T09:25,15,39.674056230945844,114
165,CDISCPILOT01,01-701-1015,LB,Placebo,Placebo,2014-01-02,2014-07-02,2014-01-16,15,Week 2,2,Glucose (mmol/L),GLUC,6,CHEMISTRY,SI,4.66284,,2.8,13.899999999999999,33,GLUC,Glucose,CHEMISTRY,84,mg/dL,50,250,4.66284,4.66284,mmol/L,2.8,13.899999999999999,NORMAL,,Y,4,WEEK 2,14,2014-01-16T13:17,15,38.53218847451835,100
166,CDISCPILOT01,01-701-1023,LB,Placebo,Placebo,2012-08-05,2012-09-01,2012-08-27,23,Week 2,2,Glucose (mmol/L),GLUC,6,CHEMISTRY,SI,5.77304,,2.8,13.899999999999999,15,GLUC,Glucose,CHEMISTRY,104,mg/dL,50,250,5.77304,5.77304,mmol/L,2.8,13.899999999999999,NORMAL,,Y,4,WEEK 2,14,2012-08-27T15:47,23,38.972725044641294,107.8
167,CDISCPILOT01,01-701-1028,LB,Insulin,Insulin,2013-07-19,2014-01-14,2013-08-01,14,Week 2,2,Glucose (mmol/L),GLUC,6,CHEMISTRY,SI,4.16325,,2.8,13.899999999999999,33,GLUC,Glucose,CHEMISTRY,75,mg/dL,50,250,4.16325,4.16325,mmol/L,2.8,13.899999999999999,NORMAL,,Y,4,WEEK 2,14,2013-08-01T09:15,14,37.273050907796375,104
168,CDISCPILOT01,01-701-1033,LB,Insulin,Insulin,2014-03-18,2014-03-31,2014-04-01,15,Week 2,2,Glucose (mmol/L),GLUC,6,CHEMISTRY,SI,5.71753,,2.8,13.899999999999999,15,GLUC,Glucose,CHEMISTRY,103,mg/dL,50,250,5.71753,5.71753,mmol/L,2.8,13.899999999999999,NORMAL,,Y,4,WEEK 2,14,2014-04-01T08:55,15,40.31405223521872,107
169,CDISCPILOT01,01-701-1034,LB,Insulin,Insulin,2014-07-01,2014-12-30,2014-07-15,15,Week 2,2,Glucose (mmol/L),GLUC,6,CHEMISTRY,SI,4.71835,,2.8,13.899999999999999,33,GLUC,Glucose,CHEMISTRY,85,mg/dL,50,250,4.71835,4.71835,mmol/L,2.8,13.899999999999999,NORMAL,,Y,4,WEEK 2,14,2014-07-15T09:25,15,39.674056230945844,114
170,CDISCPILOT01,01-701-1015,LB,Placebo,Placebo,2014-01-02,2014-07-02,2014-01-16,15,Week 2,2,Hemoglobin A1C/Hemoglobin (mmol/mol),HBA1CHGB,7,CHEMISTRY,SI,71.58494999999999,,20.21865,38.79795000000001,34,HBA1CHGB,Hemoglobin A1C/Hemoglobin,CHEMISTRY,8.7,%,4.0,5.7,71.58495,71.58494999999999,mmol/mol,20.21865,38.79795000000001,HIGH,,Y,4,WEEK 2,14,2014-01-16T13:17,15,38.53218847451835,100
171,CDISCPILOT01,01-701-1023,LB,Placebo,Placebo,2012-08-05,2012-09-01,2012-08-27,23,Week 2,2,Hemoglobin A1C/Hemoglobin (mmol/mol),HBA1CHGB,7,CHEMISTRY,SI,69.39914999999999,,20.21865,38.79795000000001,16,HBA1CHGB,Hemoglobin A1C/Hemoglobin,CHEMISTRY,8.5,%,4.0,5.7,69.39915,69.39914999999999,mmol/mol,20.21865,38.79795000000001,HIGH,,Y,4,WEEK 2,14,2012-08-27T15:47,23,38.972725044641294,107.8
172,CDISCPILOT01,01-701-1028,LB,Insulin,Insulin,2013-07-19,2014-01-14,2013-08-01,14,Week 2,2,Hemoglobin A1C/Hemoglobin (mmol/mol),HBA1CHGB,7,CHEMISTRY,SI,69.39914999999999,,20.21865,38.79795000000001,34,HBA1CHGB,Hemoglobin A1C/Hemoglobin,CHEMISTRY,8.5,%,4.0,5.7,69.39915,69.39914999999999,mmol/mol,20.21865,38.79795000000001,HIGH,,Y,4,WEEK 2,14,2013-08-01T09:15,14,37.273050907796375,104
173,CDISCPILOT01,01-701-1033,LB,Insulin,Insulin,2014-03-18,2014-03-31,2014-04-01,15,Week 2,2,Hemoglobin A1C/Hemoglobin (mmol/mol),HBA1CHGB,7,CHEMISTRY,SI,44.26245000000001,,20.21865,38.79795000000001,16,HBA1CHGB,Hemoglobin A1C/Hemoglobin,CHEMISTRY,6.2,%,4.0,5.7,44.26245,44.26245000000001,mmol/mol,20.21865,38.79795000000001,HIGH,,Y,4,WEEK 2,14,2014-04-01T08:55,15,40.31405223521872,107
174,CDISCPILOT01,01-701-1034,LB,Insulin,Insulin,2014-07-01,2014-12-30,2014-07-15,15,Week 2,2,Hemoglobin A1C/Hemoglobin (mmol/mol),HBA1CHGB,7,CHEMISTRY,SI,23.49735,,20.21865,38.79795000000001,34,HBA1CHGB,Hemoglobin A1C/Hemoglobin,CHEMISTRY,4.3,%,4.0,5.7,23.49735,23.49735,mmol/mol,20.21865,38.79795000000001,NORMAL,,Y,4,WEEK 2,14,2014-07-15T09:25,15,39.674056230945844,114
175,CDISCPILOT01,01-701-1015,LB,Placebo,Placebo,2014-01-02,2014-07-02,2014-05-21,140,Week 20,20,Albumin (g/L),ALB,1,CHEMISTRY,SI,37,,33,49,37,ALB,Albumin,CHEMISTRY,3.7,g/dL,3.3,4.9,37,37,g/L,33,49,NORMAL,,Y,11,WEEK 20,140,2014-05-21T10:58,140,39.031996240762105,102.7
176,CDISCPILOT01,01-701-1028,LB,Insulin,Insulin,2013-07-19,2014-01-14,2013-12-04,139,Week 20,20,Albumin (g/L),ALB,1,CHEMISTRY,SI,40,,35,46,37,ALB,Albumin,CHEMISTRY,4.0,g/dL,3.5,4.6,40,40,g/L,35,46,NORMAL,,Y,11,WEEK 20,140,2013-12-04T15:10,139,34.86808274989123,97
177,CDISCPILOT01,01-701-1034,LB,Insulin,Insulin,2014-07-01,2014-12-30,2014-11-18,141,Week 20,20,Albumin (g/L),ALB,1,CHEMISTRY,SI,39,,35,46,37,ALB,Albumin,CHEMISTRY,3.9,g/dL,3.5,4.6,39,39,g/L,35,46,NORMAL,,Y,11,WEEK 20,140,2014-11-18T12:23,141,36.48989423764538,109
178,CDISCPILOT01,01-701-1015,LB,Placebo,Placebo,2014-01-02,2014-07-02,2014-05-21,140,Week 20,20,Alkaline Phosphatase (U/L),ALKPH,2,CHEMISTRY,SI,45,,35,115,38,ALP,Alkaline Phosphatase,CHEMISTRY,45,U/L,35,115,45,45,U/L,35,115,NORMAL,,Y,11,WEEK 20,140,2014-05-21T10:58,140,39.031996240762105,102.7
179,CDISCPILOT01,01-701-1028,LB,Insulin,Insulin,2013-07-19,2014-01-14,2013-12-04,139,Week 20,20,Alkaline Phosphatase (U/L),ALKPH,2,CHEMISTRY,SI,43,,35,115,38,ALP,Alkaline Phosphatase,CHEMISTRY,43,U/L,35,115,43,43,U/L,35,115,NORMAL,,Y,11,WEEK 20,140,2013-12-04T15:10,139,34.86808274989123,97
180,CDISCPILOT01,01-701-1034,LB,Insulin,Insulin,2014-07-01,2014-12-30,2014-11-18,141,Week 20,20,Alkaline Phosphatase (U/L),ALKPH,2,CHEMISTRY,SI,31,,35,115,38,ALP,Alkaline Phosphatase,CHEMISTRY,31,U/L,35,115,31,31,U/L,35,115,LOW,,Y,11,WEEK 20,140,2014-11-18T12:23,141,36.48989423764538,109
181,CDISCPILOT01,01-701-1015,LB,Placebo,Placebo,2014-01-02,2014-07-02,2014-05-21,140,Week 20,20,Aspartate Aminotransferase (U/L),AST,3,CHEMISTRY,SI,19,,9,34,39,AST,Aspartate Aminotransferase,CHEMISTRY,19,U/L,9,34,19,19,U/L,9,34,NORMAL,,Y,11,WEEK 20,140,2014-05-21T10:58,140,39.031996240762105,102.7
182,CDISCPILOT01,01-701-1028,LB,Insulin,Insulin,2013-07-19,2014-01-14,2013-12-04,139,Week 20,20,Aspartate Aminotransferase (U/L),AST,3,CHEMISTRY,SI,21,,11,36,39,AST,Aspartate Aminotransferase,CHEMISTRY,21,U/L,11,36,21,21,U/L,11,36,NORMAL,,Y,11,WEEK 20,140,2013-12-04T15:10,139,34.86808274989123,97
183,CDISCPILOT01,01-701-1034,LB,Insulin,Insulin,2014-07-01,2014-12-30,2014-11-18,141,Week 20,20,Aspartate Aminotransferase (U/L),AST,3,CHEMISTRY,SI,22,,9,34,39,AST,Aspartate Aminotransferase,CHEMISTRY,22,U/L,9,34,22,22,U/L,9,34,NORMAL,,Y,11,WEEK 20,140,2014-11-18T12:23,141,36.48989423764538,109
184,CDISCPILOT01,01-701-1015,LB,Placebo,Placebo,2014-01-02,2014-07-02,2014-05-21,140,Week 20,20,Cholesterol (mmol/L),CHOLES,4,CHEMISTRY,SI,5.35302,,4.029999999999999,7.76,40,CHOL,Cholesterol,CHEMISTRY,207,mg/dL,156,300,5.35302,5.35302,mmol/L,4.029999999999999,7.76,NORMAL,,Y,11,WEEK 20,140,2014-05-21T10:58,140,39.031996240762105,102.7
185,CDISCPILOT01,01-701-1028,LB,Insulin,Insulin,2013-07-19,2014-01-14,2013-12-04,139,Week 20,20,Cholesterol (mmol/L),CHOLES,4,CHEMISTRY,SI,4.396199999999999,,3.85,7.3999999999999995,40,CHOL,Cholesterol,CHEMISTRY,170,mg/dL,149,286,4.3962,4.396199999999999,mmol/L,3.85,7.3999999999999995,NORMAL,,Y,11,WEEK 20,140,2013-12-04T15:10,139,34.86808274989123,97
186,CDISCPILOT01,01-701-1034,LB,Insulin,Insulin,2014-07-01,2014-12-30,2014-11-18,141,Week 20,20,Cholesterol (mmol/L),CHOLES,4,CHEMISTRY,SI,6.1029599999999995,,4.029999999999999,7.76,40,CHOL,Cholesterol,CHEMISTRY,236,mg/dL,156,300,6.10296,6.1029599999999995,mmol/L,4.029999999999999,7.76,NORMAL,,Y,11,WEEK 20,140,2014-11-18T12:23,141,36.48989423764538,109
187,CDISCPILOT01,01-701-1015,LB,Placebo,Placebo,2014-01-02,2014-07-02,2014-05-21,140,Week 20,20,Gamma Glutamyl Transferase (U/L),GGT,5,CHEMISTRY,SI,17,,5,50,41,GGT,Gamma Glutamyl Transferase,CHEMISTRY,17,U/L,5,50,17,17,U/L,5,50,NORMAL,,Y,11,WEEK 20,140,2014-05-21T10:58,140,39.031996240762105,102.7
188,CDISCPILOT01,01-701-1028,LB,Insulin,Insulin,2013-07-19,2014-01-14,2013-12-04,139,Week 20,20,Gamma Glutamyl Transferase (U/L),GGT,5,CHEMISTRY,SI,20,,10,50,41,GGT,Gamma Glutamyl Transferase,CHEMISTRY,20,U/L,10,50,20,20,U/L,10,50,NORMAL,,Y,11,WEEK 20,140,2013-12-04T15:10,139,34.86808274989123,97
189,CDISCPILOT01,01-701-1034,LB,Insulin,Insulin,2014-07-01,2014-12-30,2014-11-18,141,Week 20,20,Gamma Glutamyl Transferase (U/L),GGT,5,CHEMISTRY,SI,21,,5,50,41,GGT,Gamma Glutamyl Transferase,CHEMISTRY,21,U/L,5,50,21,21,U/L,5,50,NORMAL,,Y,11,WEEK 20,140,2014-11-18T12:23,141,36.48989423764538,109
190,CDISCPILOT01,01-701-1015,LB,Placebo,Placebo,2014-01-02,2014-07-02,2014-05-21,140,Week 20,20,Glucose (mmol/L),GLUC,6,CHEMISTRY,SI,4.88488,,2.8,13.899999999999999,42,GLUC,Glucose,CHEMISTRY,88,mg/dL,50,250,4.88488,4.88488,mmol/L,2.8,13.899999999999999,NORMAL,,Y,11,WEEK 20,140,2014-05-21T10:58,140,39.031996240762105,102.7
191,CDISCPILOT01,01-701-1028,LB,Insulin,Insulin,2013-07-19,2014-01-14,2013-12-04,139,Week 20,20,Glucose (mmol/L),GLUC,6,CHEMISTRY,SI,4.551819999999999,,2.8,13.899999999999999,42,GLUC,Glucose,CHEMISTRY,82,mg/dL,50,250,4.55182,4.551819999999999,mmol/L,2.8,13.899999999999999,NORMAL,,Y,11,WEEK 20,140,2013-12-04T15:10,139,34.86808274989123,97
192,CDISCPILOT01,01-701-1034,LB,Insulin,Insulin,2014-07-01,2014-12-30,2014-11-18,141,Week 20,20,Glucose (mmol/L),GLUC,6,CHEMISTRY,SI,4.82937,,2.8,13.899999999999999,42,GLUC,Glucose,CHEMISTRY,87,mg/dL,50,250,4.82937,4.82937,mmol/L,2.8,13.899999999999999,NORMAL,,Y,11,WEEK 20,140,2014-11-18T12:23,141,36.48989423764538,109
193,CDISCPILOT01,01-701-1015,LB,Placebo,Placebo,2014-01-02,2014-07-02,2014-05-21,140,Week 20,20,Hemoglobin A1C/Hemoglobin (mmol/mol),HBA1CHGB,7,CHEMISTRY,SI,72.67785,,20.21865,38.79795000000001,43,HBA1CHGB,Hemoglobin A1C/Hemoglobin,CHEMISTRY,8.8,%,4.0,5.7,72.67785,72.67785,mmol/mol,20.21865,38.79795000000001,HIGH,,Y,11,WEEK 20,140,2014-05-21T10:58,140,39.031996240762105,102.7
194,CDISCPILOT01,01-701-1028,LB,Insulin,Insulin,2013-07-19,2014-01-14,2013-12-04,139,Week 20,20,Hemoglobin A1C/Hemoglobin (mmol/mol),HBA1CHGB,7,CHEMISTRY,SI,20.21865,,20.21865,38.79795000000001,43,HBA1CHGB,Hemoglobin A1C/Hemoglobin,CHEMISTRY,4,%,4.0,5.7,20.21865,20.21865,mmol/mol,20.21865,38.79795000000001,NORMAL,,Y,11,WEEK 20,140,2013-12-04T15:10,139,34.86808274989123,97
195,CDISCPILOT01,01-701-1034,LB,Insulin,Insulin,2014-07-01,2014-12-30,2014-11-18,141,Week 20,20,Hemoglobin A1C/Hemoglobin (mmol/mol),HBA1CHGB,7,CHEMISTRY,SI,25.68315,,20.21865,38.79795000000001,43,HBA1CHGB,Hemoglobin A1C/Hemoglobin,CHEMISTRY,4.5,%,4.0,5.7,25.68315,25.68315,mmol/mol,20.21865,38.79795000000001,NORMAL,,Y,11,WEEK 20,140,2014-11-18T12:23,141,36.48989423764538,109
196,CDISCPILOT01,01-701-1015,LB,Placebo,Placebo,2014-01-02,2014-07-02,2014-06-18,168,Week 24,24,Albumin (g/L),ALB,1,CHEMISTRY,SI,38,,33,49,46,ALB,Albumin,CHEMISTRY,3.8,g/dL,3.3,4.9,38,38,g/L,33,49,NORMAL,,Y,12,WEEK 24,168,2014-06-18T13:00,168,39.10888974326114,104
197,CDISCPILOT01,01-701-1028,LB,Insulin,Insulin,2013-07-19,2014-01-14,2014-01-06,172,Week 24,24,Albumin (g/L),ALB,1,CHEMISTRY,SI,42,,35,46,46,ALB,Albumin,CHEMISTRY,4.2,g/dL,3.5,4.6,42,42,g/L,35,46,NORMAL,,Y,12,WEEK 24,168,2014-01-06T10:00,172,34.436928918951,96
198,CDISCPILOT01,01-701-1034,LB,Insulin,Insulin,2014-07-01,2014-12-30,2014-12-17,170,Week 24,24,Albumin (g/L),ALB,1,CHEMISTRY,SI,40,,35,46,46,ALB,Albumin,CHEMISTRY,4.0,g/dL,3.5,4.6,40,40,g/L,35,46,NORMAL,,Y,12,WEEK 24,168,2014-12-17T14:27,170,35.70326320147541,108
199,CDISCPILOT01,01-701-1015,LB,Placebo,Placebo,2014-01-02,2014-07-02,2014-06-18,168,Week 24,24,Alkaline Phosphatase (U/L),ALKPH,2,CHEMISTRY,SI,46,,35,115,47,ALP,Alkaline Phosphatase,CHEMISTRY,46,U/L,35,115,46,46,U/L,35,115,NORMAL,,Y,12,WEEK 24,168,2014-06-18T13:00,168,39.10888974326114,104
200,CDISCPILOT01,01-701-1028,LB,Insulin,Insulin,2013-07-19,2014-01-14,2014-01-06,172,Week 24,24,Alkaline Phosphatase (U/L),ALKPH,2,CHEMISTRY,SI,47,,35,115,47,ALP,Alkaline Phosphatase,CHEMISTRY,47,U/L,35,115,47,47,U/L,35,115,NORMAL,,Y,12,WEEK 24,168,2014-01-06T10:00,172,34.436928918951,96
201,CDISCPILOT01,01-701-1034,LB,Insulin,Insulin,2014-07-01,2014-12-30,2014-12-17,170,Week 24,24,Alkaline Phosphatase (U/L),ALKPH,2,CHEMISTRY,SI,40,,35,115,47,ALP,Alkaline Phosphatase,CHEMISTRY,40,U/L,35,115,40,40,U/L,35,115,NORMAL,,Y,12,WEEK 24,168,2014-12-17T14:27,170,35.70326320147541,108
202,CDISCPILOT01,01-701-1015,LB,Placebo,Placebo,2014-01-02,2014-07-02,2014-06-18,168,Week 24,24,Aspartate Aminotransferase (U/L),AST,3,CHEMISTRY,SI,23,,9,34,48,AST,Aspartate Aminotransferase,CHEMISTRY,23,U/L,9,34,23,23,U/L,9,34,NORMAL,,Y,12,WEEK 24,168,2014-06-18T13:00,168,39.10888974326114,104
203,CDISCPILOT01,01-701-1028,LB,Insulin,Insulin,2013-07-19,2014-01-14,2014-01-06,172,Week 24,24,Aspartate Aminotransferase (U/L),AST,3,CHEMISTRY,SI,23,,11,36,48,AST,Aspartate Aminotransferase,CHEMISTRY,23,U/L,11,36,23,23,U/L,11,36,NORMAL,,Y,12,WEEK 24,168,2014-01-06T10:00,172,34.436928918951,96
204,CDISCPILOT01,01-701-1034,LB,Insulin,Insulin,2014-07-01,2014-12-30,2014-12-17,170,Week 24,24,Aspartate Aminotransferase (U/L),AST,3,CHEMISTRY,SI,17,,9,34,48,AST,Aspartate Aminotransferase,CHEMISTRY,17,U/L,9,34,17,17,U/L,9,34,NORMAL,,Y,12,WEEK 24,168,2014-12-17T14:27,170,35.70326320147541,108
205,CDISCPILOT01,01-701-1015,LB,Placebo,Placebo,2014-01-02,2014-07-02,2014-06-18,168,Week 24,24,Cholesterol (mmol/L),CHOLES,4,CHEMISTRY,SI,5.1978599999999995,,4.029999999999999,7.76,49,CHOL,Cholesterol,CHEMISTRY,201,mg/dL,156,300,5.19786,5.1978599999999995,mmol/L,4.029999999999999,7.76,NORMAL,,Y,12,WEEK 24,168,2014-06-18T13:00,168,39.10888974326114,104
206,CDISCPILOT01,01-701-1028,LB,Insulin,Insulin,2013-07-19,2014-01-14,2014-01-06,172,Week 24,24,Cholesterol (mmol/L),CHOLES,4,CHEMISTRY,SI,4.24104,,3.85,7.3999999999999995,49,CHOL,Cholesterol,CHEMISTRY,164,mg/dL,149,286,4.24104,4.24104,mmol/L,3.85,7.3999999999999995,NORMAL,,Y,12,WEEK 24,168,2014-01-06T10:00,172,34.436928918951,96
207,CDISCPILOT01,01-701-1034,LB,Insulin,Insulin,2014-07-01,2014-12-30,2014-12-17,170,Week 24,24,Cholesterol (mmol/L),CHOLES,4,CHEMISTRY,SI,6.1029599999999995,,4.029999999999999,7.76,49,CHOL,Cholesterol,CHEMISTRY,236,mg/dL,156,300,6.10296,6.1029599999999995,mmol/L,4.029999999999999,7.76,NORMAL,,Y,12,WEEK 24,168,2014-12-17T14:27,170,35.70326320147541,108
208,CDISCPILOT01,01-701-1015,LB,Placebo,Placebo,2014-01-02,2014-07-02,2014-06-18,168,Week 24,24,Gamma Glutamyl Transferase (U/L),GGT,5,CHEMISTRY,SI,20,,5,50,50,GGT,Gamma Glutamyl Transferase,CHEMISTRY,20,U/L,5,50,20,20,U/L,5,50,NORMAL,,Y,12,WEEK 24,168,2014-06-18T13:00,168,39.10888974326114,104
209,CDISCPILOT01,01-701-1028,LB,Insulin,Insulin,2013-07-19,2014-01-14,2014-01-06,172,Week 24,24,Gamma Glutamyl Transferase (U/L),GGT,5,CHEMISTRY,SI,23,,10,50,50,GGT,Gamma Glutamyl Transferase,CHEMISTRY,23,U/L,10,50,23,23,U/L,10,50,NORMAL,,Y,12,WEEK 24,168,2014-01-06T10:00,172,34.436928918951,96
210,CDISCPILOT01,01-701-1034,LB,Insulin,Insulin,2014-07-01,2014-12-30,2014-12-17,170,Week 24,24,Gamma Glutamyl Transferase (U/L),GGT,5,CHEMISTRY,SI,17,,5,50,50,GGT,Gamma Glutamyl Transferase,CHEMISTRY,17,U/L,5,50,17,17,U/L,5,50,NORMAL,,Y,12,WEEK 24,168,2014-12-17T14:27,170,35.70326320147541,108
211,CDISCPILOT01,01-701-1015,LB,Placebo,Placebo,2014-01-02,2014-07-02,2014-06-18,168,Week 24,24,Glucose (mmol/L),GLUC,6,CHEMISTRY,SI,4.496309999999999,,2.8,13.899999999999999,51,GLUC,Glucose,CHEMISTRY,81,mg/dL,50,250,4.49631,4.496309999999999,mmol/L,2.8,13.899999999999999,NORMAL,,Y,12,WEEK 24,168,2014-06-18T13:00,168,39.10888974326114,104
212,CDISCPILOT01,01-701-1028,LB,Insulin,Insulin,2013-07-19,2014-01-14,2014-01-06,172,Week 24,24,Glucose (mmol/L),GLUC,6,CHEMISTRY,SI,5.439979999999999,,2.8,13.899999999999999,51,GLUC,Glucose,CHEMISTRY,98,mg/dL,50,250,5.43998,5.439979999999999,mmol/L,2.8,13.899999999999999,NORMAL,,Y,12,WEEK 24,168,2014-01-06T10:00,172,34.436928918951,96
213,CDISCPILOT01,01-701-1034,LB,Insulin,Insulin,2014-07-01,2014-12-30,2014-12-17,170,Week 24,24,Glucose (mmol/L),GLUC,6,CHEMISTRY,SI,5.10692,,2.8,13.899999999999999,51,GLUC,Glucose,CHEMISTRY,92,mg/dL,50,250,5.10692,5.10692,mmol/L,2.8,13.899999999999999,NORMAL,,Y,12,WEEK 24,168,2014-12-17T14:27,170,35.70326320147541,108
214,CDISCPILOT01,01-701-1015,LB,Placebo,Placebo,2014-01-02,2014-07-02,2014-06-18,168,Week 24,24,Hemoglobin A1C/Hemoglobin (mmol/mol),HBA1CHGB,7,CHEMISTRY,SI,55.19145000000001,,20.21865,38.79795000000001,52,HBA1CHGB,Hemoglobin A1C/Hemoglobin,CHEMISTRY,7.2,%,4.0,5.7,55.19145,55.19145000000001,mmol/mol,20.21865,38.79795000000001,HIGH,,Y,12,WEEK 24,168,2014-06-18T13:00,168,39.10888974326114,104
215,CDISCPILOT01,01-701-1028,LB,Insulin,Insulin,2013-07-19,2014-01-14,2014-01-06,172,Week 24,24,Hemoglobin A1C/Hemoglobin (mmol/mol),HBA1CHGB,7,CHEMISTRY,SI,40.98375000000001,,20.21865,38.79795000000001,52,HBA1CHGB,Hemoglobin A1C/Hemoglobin,CHEMISTRY,5.9,%,4.0,5.7,40.98375,40.98375000000001,mmol/mol,20.21865,38.79795000000001,HIGH,,Y,12,WEEK 24,168,2014-01-06T10:00,172,34.436928918951,96
216,CDISCPILOT01,01-701-1034,LB,Insulin,Insulin,2014-07-01,2014-12-30,2014-12-17,170,Week 24,24,Hemoglobin A1C/Hemoglobin (mmol/mol),HBA1CHGB,7,CHEMISTRY,SI,54.098549999999996,,20.21865,38.79795000000001,52,HBA1CHGB,Hemoglobin A1C/Hemoglobin,CHEMISTRY,7.1,%,4.0,5.7,54.09855,54.098549999999996,mmol/mol,20.21865,38.79795000000001,HIGH,,Y,12,WEEK 24,168,2014-12-17T14:27,170,35.70326320147541,108
217,CDISCPILOT01,01-701-1015,LB,Placebo,Placebo,2014-01-02,2014-07-02,2014-07-02,182,Week 26,26,Albumin (g/L),ALB,1,CHEMISTRY,SI,38,,33,49,55,ALB,Albumin,CHEMISTRY,3.8,g/dL,3.3,4.9,38,38,g/L,33,49,NORMAL,,Y,13,WEEK 26,182,2014-07-02T11:45,182,39.77102823700286,105
218,CDISCPILOT01,01-701-1028,LB,Insulin,Insulin,2013-07-19,2014-01-14,2014-01-14,180,Week 26,26,Albumin (g/L),ALB,1,CHEMISTRY,SI,45,,35,46,55,ALB,Albumin,CHEMISTRY,4.5,g/dL,3.5,4.6,45,45,g/L,35,46,NORMAL,,Y,13,WEEK 26,182,2014-01-14T11:10,180,34.06510818401171,95
219,CDISCPILOT01,01-701-1034,LB,Insulin,Insulin,2014-07-01,2014-12-30,2014-12-30,183,Week 26,26,Albumin (g/L),ALB,1,CHEMISTRY,SI,41,,35,46,55,ALB,Albumin,CHEMISTRY,4.1,g/dL,3.5,4.6,41,41,g/L,35,46,NORMAL,,Y,13,WEEK 26,182,2014-12-30T09:50,183,35.42097933682111,107
220,CDISCPILOT01,01-701-1015,LB,Placebo,Placebo,2014-01-02,2014-07-02,2014-07-02,182,Week 26,26,Alkaline Phosphatase (U/L),ALKPH,2,CHEMISTRY,SI,44,,35,115,56,ALP,Alkaline Phosphatase,CHEMISTRY,44,U/L,35,115,44,44,U/L,35,115,NORMAL,,Y,13,WEEK 26,182,2014-07-02T11:45,182,39.77102823700286,105
221,CDISCPILOT01,01-701-1028,LB,Insulin,Insulin,2013-07-19,2014-01-14,2014-01-14,180,Week 26,26,Alkaline Phosphatase (U/L),ALKPH,2,CHEMISTRY,SI,40,,35,115,56,ALP,Alkaline Phosphatase,CHEMISTRY,40,U/L,35,115,40,40,U/L,35,115,NORMAL,,Y,13,WEEK 26,182,2014-01-14T11:10,180,34.06510818401171,95
222,CDISCPILOT01,01-701-1034,LB,Insulin,Insulin,2014-07-01,2014-12-30,2014-12-30,183,Week 26,26,Alkaline Phosphatase (U/L),ALKPH,2,CHEMISTRY,SI,27,,35,115,56,ALP,Alkaline Phosphatase,CHEMISTRY,27,U/L,35,115,27,27,U/L,35,115,LOW,,Y,13,WEEK 26,182,2014-12-30T09:50,183,35.42097933682111,107
223,CDISCPILOT01,01-701-1015,LB,Placebo,Placebo,2014-01-02,2014-07-02,2014-07-02,182,Week 26,26,Aspartate Aminotransferase (U/L),AST,3,CHEMISTRY,SI,19,,9,34,57,AST,Aspartate Aminotransferase,CHEMISTRY,19,U/L,9,34,19,19,U/L,9,34,NORMAL,,Y,13,WEEK 26,182,2014-07-02T11:45,182,39.77102823700286,105
224,CDISCPILOT01,01-701-1028,LB,Insulin,Insulin,2013-07-19,2014-01-14,2014-01-14,180,Week 26,26,Aspartate Aminotransferase (U/L),AST,3,CHEMISTRY,SI,24,,11,36,57,AST,Aspartate Aminotransferase,CHEMISTRY,24,U/L,11,36,24,24,U/L,11,36,NORMAL,,Y,13,WEEK 26,182,2014-01-14T11:10,180,34.06510818401171,95
225,CDISCPILOT01,01-701-1034,LB,Insulin,Insulin,2014-07-01,2014-12-30,2014-12-30,183,Week 26,26,Aspartate Aminotransferase (U/L),AST,3,CHEMISTRY,SI,21,,9,34,57,AST,Aspartate Aminotransferase,CHEMISTRY,21,U/L,9,34,21,21,U/L,9,34,NORMAL,,Y,13,WEEK 26,182,2014-12-30T09:50,183,35.42097933682111,107
226,CDISCPILOT01,01-701-1015,LB,Placebo,Placebo,2014-01-02,2014-07-02,2014-07-02,182,Week 26,26,Cholesterol (mmol/L),CHOLES,4,CHEMISTRY,SI,5.53404,,4.029999999999999,7.76,58,CHOL,Cholesterol,CHEMISTRY,214,mg/dL,156,300,5.53404,5.53404,mmol/L,4.029999999999999,7.76,NORMAL,,Y,13,WEEK 26,182,2014-07-02T11:45,182,39.77102823700286,105
227,CDISCPILOT01,01-701-1028,LB,Insulin,Insulin,2013-07-19,2014-01-14,2014-01-14,180,Week 26,26,Cholesterol (mmol/L),CHOLES,4,CHEMISTRY,SI,4.68066,,3.85,7.3999999999999995,58,CHOL,Cholesterol,CHEMISTRY,181,mg/dL,149,286,4.68066,4.68066,mmol/L,3.85,7.3999999999999995,NORMAL,,Y,13,WEEK 26,182,2014-01-14T11:10,180,34.06510818401171,95
228,CDISCPILOT01,01-701-1034,LB,Insulin,Insulin,2014-07-01,2014-12-30,2014-12-30,183,Week 26,26,Cholesterol (mmol/L),CHOLES,4,CHEMISTRY,SI,5.37888,,4.029999999999999,7.76,58,CHOL,Cholesterol,CHEMISTRY,208,mg/dL,156,300,5.37888,5.37888,mmol/L,4.029999999999999,7.76,NORMAL,,Y,13,WEEK 26,182,2014-12-30T09:50,183,35.42097933682111,107
229,CDISCPILOT01,01-701-1015,LB,Placebo,Placebo,2014-01-02,2014-07-02,2014-07-02,182,Week 26,26,Gamma Glutamyl Transferase (U/L),GGT,5,CHEMISTRY,SI,16,,5,50,59,GGT,Gamma Glutamyl Transferase,CHEMISTRY,16,U/L,5,50,16,16,U/L,5,50,NORMAL,,Y,13,WEEK 26,182,2014-07-02T11:45,182,39.77102823700286,105
230,CDISCPILOT01,01-701-1028,LB,Insulin,Insulin,2013-07-19,2014-01-14,2014-01-14,180,Week 26,26,Gamma Glutamyl Transferase (U/L),GGT,5,CHEMISTRY,SI,23,,10,50,59,GGT,Gamma Glutamyl Transferase,CHEMISTRY,23,U/L,10,50,23,23,U/L,10,50,NORMAL,,Y,13,WEEK 26,182,2014-01-14T11:10,180,34.06510818401171,95
231,CDISCPILOT01,01-701-1034,LB,Insulin,Insulin,2014-07-01,2014-12-30,2014-12-30,183,Week 26,26,Gamma Glutamyl Transferase (U/L),GGT,5,CHEMISTRY,SI,15,,5,50,59,GGT,Gamma Glutamyl Transferase,CHEMISTRY,15,U/L,5,50,15,15,U/L,5,50,NORMAL,,Y,13,WEEK 26,182,2014-12-30T09:50,183,35.42097933682111,107
232,CDISCPILOT01,01-701-1015,LB,Placebo,Placebo,2014-01-02,2014-07-02,2014-07-02,182,Week 26,26,Glucose (mmol/L),GLUC,6,CHEMISTRY,SI,5.10692,,2.8,13.899999999999999,60,GLUC,Glucose,CHEMISTRY,92,mg/dL,50,250,5.10692,5.10692,mmol/L,2.8,13.899999999999999,NORMAL,,Y,13,WEEK 26,182,2014-07-02T11:45,182,39.77102823700286,105
233,CDISCPILOT01,01-701-1028,LB,Insulin,Insulin,2013-07-19,2014-01-14,2014-01-14,180,Week 26,26,Glucose (mmol/L),GLUC,6,CHEMISTRY,SI,4.88488,,2.8,13.899999999999999,60,GLUC,Glucose,CHEMISTRY,88,mg/dL,50,250,4.88488,4.88488,mmol/L,2.8,13.899999999999999,NORMAL,,Y,13,WEEK 26,182,2014-01-14T11:10,180,34.06510818401171,95
234,CDISCPILOT01,01-701-1034,LB,Insulin,Insulin,2014-07-01,2014-12-30,2014-12-30,183,Week 26,26,Glucose (mmol/L),GLUC,6,CHEMISTRY,SI,4.77386,,2.8,13.899999999999999,60,GLUC,Glucose,CHEMISTRY,86,mg/dL,50,250,4.77386,4.77386,mmol/L,2.8,13.899999999999999,NORMAL,,Y,13,WEEK 26,182,2014-12-30T09:50,183,35.42097933682111,107
235,CDISCPILOT01,01-701-1015,LB,Placebo,Placebo,2014-01-02,2014-07-02,2014-07-02,182,Week 26,26,Hemoglobin A1C/Hemoglobin (mmol/mol),HBA1CHGB,7,CHEMISTRY,SI,58.47015,,20.21865,38.79795000000001,61,HBA1CHGB,Hemoglobin A1C/Hemoglobin,CHEMISTRY,7.5,%,4.0,5.7,58.47015,58.47015,mmol/mol,20.21865,38.79795000000001,HIGH,,Y,13,WEEK 26,182,2014-07-02T11:45,182,39.77102823700286,105
236,CDISCPILOT01,01-701-1028,LB,Insulin,Insulin,2013-07-19,2014-01-14,2014-01-14,180,Week 26,26,Hemoglobin A1C/Hemoglobin (mmol/mol),HBA1CHGB,7,CHEMISTRY,SI,26.776049999999998,,20.21865,38.79795000000001,61,HBA1CHGB,Hemoglobin A1C/Hemoglobin,CHEMISTRY,4.6,%,4.0,5.7,26.77605,26.776049999999998,mmol/mol,20.21865,38.79795000000001,NORMAL,,Y,13,WEEK 26,182,2014-01-14T11:10,180,34.06510818401171,95
237,CDISCPILOT01,01-701-1034,LB,Insulin,Insulin,2014-07-01,2014-12-30,2014-12-30,183,Week 26,26,Hemoglobin A1C/Hemoglobin (mmol/mol),HBA1CHGB,7,CHEMISTRY,SI,60.65595000000001,,20.21865,38.79795000000001,61,HBA1CHGB,Hemoglobin A1C/Hemoglobin,CHEMISTRY,7.7,%,4.0,5.7,60.65595,60.65595000000001,mmol/mol,20.21865,38.79795000000001,HIGH,,Y,13,WEEK 26,182,2014-12-30T09:50,183,35.42097933682111,107
238,CDISCPILOT01,01-701-1015,LB,Placebo,Placebo,2014-01-02,2014-07-02,2014-01-30,29,Week 4,4,Albumin (g/L),ALB,1,CHEMISTRY,SI,38,,33,49,64,ALB,Albumin,CHEMISTRY,3.8,g/dL,3.3,4.9,38,38,g/L,33,49,NORMAL,,Y,5,WEEK 4,28,2014-01-30T08:50,29,38.62616942201717,100.4
239,CDISCPILOT01,01-701-1023,LB,Placebo,Placebo,2012-08-05,2012-09-01,2012-09-02,29,Week 4,4,Albumin (g/L),ALB,1,CHEMISTRY,SI,35,,33,49,19,ALB,Albumin,CHEMISTRY,3.5,g/dL,3.3,4.9,35,35,g/L,33,49,NORMAL,,Y,5,WEEK 4,28,2012-09-02T10:15,29,39.28784006162249,109
240,CDISCPILOT01,01-701-1028,LB,Insulin,Insulin,2013-07-19,2014-01-14,2013-08-14,27,Week 4,4,Albumin (g/L),ALB,1,CHEMISTRY,SI,41,,35,46,64,ALB,Albumin,CHEMISTRY,4.1,g/dL,3.5,4.6,41,41,g/L,35,46,NORMAL,,Y,5,WEEK 4,28,2013-08-14T13:24,27,36.434476484316285,102
241,CDISCPILOT01,01-701-1033,LB,Insulin,Insulin,2014-03-18,2014-03-31,2014-04-14,28,Week 4,4,Albumin (g/L),ALB,1,CHEMISTRY,SI,40,,35,46,19,ALB,Albumin,CHEMISTRY,4.0,g/dL,3.5,4.6,40,40,g/L,35,46,NORMAL,,Y,5,WEEK 4,28,2014-04-14T10:38,28,40.02163114885435,106
242,CDISCPILOT01,01-701-1034,LB,Insulin,Insulin,2014-07-01,2014-12-30,2014-07-29,29,Week 4,4,Albumin (g/L),ALB,1,CHEMISTRY,SI,41,,35,46,64,ALB,Albumin,CHEMISTRY,4.1,g/dL,3.5,4.6,41,41,g/L,35,46,NORMAL,,Y,5,WEEK 4,28,2014-07-29T08:40,29,39.489630772705034,113
243,CDISCPILOT01,01-701-1015,LB,Placebo,Placebo,2014-01-02,2014-07-02,2014-01-30,29,Week 4,4,Alkaline Phosphatase (U/L),ALKPH,2,CHEMISTRY,SI,41,,35,115,65,ALP,Alkaline Phosphatase,CHEMISTRY,41,U/L,35,115,41,41,U/L,35,115,NORMAL,,Y,5,WEEK 4,28,2014-01-30T08:50,29,38.62616942201717,100.4
244,CDISCPILOT01,01-701-1023,LB,Placebo,Placebo,2012-08-05,2012-09-01,2012-09-02,29,Week 4,4,Alkaline Phosphatase (U/L),ALKPH,2,CHEMISTRY,SI,99,,35,115,20,ALP,Alkaline Phosphatase,CHEMISTRY,99,U/L,35,115,99,99,U/L,35,115,NORMAL,,Y,5,WEEK 4,28,2012-09-02T10:15,29,39.28784006162249,109
245,CDISCPILOT01,01-701-1028,LB,Insulin,Insulin,2013-07-19,2014-01-14,2013-08-14,27,Week 4,4,Alkaline Phosphatase (U/L),ALKPH,2,CHEMISTRY,SI,38,,35,115,65,ALP,Alkaline Phosphatase,CHEMISTRY,38,U/L,35,115,38,38,U/L,35,115,NORMAL,,Y,5,WEEK 4,28,2013-08-14T13:24,27,36.434476484316285,102
246,CDISCPILOT01,01-701-1033,LB,Insulin,Insulin,2014-03-18,2014-03-31,2014-04-14,28,Week 4,4,Alkaline Phosphatase (U/L),ALKPH,2,CHEMISTRY,SI,76,,35,115,20,ALP,Alkaline Phosphatase,CHEMISTRY,76,U/L,35,115,76,76,U/L,35,115,NORMAL,,Y,5,WEEK 4,28,2014-04-14T10:38,28,40.02163114885435,106
247,CDISCPILOT01,01-701-1034,LB,Insulin,Insulin,2014-07-01,2014-12-30,2014-07-29,29,Week 4,4,Alkaline Phosphatase (U/L),ALKPH,2,CHEMISTRY,SI,36,,35,115,65,ALP,Alkaline Phosphatase,CHEMISTRY,36,U/L,35,115,36,36,U/L,35,115,NORMAL,,Y,5,WEEK 4,28,2014-07-29T08:40,29,39.489630772705034,113
248,CDISCPILOT01,01-701-1015,LB,Placebo,Placebo,2014-01-02,2014-07-02,2014-01-30,29,Week 4,4,Aspartate Aminotransferase (U/L),AST,3,CHEMISTRY,SI,21,,9,34,66,AST,Aspartate Aminotransferase,CHEMISTRY,21,U/L,9,34,21,21,U/L,9,34,NORMAL,,Y,5,WEEK 4,28,2014-01-30T08:50,29,38.62616942201717,100.4
249,CDISCPILOT01,01-701-1023,LB,Placebo,Placebo,2012-08-05,2012-09-01,2012-09-02,29,Week 4,4,Aspartate Aminotransferase (U/L),AST,3,CHEMISTRY,SI,30,,11,36,21,AST,Aspartate Aminotransferase,CHEMISTRY,30,U/L,11,36,30,30,U/L,11,36,NORMAL,,Y,5,WEEK 4,28,2012-09-02T10:15,29,39.28784006162249,109
250,CDISCPILOT01,01-701-1028,LB,Insulin,Insulin,2013-07-19,2014-01-14,2013-08-14,27,Week 4,4,Aspartate Aminotransferase (U/L),AST,3,CHEMISTRY,SI,24,,11,36,66,AST,Aspartate Aminotransferase,CHEMISTRY,24,U/L,11,36,24,24,U/L,11,36,NORMAL,,Y,5,WEEK 4,28,2013-08-14T13:24,27,36.434476484316285,102
251,CDISCPILOT01,01-701-1033,LB,Insulin,Insulin,2014-03-18,2014-03-31,2014-04-14,28,Week 4,4,Aspartate Aminotransferase (U/L),AST,3,CHEMISTRY,SI,20,,11,36,21,AST,Aspartate Aminotransferase,CHEMISTRY,20,U/L,11,36,20,20,U/L,11,36,NORMAL,,Y,5,WEEK 4,28,2014-04-14T10:38,28,40.02163114885435,106
252,CDISCPILOT01,01-701-1034,LB,Insulin,Insulin,2014-07-01,2014-12-30,2014-07-29,29,Week 4,4,Aspartate Aminotransferase (U/L),AST,3,CHEMISTRY,SI,25,,9,34,66,AST,Aspartate Aminotransferase,CHEMISTRY,25,U/L,9,34,25,25,U/L,9,34,NORMAL,,Y,5,WEEK 4,28,2014-07-29T08:40,29,39.489630772705034,113
253,CDISCPILOT01,01-701-1015,LB,Placebo,Placebo,2014-01-02,2014-07-02,2014-01-30,29,Week 4,4,Cholesterol (mmol/L),CHOLES,4,CHEMISTRY,SI,4.9909799999999995,,4.029999999999999,7.76,67,CHOL,Cholesterol,CHEMISTRY,193,mg/dL,156,300,4.99098,4.9909799999999995,mmol/L,4.029999999999999,7.76,NORMAL,,Y,5,WEEK 4,28,2014-01-30T08:50,29,38.62616942201717,100.4
254,CDISCPILOT01,01-701-1023,LB,Placebo,Placebo,2012-08-05,2012-09-01,2012-09-02,29,Week 4,4,Cholesterol (mmol/L),CHOLES,4,CHEMISTRY,SI,6.0771,,3.85,7.3999999999999995,22,CHOL,Cholesterol,CHEMISTRY,235,mg/dL,149,286,6.0771,6.0771,mmol/L,3.85,7.3999999999999995,NORMAL,,Y,5,WEEK 4,28,2012-09-02T10:15,29,39.28784006162249,109
255,CDISCPILOT01,01-701-1028,LB,Insulin,Insulin,2013-07-19,2014-01-14,2013-08-14,27,Week 4,4,Cholesterol (mmol/L),CHOLES,4,CHEMISTRY,SI,4.37034,,3.85,7.3999999999999995,67,CHOL,Cholesterol,CHEMISTRY,169,mg/dL,149,286,4.37034,4.37034,mmol/L,3.85,7.3999999999999995,NORMAL,,Y,5,WEEK 4,28,2013-08-14T13:24,27,36.434476484316285,102
256,CDISCPILOT01,01-701-1033,LB,Insulin,Insulin,2014-03-18,2014-03-31,2014-04-14,28,Week 4,4,Cholesterol (mmol/L),CHOLES,4,CHEMISTRY,SI,5.0944199999999995,,3.85,7.3999999999999995,22,CHOL,Cholesterol,CHEMISTRY,197,mg/dL,149,286,5.09442,5.0944199999999995,mmol/L,3.85,7.3999999999999995,NORMAL,,Y,5,WEEK 4,28,2014-04-14T10:38,28,40.02163114885435,106
257,CDISCPILOT01,01-701-1034,LB,Insulin,Insulin,2014-07-01,2014-12-30,2014-07-29,29,Week 4,4,Cholesterol (mmol/L),CHOLES,4,CHEMISTRY,SI,7.34424,,4.029999999999999,7.76,67,CHOL,Cholesterol,CHEMISTRY,284,mg/dL,156,300,7.34424,7.34424,mmol/L,4.029999999999999,7.76,NORMAL,,Y,5,WEEK 4,28,2014-07-29T08:40,29,39.489630772705034,113
258,CDISCPILOT01,01-701-1015,LB,Placebo,Placebo,2014-01-02,2014-07-02,2014-01-30,29,Week 4,4,Gamma Glutamyl Transferase (U/L),GGT,5,CHEMISTRY,SI,15,,5,50,68,GGT,Gamma Glutamyl Transferase,CHEMISTRY,15,U/L,5,50,15,15,U/L,5,50,NORMAL,,Y,5,WEEK 4,28,2014-01-30T08:50,29,38.62616942201717,100.4
259,CDISCPILOT01,01-701-1023,LB,Placebo,Placebo,2012-08-05,2012-09-01,2012-09-02,29,Week 4,4,Gamma Glutamyl Transferase (U/L),GGT,5,CHEMISTRY,SI,22,,10,50,23,GGT,Gamma Glutamyl Transferase,CHEMISTRY,22,U/L,10,50,22,22,U/L,10,50,NORMAL,,Y,5,WEEK 4,28,2012-09-02T10:15,29,39.28784006162249,109
260,CDISCPILOT01,01-701-1028,LB,Insulin,Insulin,2013-07-19,2014-01-14,2013-08-14,27,Week 4,4,Gamma Glutamyl Transferase (U/L),GGT,5,CHEMISTRY,SI,23,,10,50,68,GGT,Gamma Glutamyl Transferase,CHEMISTRY,23,U/L,10,50,23,23,U/L,10,50,NORMAL,,Y,5,WEEK 4,28,2013-08-14T13:24,27,36.434476484316285,102
261,CDISCPILOT01,01-701-1033,LB,Insulin,Insulin,2014-03-18,2014-03-31,2014-04-14,28,Week 4,4,Gamma Glutamyl Transferase (U/L),GGT,5,CHEMISTRY,SI,21,,10,50,23,GGT,Gamma Glutamyl Transferase,CHEMISTRY,21,U/L,10,50,21,21,U/L,10,50,NORMAL,,Y,5,WEEK 4,28,2014-04-14T10:38,28,40.02163114885435,106
262,CDISCPILOT01,01-701-1034,LB,Insulin,Insulin,2014-07-01,2014-12-30,2014-07-29,29,Week 4,4,Gamma Glutamyl Transferase (U/L),GGT,5,CHEMISTRY,SI,21,,5,50,68,GGT,Gamma Glutamyl Transferase,CHEMISTRY,21,U/L,5,50,21,21,U/L,5,50,NORMAL,,Y,5,WEEK 4,28,2014-07-29T08:40,29,39.489630772705034,113
263,CDISCPILOT01,01-701-1015,LB,Placebo,Placebo,2014-01-02,2014-07-02,2014-01-30,29,Week 4,4,Glucose (mmol/L),GLUC,6,CHEMISTRY,SI,4.3852899999999995,,2.8,13.899999999999999,69,GLUC,Glucose,CHEMISTRY,79,mg/dL,50,250,4.38529,4.3852899999999995,mmol/L,2.8,13.899999999999999,NORMAL,,Y,5,WEEK 4,28,2014-01-30T08:50,29,38.62616942201717,100.4
264,CDISCPILOT01,01-701-1023,LB,Placebo,Placebo,2012-08-05,2012-09-01,2012-09-02,29,Week 4,4,Glucose (mmol/L),GLUC,6,CHEMISTRY,SI,5.439979999999999,,2.8,13.899999999999999,24,GLUC,Glucose,CHEMISTRY,98,mg/dL,50,250,5.43998,5.439979999999999,mmol/L,2.8,13.899999999999999,NORMAL,,Y,5,WEEK 4,28,2012-09-02T10:15,29,39.28784006162249,109
265,CDISCPILOT01,01-701-1028,LB,Insulin,Insulin,2013-07-19,2014-01-14,2013-08-14,27,Week 4,4,Glucose (mmol/L),GLUC,6,CHEMISTRY,SI,4.440799999999999,,2.8,13.899999999999999,69,GLUC,Glucose,CHEMISTRY,80,mg/dL,50,250,4.4408,4.440799999999999,mmol/L,2.8,13.899999999999999,NORMAL,,Y,5,WEEK 4,28,2013-08-14T13:24,27,36.434476484316285,102
266,CDISCPILOT01,01-701-1033,LB,Insulin,Insulin,2014-03-18,2014-03-31,2014-04-14,28,Week 4,4,Glucose (mmol/L),GLUC,6,CHEMISTRY,SI,5.439979999999999,,2.8,13.899999999999999,24,GLUC,Glucose,CHEMISTRY,98,mg/dL,50,250,5.43998,5.439979999999999,mmol/L,2.8,13.899999999999999,NORMAL,,Y,5,WEEK 4,28,2014-04-14T10:38,28,40.02163114885435,106
267,CDISCPILOT01,01-701-1034,LB,Insulin,Insulin,2014-07-01,2014-12-30,2014-07-29,29,Week 4,4,Glucose (mmol/L),GLUC,6,CHEMISTRY,SI,4.607329999999999,,2.8,13.899999999999999,69,GLUC,Glucose,CHEMISTRY,83,mg/dL,50,250,4.60733,4.607329999999999,mmol/L,2.8,13.899999999999999,NORMAL,,Y,5,WEEK 4,28,2014-07-29T08:40,29,39.489630772705034,113
268,CDISCPILOT01,01-701-1015,LB,Placebo,Placebo,2014-01-02,2014-07-02,2014-02-12,42,Week 6,6,Albumin (g/L),ALB,1,CHEMISTRY,SI,37,,33,49,70,ALB,Albumin,CHEMISTRY,3.7,g/dL,3.3,4.9,37,37,g/L,33,49,NORMAL,,Y,7,WEEK 6,42,2014-02-12T12:56,42,38.677431757016535,101
269,CDISCPILOT01,01-701-1028,LB,Insulin,Insulin,2013-07-19,2014-01-14,2013-08-29,42,Week 6,6,Albumin (g/L),ALB,1,CHEMISTRY,SI,40,,35,46,70,ALB,Albumin,CHEMISTRY,4.0,g/dL,3.5,4.6,40,40,g/L,35,46,NORMAL,,Y,7,WEEK 6,42,2013-08-29T11:54,42,36.21296625924607,101
270,CDISCPILOT01,01-701-1034,LB,Insulin,Insulin,2014-07-01,2014-12-30,2014-08-11,42,Week 6,6,Albumin (g/L),ALB,1,CHEMISTRY,SI,38,,35,46,70,ALB,Albumin,CHEMISTRY,3.8,g/dL,3.5,4.6,38,38,g/L,35,46,NORMAL,,Y,7,WEEK 6,42,2014-08-11T13:15,42,39.011630095223765,112
271,CDISCPILOT01,01-701-1015,LB,Placebo,Placebo,2014-01-02,2014-07-02,2014-02-12,42,Week 6,6,Alkaline Phosphatase (U/L),ALKPH,2,CHEMISTRY,SI,43,,35,115,71,ALP,Alkaline Phosphatase,CHEMISTRY,43,U/L,35,115,43,43,U/L,35,115,NORMAL,,Y,7,WEEK 6,42,2014-02-12T12:56,42,38.677431757016535,101
272,CDISCPILOT01,01-701-1028,LB,Insulin,Insulin,2013-07-19,2014-01-14,2013-08-29,42,Week 6,6,Alkaline Phosphatase (U/L),ALKPH,2,CHEMISTRY,SI,40,,35,115,71,ALP,Alkaline Phosphatase,CHEMISTRY,40,U/L,35,115,40,40,U/L,35,115,NORMAL,,Y,7,WEEK 6,42,2013-08-29T11:54,42,36.21296625924607,101
273,CDISCPILOT01,01-701-1034,LB,Insulin,Insulin,2014-07-01,2014-12-30,2014-08-11,42,Week 6,6,Alkaline Phosphatase (U/L),ALKPH,2,CHEMISTRY,SI,33,,35,115,71,ALP,Alkaline Phosphatase,CHEMISTRY,33,U/L,35,115,33,33,U/L,35,115,LOW,,Y,7,WEEK 6,42,2014-08-11T13:15,42,39.011630095223765,112
274,CDISCPILOT01,01-701-1015,LB,Placebo,Placebo,2014-01-02,2014-07-02,2014-02-12,42,Week 6,6,Aspartate Aminotransferase (U/L),AST,3,CHEMISTRY,SI,26,,9,34,72,AST,Aspartate Aminotransferase,CHEMISTRY,26,U/L,9,34,26,26,U/L,9,34,NORMAL,,Y,7,WEEK 6,42,2014-02-12T12:56,42,38.677431757016535,101
275,CDISCPILOT01,01-701-1028,LB,Insulin,Insulin,2013-07-19,2014-01-14,2013-08-29,42,Week 6,6,Aspartate Aminotransferase (U/L),AST,3,CHEMISTRY,SI,26,,11,36,72,AST,Aspartate Aminotransferase,CHEMISTRY,26,U/L,11,36,26,26,U/L,11,36,NORMAL,,Y,7,WEEK 6,42,2013-08-29T11:54,42,36.21296625924607,101
276,CDISCPILOT01,01-701-1034,LB,Insulin,Insulin,2014-07-01,2014-12-30,2014-08-11,42,Week 6,6,Aspartate Aminotransferase (U/L),AST,3,CHEMISTRY,SI,19,,9,34,72,AST,Aspartate Aminotransferase,CHEMISTRY,19,U/L,9,34,19,19,U/L,9,34,NORMAL,,Y,7,WEEK 6,42,2014-08-11T13:15,42,39.011630095223765,112
277,CDISCPILOT01,01-701-1015,LB,Placebo,Placebo,2014-01-02,2014-07-02,2014-02-12,42,Week 6,6,Cholesterol (mmol/L),CHOLES,4,CHEMISTRY,SI,5.63748,,4.029999999999999,7.76,73,CHOL,Cholesterol,CHEMISTRY,218,mg/dL,156,300,5.63748,5.63748,mmol/L,4.029999999999999,7.76,NORMAL,,Y,7,WEEK 6,42,2014-02-12T12:56,42,38.677431757016535,101
278,CDISCPILOT01,01-701-1028,LB,Insulin,Insulin,2013-07-19,2014-01-14,2013-08-29,42,Week 6,6,Cholesterol (mmol/L),CHOLES,4,CHEMISTRY,SI,4.2669,,3.85,7.3999999999999995,73,CHOL,Cholesterol,CHEMISTRY,165,mg/dL,149,286,4.2669,4.2669,mmol/L,3.85,7.3999999999999995,NORMAL,,Y,7,WEEK 6,42,2013-08-29T11:54,42,36.21296625924607,101
279,CDISCPILOT01,01-701-1034,LB,Insulin,Insulin,2014-07-01,2014-12-30,2014-08-11,42,Week 6,6,Cholesterol (mmol/L),CHOLES,4,CHEMISTRY,SI,5.76678,,4.029999999999999,7.76,73,CHOL,Cholesterol,CHEMISTRY,223,mg/dL,156,300,5.76678,5.76678,mmol/L,4.029999999999999,7.76,NORMAL,,Y,7,WEEK 6,42,2014-08-11T13:15,42,39.011630095223765,112
280,CDISCPILOT01,01-701-1015,LB,Placebo,Placebo,2014-01-02,2014-07-02,2014-02-12,42,Week 6,6,Gamma Glutamyl Transferase (U/L),GGT,5,CHEMISTRY,SI,14,,5,50,74,GGT,Gamma Glutamyl Transferase,CHEMISTRY,14,U/L,5,50,14,14,U/L,5,50,NORMAL,,Y,7,WEEK 6,42,2014-02-12T12:56,42,38.677431757016535,101
281,CDISCPILOT01,01-701-1028,LB,Insulin,Insulin,2013-07-19,2014-01-14,2013-08-29,42,Week 6,6,Gamma Glutamyl Transferase (U/L),GGT,5,CHEMISTRY,SI,24,,10,50,74,GGT,Gamma Glutamyl Transferase,CHEMISTRY,24,U/L,10,50,24,24,U/L,10,50,NORMAL,,Y,7,WEEK 6,42,2013-08-29T11:54,42,36.21296625924607,101
282,CDISCPILOT01,01-701-1034,LB,Insulin,Insulin,2014-07-01,2014-12-30,2014-08-11,42,Week 6,6,Gamma Glutamyl Transferase (U/L),GGT,5,CHEMISTRY,SI,15,,5,50,74,GGT,Gamma Glutamyl Transferase,CHEMISTRY,15,U/L,5,50,15,15,U/L,5,50,NORMAL,,Y,7,WEEK 6,42,2014-08-11T13:15,42,39.011630095223765,112
283,CDISCPILOT01,01-701-1015,LB,Placebo,Placebo,2014-01-02,2014-07-02,2014-02-12,42,Week 6,6,Glucose (mmol/L),GLUC,6,CHEMISTRY,SI,5.10692,,2.8,13.899999999999999,75,GLUC,Glucose,CHEMISTRY,92,mg/dL,50,250,5.10692,5.10692,mmol/L,2.8,13.899999999999999,NORMAL,,Y,7,WEEK 6,42,2014-02-12T12:56,42,38.677431757016535,101
284,CDISCPILOT01,01-701-1028,LB,Insulin,Insulin,2013-07-19,2014-01-14,2013-08-29,42,Week 6,6,Glucose (mmol/L),GLUC,6,CHEMISTRY,SI,4.21876,,2.8,13.899999999999999,75,GLUC,Glucose,CHEMISTRY,76,mg/dL,50,250,4.21876,4.21876,mmol/L,2.8,13.899999999999999,NORMAL,,Y,7,WEEK 6,42,2013-08-29T11:54,42,36.21296625924607,101
285,CDISCPILOT01,01-701-1034,LB,Insulin,Insulin,2014-07-01,2014-12-30,2014-08-11,42,Week 6,6,Glucose (mmol/L),GLUC,6,CHEMISTRY,SI,5.439979999999999,,2.8,13.899999999999999,75,GLUC,Glucose,CHEMISTRY,98,mg/dL,50,250,5.43998,5.439979999999999,mmol/L,2.8,13.899999999999999,NORMAL,,Y,7,WEEK 6,42,2014-08-11T13:15,42,39.011630095223765,112
286,CDISCPILOT01,01-701-1015,LB,Placebo,Placebo,2014-01-02,2014-07-02,2014-02-12,42,Week 6,6,Hemoglobin A1C/Hemoglobin (mmol/mol),HBA1CHGB,7,CHEMISTRY,SI,69.39914999999999,,20.21865,38.79795000000001,76,HBA1CHGB,Hemoglobin A1C/Hemoglobin,CHEMISTRY,8.5,%,4.0,5.7,69.39915,69.39914999999999,mmol/mol,20.21865,38.79795000000001,HIGH,,Y,7,WEEK 6,42,2014-02-12T12:56,42,38.677431757016535,101
287,CDISCPILOT01,01-701-1028,LB,Insulin,Insulin,2013-07-19,2014-01-14,2013-08-29,42,Week 6,6,Hemoglobin A1C/Hemoglobin (mmol/mol),HBA1CHGB,7,CHEMISTRY,SI,25.68315,,20.21865,38.79795000000001,76,HBA1CHGB,Hemoglobin A1C/Hemoglobin,CHEMISTRY,4.5,%,4.0,5.7,25.68315,25.68315,mmol/mol,20.21865,38.79795000000001,NORMAL,,Y,7,WEEK 6,42,2013-08-29T11:54,42,36.21296625924607,101
288,CDISCPILOT01,01-701-1034,LB,Insulin,Insulin,2014-07-01,2014-12-30,2014-08-11,42,Week 6,6,Hemoglobin A1C/Hemoglobin (mmol/mol),HBA1CHGB,7,CHEMISTRY,SI,27.868950000000005,,20.21865,38.79795000000001,76,HBA1CHGB,Hemoglobin A1C/Hemoglobin,CHEMISTRY,4.7,%,4.0,5.7,27.86895,27.868950000000005,mmol/mol,20.21865,38.79795000000001,NORMAL,,Y,7,WEEK 6,42,2014-08-11T13:15,42,39.011630095223765,112
289,CDISCPILOT01,01-701-1015,LB,Placebo,Placebo,2014-01-02,2014-07-02,2014-03-05,63,Week 8,8,Albumin (g/L),ALB,1,CHEMISTRY,SI,38,,33,49,79,ALB,Albumin,CHEMISTRY,3.8,g/dL,3.3,4.9,38,38,g/L,33,49,NORMAL,,Y,8,WEEK 8,56,2014-03-05T12:25,63,38.79277201076509,101
290,CDISCPILOT01,01-701-1028,LB,Insulin,Insulin,2013-07-19,2014-01-14,2013-09-10,54,Week 8,8,Albumin (g/L),ALB,1,CHEMISTRY,SI,39,,35,46,79,ALB,Albumin,CHEMISTRY,3.9,g/dL,3.5,4.6,39,39,g/L,35,46,NORMAL,,Y,8,WEEK 8,56,2013-09-10T09:13,54,35.69479055417112,100
291,CDISCPILOT01,01-701-1034,LB,Insulin,Insulin,2014-07-01,2014-12-30,2014-08-26,57,Week 8,8,Albumin (g/L),ALB,1,CHEMISTRY,SI,41,,35,46,79,ALB,Albumin,CHEMISTRY,4.1,g/dL,3.5,4.6,41,41,g/L,35,46,NORMAL,,Y,8,WEEK 8,56,2014-08-26T09:57,57,38.812149497534726,113
292,CDISCPILOT01,01-701-1015,LB,Placebo,Placebo,2014-01-02,2014-07-02,2014-03-05,63,Week 8,8,Alkaline Phosphatase (U/L),ALKPH,2,CHEMISTRY,SI,47,,35,115,80,ALP,Alkaline Phosphatase,CHEMISTRY,47,U/L,35,115,47,47,U/L,35,115,NORMAL,,Y,8,WEEK 8,56,2014-03-05T12:25,63,38.79277201076509,101
293,CDISCPILOT01,01-701-1028,LB,Insulin,Insulin,2013-07-19,2014-01-14,2013-09-10,54,Week 8,8,Alkaline Phosphatase (U/L),ALKPH,2,CHEMISTRY,SI,40,,35,115,80,ALP,Alkaline Phosphatase,CHEMISTRY,40,U/L,35,115,40,40,U/L,35,115,NORMAL,,Y,8,WEEK 8,56,2013-09-10T09:13,54,35.69479055417112,100
294,CDISCPILOT01,01-701-1034,LB,Insulin,Insulin,2014-07-01,2014-12-30,2014-08-26,57,Week 8,8,Alkaline Phosphatase (U/L),ALKPH,2,CHEMISTRY,SI,29,,35,115,80,ALP,Alkaline Phosphatase,CHEMISTRY,29,U/L,35,115,29,29,U/L,35,115,LOW,,Y,8,WEEK 8,56,2014-08-26T09:57,57,38.812149497534726,113
295,CDISCPILOT01,01-701-1015,LB,Placebo,Placebo,2014-01-02,2014-07-02,2014-03-05,63,Week 8,8,Aspartate Aminotransferase (U/L),AST,3,CHEMISTRY,SI,21,,9,34,81,AST,Aspartate Aminotransferase,CHEMISTRY,21,U/L,9,34,21,21,U/L,9,34,NORMAL,,Y,8,WEEK 8,56,2014-03-05T12:25,63,38.79277201076509,101
296,CDISCPILOT01,01-701-1028,LB,Insulin,Insulin,2013-07-19,2014-01-14,2013-09-10,54,Week 8,8,Aspartate Aminotransferase (U/L),AST,3,CHEMISTRY,SI,28,,11,36,81,AST,Aspartate Aminotransferase,CHEMISTRY,28,U/L,11,36,28,28,U/L,11,36,NORMAL,,Y,8,WEEK 8,56,2013-09-10T09:13,54,35.69479055417112,100
297,CDISCPILOT01,01-701-1034,LB,Insulin,Insulin,2014-07-01,2014-12-30,2014-08-26,57,Week 8,8,Aspartate Aminotransferase (U/L),AST,3,CHEMISTRY,SI,26,,9,34,81,AST,Aspartate Aminotransferase,CHEMISTRY,26,U/L,9,34,26,26,U/L,9,34,NORMAL,,Y,8,WEEK 8,56,2014-08-26T09:57,57,38.812149497534726,113
298,CDISCPILOT01,01-701-1015,LB,Placebo,Placebo,2014-01-02,2014-07-02,2014-03-05,63,Week 8,8,Cholesterol (mmol/L),CHOLES,4,CHEMISTRY,SI,5.53404,,4.029999999999999,7.76,82,CHOL,Cholesterol,CHEMISTRY,214,mg/dL,156,300,5.53404,5.53404,mmol/L,4.029999999999999,7.76,NORMAL,,Y,8,WEEK 8,56,2014-03-05T12:25,63,38.79277201076509,101
299,CDISCPILOT01,01-701-1028,LB,Insulin,Insulin,2013-07-19,2014-01-14,2013-09-10,54,Week 8,8,Cholesterol (mmol/L),CHOLES,4,CHEMISTRY,SI,4.42206,,3.85,7.3999999999999995,82,CHOL,Cholesterol,CHEMISTRY,171,mg/dL,149,286,4.42206,4.42206,mmol/L,3.85,7.3999999999999995,NORMAL,,Y,8,WEEK 8,56,2013-09-10T09:13,54,35.69479055417112,100
300,CDISCPILOT01,01-701-1034,LB,Insulin,Insulin,2014-07-01,2014-12-30,2014-08-26,57,Week 8,8,Cholesterol (mmol/L),CHOLES,4,CHEMISTRY,SI,7.525259999999999,,4.029999999999999,7.76,82,CHOL,Cholesterol,CHEMISTRY,291,mg/dL,156,300,7.52526,7.525259999999999,mmol/L,4.029999999999999,7.76,NORMAL,,Y,8,WEEK 8,56,2014-08-26T09:57,57,38.812149497534726,113
301,CDISCPILOT01,01-701-1015,LB,Placebo,Placebo,2014-01-02,2014-07-02,2014-03-05,63,Week 8,8,Gamma Glutamyl Transferase (U/L),GGT,5,CHEMISTRY,SI,14,,5,50,83,GGT,Gamma Glutamyl Transferase,CHEMISTRY,14,U/L,5,50,14,14,U/L,5,50,NORMAL,,Y,8,WEEK 8,56,2014-03-05T12:25,63,38.79277201076509,101
302,CDISCPILOT01,01-701-1028,LB,Insulin,Insulin,2013-07-19,2014-01-14,2013-09-10,54,Week 8,8,Gamma Glutamyl Transferase (U/L),GGT,5,CHEMISTRY,SI,24,,10,50,83,GGT,Gamma Glutamyl Transferase,CHEMISTRY,24,U/L,10,50,24,24,U/L,10,50,NORMAL,,Y,8,WEEK 8,56,2013-09-10T09:13,54,35.69479055417112,100
303,CDISCPILOT01,01-701-1034,LB,Insulin,Insulin,2014-07-01,2014-12-30,2014-08-26,57,Week 8,8,Gamma Glutamyl Transferase (U/L),GGT,5,CHEMISTRY,SI,17,,5,50,83,GGT,Gamma Glutamyl Transferase,CHEMISTRY,17,U/L,5,50,17,17,U/L,5,50,NORMAL,,Y,8,WEEK 8,56,2014-08-26T09:57,57,38.812149497534726,113
304,CDISCPILOT01,01-701-1015,LB,Placebo,Placebo,2014-01-02,2014-07-02,2014-03-05,63,Week 8,8,Glucose (mmol/L),GLUC,6,CHEMISTRY,SI,4.551819999999999,,2.8,13.899999999999999,84,GLUC,Glucose,CHEMISTRY,82,mg/dL,50,250,4.55182,4.551819999999999,mmol/L,2.8,13.899999999999999,NORMAL,,Y,8,WEEK 8,56,2014-03-05T12:25,63,38.79277201076509,101
305,CDISCPILOT01,01-701-1028,LB,Insulin,Insulin,2013-07-19,2014-01-14,2013-09-10,54,Week 8,8,Glucose (mmol/L),GLUC,6,CHEMISTRY,SI,5.10692,,2.8,13.899999999999999,84,GLUC,Glucose,CHEMISTRY,92,mg/dL,50,250,5.10692,5.10692,mmol/L,2.8,13.899999999999999,NORMAL,,Y,8,WEEK 8,56,2013-09-10T09:13,54,35.69479055417112,100
306,CDISCPILOT01,01-701-1034,LB,Insulin,Insulin,2014-07-01,2014-12-30,2014-08-26,57,Week 8,8,Glucose (mmol/L),GLUC,6,CHEMISTRY,SI,4.77386,,2.8,13.899999999999999,84,GLUC,Glucose,CHEMISTRY,86,mg/dL,50,250,4.77386,4.77386,mmol/L,2.8,13.899999999999999,NORMAL,,Y,8,WEEK 8,56,2014-08-26T09:57,57,38.812149497534726,113
307,CDISCPILOT01,01-701-1015,LB,Placebo,Placebo,2014-01-02,2014-07-02,2014-03-05,63,Week 8,8,Hemoglobin A1C/Hemoglobin (mmol/mol),HBA1CHGB,7,CHEMISTRY,SI,72.67785,,20.21865,38.79795000000001,85,HBA1CHGB,Hemoglobin A1C/Hemoglobin,CHEMISTRY,8.8,%,4.0,5.7,72.67785,72.67785,mmol/mol,20.21865,38.79795000000001,HIGH,,Y,8,WEEK 8,56,2014-03-05T12:25,63,38.79277201076509,101
308,CDISCPILOT01,01-701-1028,LB,Insulin,Insulin,2013-07-19,2014-01-14,2013-09-10,54,Week 8,8,Hemoglobin A1C/Hemoglobin (mmol/mol),HBA1CHGB,7,CHEMISTRY,SI,65.02754999999999,,20.21865,38.79795000000001,85,HBA1CHGB,Hemoglobin A1C/Hemoglobin,CHEMISTRY,8.1,%,4.0,5.7,65.02755,65.02754999999999,mmol/mol,20.21865,38.79795000000001,HIGH,,Y,8,WEEK 8,56,2013-09-10T09:13,54,35.69479055417112,100
309,CDISCPILOT01,01-701-1034,LB,Insulin,Insulin,2014-07-01,2014-12-30,2014-08-26,57,Week 8,8,Hemoglobin A1C/Hemoglobin (mmol/mol),HBA1CHGB,7,CHEMISTRY,SI,51.91275,,20.21865,38.79795000000001,85,HBA1CHGB,Hemoglobin A1C/Hemoglobin,CHEMISTRY,6.9,%,4.0,5.7,51.91275,51.91275,mmol/mol,20.21865,38.79795000000001,HIGH,,Y,8,WEEK 8,56,2014-08-26T09:57,57,38.812149497534726,113
310,CDISCPILOT01,01-701-1015,,Placebo,Placebo,2014-01-02,2014-07-02,2013-12-26,-7,Baseline,0,Homeostasis Model Assessment - Insulin Resistance,HOMAIR,10,,,3.019744,,,,,,,,,,,,,,,,,,,,,,,,,,
311,CDISCPILOT01,01-701-1023,,Placebo,Placebo,2012-08-05,2012-09-01,2012-07-22,-14,Baseline,0,Homeostasis Model Assessment - Insulin Resistance,HOMAIR,10,,,6.513173333333333,,,,,,,,,,,,,,,,,,,,,,,,,,
312,CDISCPILOT01,01-701-1028,,Insulin,Insulin,2013-07-19,2014-01-14,2013-07-11,-8,Baseline,0,Homeostasis Model Assessment - Insulin Resistance,HOMAIR,10,,,5.5376776,,,,,,,,,,,,,,,,,,,,,,,,,,
313,CDISCPILOT01,01-701-1033,,Insulin,Insulin,2014-03-18,2014-03-31,2014-03-10,-8,Baseline,0,Homeostasis Model Assessment - Insulin Resistance,HOMAIR,10,,,6.816627999999999,,,,,,,,,,,,,,,,,,,,,,,,,,
314,CDISCPILOT01,01-701-1034,,Insulin,Insulin,2014-07-01,2014-12-30,2014-06-24,-7,Baseline,0,Homeostasis Model Assessment - Insulin Resistance,HOMAIR,10,,,3.9367691999999996,,,,,,,,,,,,,,,,,,,,,,,,,,
315,CDISCPILOT01,01-701-1015,,Placebo,Placebo,2014-01-02,2014-07-02,2014-03-26,84,Week 12,12,Homeostasis Model Assessment - Insulin Resistance,HOMAIR,10,,,6.675262533333334,,,,,,,,,,,,,,,,,,,,,,,,,,
316,CDISCPILOT01,01-701-1028,,Insulin,Insulin,2013-07-19,2014-01-14,2013-10-09,83,Week 12,12,Homeostasis Model Assessment - Insulin Resistance,HOMAIR,10,,,7.8987029333333325,,,,,,,,,,,,,,,,,,,,,,,,,,
317,CDISCPILOT01,01-701-1034,,Insulin,Insulin,2014-07-01,2014-12-30,2014-09-25,87,Week 12,12,Homeostasis Model Assessment - Insulin Resistance,HOMAIR,10,,,6.712762622222221,,,,,,,,,,,,,,,,,,,,,,,,,,
318,CDISCPILOT01,01-701-1015,,Placebo,Placebo,2014-01-02,2014-07-02,2014-05-07,126,Week 16,16,Homeostasis Model Assessment - Insulin Resistance,HOMAIR,10,,,8.635382311111112,,,,,,,,,,,,,,,,,,,,,,,,,,
319,CDISCPILOT01,01-701-1028,,Insulin,Insulin,2013-07-19,2014-01-14,2013-11-06,111,Week 16,16,Homeostasis Model Assessment - Insulin Resistance,HOMAIR,10,,,4.485948133333333,,,,,,,,,,,,,,,,,,,,,,,,,,
320,CDISCPILOT01,01-701-1034,,Insulin,Insulin,2014-07-01,2014-12-30,2014-10-21,113,Week 16,16,Homeostasis Model Assessment - Insulin Resistance,HOMAIR,10,,,2.6102035555555556,,,,,,,,,,,,,,,,,,,,,,,,,,
321,CDISCPILOT01,01-701-1015,,Placebo,Placebo,2014-01-02,2014-07-02,2014-01-16,15,Week 2,2,Homeostasis Model Assessment - Insulin Resistance,HOMAIR,10,,,8.289493333333333,,,,,,,,,,,,,,,,,,,,,,,,,,
322,CDISCPILOT01,01-701-1023,,Placebo,Placebo,2012-08-05,2012-09-01,2012-08-27,23,Week 2,2,Homeostasis Model Assessment - Insulin Resistance,HOMAIR,10,,,11.135552711111112,,,,,,,,,,,,,,,,,,,,,,,,,,
323,CDISCPILOT01,01-701-1028,,Insulin,Insulin,2013-07-19,2014-01-14,2013-08-01,14,Week 2,2,Homeostasis Model Assessment - Insulin Resistance,HOMAIR,10,,,6.365146666666665,,,,,,,,,,,,,,,,,,,,,,,,,,
324,CDISCPILOT01,01-701-1033,,Insulin,Insulin,2014-03-18,2014-03-31,2014-04-01,15,Week 2,2,Homeostasis Model Assessment - Insulin Resistance,HOMAIR,10,,,1.6263196444444445,,,,,,,,,,,,,,,,,,,,,,,,,,
325,CDISCPILOT01,01-701-1034,,Insulin,Insulin,2014-07-01,2014-12-30,2014-07-15,15,Week 2,2,Homeostasis Model Assessment - Insulin Resistance,HOMAIR,10,,,3.145566666666667,,,,,,,,,,,,,,,,,,,,,,,,,,
326,CDISCPILOT01,01-701-1015,,Placebo,Placebo,2014-01-02,2014-07-02,2014-05-21,140,Week 20,20,Homeostasis Model Assessment - Insulin Resistance,HOMAIR,10,,,3.4954030222222223,,,,,,,,,,,,,,,,,,,,,,,,,,
327,CDISCPILOT01,01-701-1028,,Insulin,Insulin,2013-07-19,2014-01-14,2013-12-04,139,Week 20,20,Homeostasis Model Assessment - Insulin Resistance,HOMAIR,10,,,6.57485111111111,,,,,,,,,,,,,,,,,,,,,,,,,,
328,CDISCPILOT01,01-701-1034,,Insulin,Insulin,2014-07-01,2014-12-30,2014-11-18,141,Week 20,20,Homeostasis Model Assessment - Insulin Resistance,HOMAIR,10,,,1.8458925333333331,,,,,,,,,,,,,,,,,,,,,,,,,,
329,CDISCPILOT01,01-701-1015,,Placebo,Placebo,2014-01-02,2014-07-02,2014-06-18,168,Week 24,24,Homeostasis Model Assessment - Insulin Resistance,HOMAIR,10,,,6.354784799999999,,,,,,,,,,,,,,,,,,,,,,,,,,
330,CDISCPILOT01,01-701-1028,,Insulin,Insulin,2013-07-19,2014-01-14,2014-01-06,172,Week 24,24,Homeostasis Model Assessment - Insulin Resistance,HOMAIR,10,,,2.780434222222222,,,,,,,,,,,,,,,,,,,,,,,,,,
331,CDISCPILOT01,01-701-1034,,Insulin,Insulin,2014-07-01,2014-12-30,2014-12-17,170,Week 24,24,Homeostasis Model Assessment - Insulin Resistance,HOMAIR,10,,,7.195082844444444,,,,,,,,,,,,,,,,,,,,,,,,,,
332,CDISCPILOT01,01-701-1015,,Placebo,Placebo,2014-01-02,2014-07-02,2014-07-02,182,Week 26,26,Homeostasis Model Assessment - Insulin Resistance,HOMAIR,10,,,6.854621511111111,,,,,,,,,,,,,,,,,,,,,,,,,,
333,CDISCPILOT01,01-701-1028,,Insulin,Insulin,2013-07-19,2014-01-14,2014-01-14,180,Week 26,26,Homeostasis Model Assessment - Insulin Resistance,HOMAIR,10,,,3.7125088000000006,,,,,,,,,,,,,,,,,,,,,,,,,,
334,CDISCPILOT01,01-701-1034,,Insulin,Insulin,2014-07-01,2014-12-30,2014-12-30,183,Week 26,26,Homeostasis Model Assessment - Insulin Resistance,HOMAIR,10,,,6.556101066666666,,,,,,,,,,,,,,,,,,,,,,,,,,
335,CDISCPILOT01,01-701-1015,,Placebo,Placebo,2014-01-02,2014-07-02,2014-02-12,42,Week 6,6,Homeostasis Model Assessment - Insulin Resistance,HOMAIR,10,,,5.606263288888888,,,,,,,,,,,,,,,,,,,,,,,,,,
336,CDISCPILOT01,01-701-1028,,Insulin,Insulin,2013-07-19,2014-01-14,2013-08-29,42,Week 6,6,Homeostasis Model Assessment - Insulin Resistance,HOMAIR,10,,,5.7375136,,,,,,,,,,,,,,,,,,,,,,,,,,
337,CDISCPILOT01,01-701-1034,,Insulin,Insulin,2014-07-01,2014-12-30,2014-08-11,42,Week 6,6,Homeostasis Model Assessment - Insulin Resistance,HOMAIR,10,,,7.9786373333333325,,,,,,,,,,,,,,,,,,,,,,,,,,
338,CDISCPILOT01,01-701-1015,,Placebo,Placebo,2014-01-02,2014-07-02,2014-03-05,63,Week 8,8,Homeostasis Model Assessment - Insulin Resistance,HOMAIR,10,,,4.3697472,,,,,,,,,,,,,,,,,,,,,,,,,,
339,CDISCPILOT01,01-701-1028,,Insulin,Insulin,2013-07-19,2014-01-14,2013-09-10,54,Week 8,8,Homeostasis Model Assessment - Insulin Resistance,HOMAIR,10,,,3.1322442666666666,,,,,,,,,,,,,,,,,,,,,,,,,,
340,CDISCPILOT01,01-701-1034,,Insulin,Insulin,2014-07-01,2014-12-30,2014-08-26,57,Week 8,8,Homeostasis Model Assessment - Insulin Resistance,HOMAIR,10,,,9.123376888888888,,,,,,,,,,,,,,,,,,,,,,,,,,
341,CDISCPILOT01,01-701-1015,,Placebo,Placebo,2014-01-02,2014-07-02,2013-12-26,-7,Baseline,0,Fatty Liver Index,FLI,11,,,77.417119601393,,,,,,,,,,,,,,,,,,,,,,,,,38.10500234952369,99
342,CDISCPILOT01,01-701-1023,,Placebo,Placebo,2012-08-05,2012-09-01,2012-07-22,-14,Baseline,0,Fatty Liver Index,FLI,11,,,73.6449885448263,,,,,,,,,,,,,,,,,,,,,,,,,38.55257168866636,106
343,CDISCPILOT01,01-701-1028,,Insulin,Insulin,2013-07-19,2014-01-14,2013-07-11,-8,Baseline,0,Fatty Liver Index,FLI,11,,,72.32378559512485,,,,,,,,,,,,,,,,,,,,,,,,,37.63300502353547,105
344,CDISCPILOT01,01-701-1033,,Insulin,Insulin,2014-03-18,2014-03-31,2014-03-10,-8,Baseline,0,Fatty Liver Index,FLI,11,,,94.70784828234784,,,,,,,,,,,,,,,,,,,,,,,,,40.78673289536933,108
345,CDISCPILOT01,01-701-1034,,Insulin,Insulin,2014-07-01,2014-12-30,2014-06-24,-7,Baseline,0,Fatty Liver Index,FLI,11,,,96.64171867715375,,,,,,,,,,,,,,,,,,,,,,,,,40.694041928563365,115
346,CDISCPILOT01,01-701-1015,,Placebo,Placebo,2014-01-02,2014-07-02,2014-03-26,84,Week 12,12,Fatty Liver Index,FLI,11,,,69.50607882975295,,,,,,,,,,,,,,,,,,,,,,,,,38.95937459951301,102
347,CDISCPILOT01,01-701-1028,,Insulin,Insulin,2013-07-19,2014-01-14,2013-10-09,83,Week 12,12,Fatty Liver Index,FLI,11,,,85.11171250922243,,,,,,,,,,,,,,,,,,,,,,,,,35.33483643843203,99.4
348,CDISCPILOT01,01-701-1034,,Insulin,Insulin,2014-07-01,2014-12-30,2014-09-25,87,Week 12,12,Fatty Liver Index,FLI,11,,,81.40509037324995,,,,,,,,,,,,,,,,,,,,,,,,,37.67925025405548,110
349,CDISCPILOT01,01-701-1015,,Placebo,Placebo,2014-01-02,2014-07-02,2014-05-07,126,Week 16,16,Fatty Liver Index,FLI,11,,,51.45346376168415,,,,,,,,,,,,,,,,,,,,,,,,,38.57917894826776,102.5
350,CDISCPILOT01,01-701-1028,,Insulin,Insulin,2013-07-19,2014-01-14,2013-11-06,111,Week 16,16,Fatty Liver Index,FLI,11,,,79.46796655109826,,,,,,,,,,,,,,,,,,,,,,,,,35.133103912028794,99
351,CDISCPILOT01,01-701-1034,,Insulin,Insulin,2014-07-01,2014-12-30,2014-10-21,113,Week 16,16,Fatty Liver Index,FLI,11,,,92.14572606210584,,,,,,,,,,,,,,,,,,,,,,,,,36.66679212616207,109.2
352,CDISCPILOT01,01-701-1015,,Placebo,Placebo,2014-01-02,2014-07-02,2014-01-16,15,Week 2,2,Fatty Liver Index,FLI,11,,,52.97117784481152,,,,,,,,,,,,,,,,,,,,,,,,,38.53218847451835,100
353,CDISCPILOT01,01-701-1023,,Placebo,Placebo,2012-08-05,2012-09-01,2012-08-27,23,Week 2,2,Fatty Liver Index,FLI,11,,,92.68623542054141,,,,,,,,,,,,,,,,,,,,,,,,,38.972725044641294,107.8
354,CDISCPILOT01,01-701-1028,,Insulin,Insulin,2013-07-19,2014-01-14,2013-08-01,14,Week 2,2,Fatty Liver Index,FLI,11,,,85.28804219650348,,,,,,,,,,,,,,,,,,,,,,,,,37.273050907796375,104
355,CDISCPILOT01,01-701-1033,,Insulin,Insulin,2014-03-18,2014-03-31,2014-04-01,15,Week 2,2,Fatty Liver Index,FLI,11,,,95.7608150669675,,,,,,,,,,,,,,,,,,,,,,,,,40.31405223521872,107
356,CDISCPILOT01,01-701-1034,,Insulin,Insulin,2014-07-01,2014-12-30,2014-07-15,15,Week 2,2,Fatty Liver Index,FLI,11,,,95.84998727772383,,,,,,,,,,,,,,,,,,,,,,,,,39.674056230945844,114
357,CDISCPILOT01,01-701-1015,,Placebo,Placebo,2014-01-02,2014-07-02,2014-05-21,140,Week 20,20,Fatty Liver Index,FLI,11,,,91.01193729303337,,,,,,,,,,,,,,,,,,,,,,,,,39.031996240762105,102.7
358,CDISCPILOT01,01-701-1028,,Insulin,Insulin,2013-07-19,2014-01-14,2013-12-04,139,Week 20,20,Fatty Liver Index,FLI,11,,,73.26003013275567,,,,,,,,,,,,,,,,,,,,,,,,,34.86808274989123,97
359,CDISCPILOT01,01-701-1034,,Insulin,Insulin,2014-07-01,2014-12-30,2014-11-18,141,Week 20,20,Fatty Liver Index,FLI,11,,,72.81496158407974,,,,,,,,,,,,,,,,,,,,,,,,,36.48989423764538,109
360,CDISCPILOT01,01-701-1015,,Placebo,Placebo,2014-01-02,2014-07-02,2014-06-18,168,Week 24,24,Fatty Liver Index,FLI,11,,,93.15696916013003,,,,,,,,,,,,,,,,,,,,,,,,,39.10888974326114,104
361,CDISCPILOT01,01-701-1028,,Insulin,Insulin,2013-07-19,2014-01-14,2014-01-06,172,Week 24,24,Fatty Liver Index,FLI,11,,,77.05967197330583,,,,,,,,,,,,,,,,,,,,,,,,,34.436928918951,96
362,CDISCPILOT01,01-701-1034,,Insulin,Insulin,2014-07-01,2014-12-30,2014-12-17,170,Week 24,24,Fatty Liver Index,FLI,11,,,89.42988579610378,,,,,,,,,,,,,,,,,,,,,,,,,35.70326320147541,108
363,CDISCPILOT01,01-701-1015,,Placebo,Placebo,2014-01-02,2014-07-02,2014-07-02,182,Week 26,26,Fatty Liver Index,FLI,11,,,88.77354750268206,,,,,,,,,,,,,,,,,,,,,,,,,39.77102823700286,105
364,CDISCPILOT01,01-701-1028,,Insulin,Insulin,2013-07-19,2014-01-14,2014-01-14,180,Week 26,26,Fatty Liver Index,FLI,11,,,58.80621811461235,,,,,,,,,,,,,,,,,,,,,,,,,34.06510818401171,95
365,CDISCPILOT01,01-701-1034,,Insulin,Insulin,2014-07-01,2014-12-30,2014-12-30,183,Week 26,26,Fatty Liver Index,FLI,11,,,81.54936515118362,,,,,,,,,,,,,,,,,,,,,,,,,35.42097933682111,107
366,CDISCPILOT01,01-701-1015,,Placebo,Placebo,2014-01-02,2014-07-02,2014-02-12,42,Week 6,6,Fatty Liver Index,FLI,11,,,83.46848857063972,,,,,,,,,,,,,,,,,,,,,,,,,38.677431757016535,101
367,CDISCPILOT01,01-701-1028,,Insulin,Insulin,2013-07-19,2014-01-14,2013-08-29,42,Week 6,6,Fatty Liver Index,FLI,11,,,79.58381355434634,,,,,,,,,,,,,,,,,,,,,,,,,36.21296625924607,101
368,CDISCPILOT01,01-701-1034,,Insulin,Insulin,2014-07-01,2014-12-30,2014-08-11,42,Week 6,6,Fatty Liver Index,FLI,11,,,90.84529689561914,,,,,,,,,,,,,,,,,,,,,,,,,39.011630095223765,112
369,CDISCPILOT01,01-701-1015,,Placebo,Placebo,2014-01-02,2014-07-02,2014-03-05,63,Week 8,8,Fatty Liver Index,FLI,11,,,81.29595977306056,,,,,,,,,,,,,,,,,,,,,,,,,38.79277201076509,101
370,CDISCPILOT01,01-701-1028,,Insulin,Insulin,2013-07-19,2014-01-14,2013-09-10,54,Week 8,8,Fatty Liver Index,FLI,11,,,79.64203105195323,,,,,,,,,,,,,,,,,,,,,,,,,35.69479055417112,100
371,CDISCPILOT01,01-701-1034,,Insulin,Insulin,2014-07-01,2014-12-30,2014-08-26,57,Week 8,8,Fatty Liver Index,FLI,11,,,89.60009510348114,,,,,,,,,,,,,,,,,,,,,,,,,38.812149497534726,113
