rownames,STUDYID,USUBJID,SUBJID,SITEID,COUNTRY,DOMAIN,RFSTDTC,RFENDTC,RFXSTDTC,RFXENDTC,RFPENDTC,SCRFDT,FRVDT,DTHDTC,DTHADY,DTHFL,LDDTHELD,LDDTHGR1,DTH30FL,DTHA30FL,DTHDOM,DTHB30FL,REGION1,DMDTC,DMDY,AGE,AGEU,AGEGR1,SEX,RACE,RACEGR1,ETHNIC,SAFFL,ARM,ARMCD,ACTARM,ACTARMCD,TRTP,TRTA,TRT01P,TRT01A,TRTSDT,TRTSDTM,TRTSTMF,TRTEDT,TRTEDTM,TRTETMF,APHASE,APHASEN,EOSSTT,EOSDT,RFICDTC,RANDDT,LSTALVDT,TRTDURD,DTHDT,DTHDTF,DTHCAUS,DTHCGR1,MHSEQ,MHTERM,MHTERMN,MHDECOD,MHBODSYS,MHLLT,MHHLT,MHHLGT,MHCAT,MHSTDTC,ASTDT,MHENDTC,AENDT,ASTDY,AENDY,MHOCCUR,MHPRESP,ANL01FL,AOCCFL,AOCCPFL,AOCCSFL,MHSPID,MHSEV,VISITNUM,VISIT,VISITDY,MHDTC,MHDY,MHSTRTPT,MHENRTPT,MHSTTPT,MHENTPT,MHENRF,MHSTAT,ADT,ADY,SMQ02NAM,SMQ02CD,SMQ02SC,SMQ02SCN,SMQ03NAM,SMQ03CD,SMQ03SC,SMQ03SCN,SMQ05NAM,SMQ05CD,SMQ05SC,SMQ05SCN,CQ01NAM,CQ04NAM,CQ04CD,AHIST,AOCPFL,AOCPSFL,AOCPPFL
1,CDISCPILOT01,01-701-1015,1015,701,USA,MH,2014-01-02,2014-07-02,2014-01-02,2014-07-02,2014-07-02T11:45,,,,,,,,,,,,NA,2013-12-26,-7,63,YEARS,18-64,F,WHITE,White,HISPANIC OR LATINO,Y,Placebo,Pbo,Placebo,Pbo,Placebo,Placebo,Placebo,Placebo,2014-01-02,2014-01-02T00:00:00Z,H,2014-07-02,2014-07-02T23:59:59Z,H,Screening,1,COMPLETED,2014-07-02,,2014-01-02,2014-07-02,182,,,,,9,ALZHEIMER'S DISEASE,1,,,,,,PRIMARY DIAGNOSIS,2010-04-30,2010-04-30,2011-03-20,2011-03-20,-1343,-1019,Y,Y,Y,Y,Y,Y,,,1,SCREENING 1,-7,2013-12-26,-7,,BEFORE,,SCREENING,BEFORE,,2013-12-26,-7,,,,,,,,,,,,,,,,Past,Y,Y,Y
2,CDISCPILOT01,01-701-1023,1023,701,USA,MH,2012-08-05,2012-09-02,2012-08-05,2012-09-01,2013-02-18,,2013-02-18,,,,,,,,,,NA,2012-07-22,-14,64,YEARS,18-64,M,WHITE,White,HISPANIC OR LATINO,Y,Placebo,Pbo,Placebo,Pbo,Placebo,Placebo,Placebo,Placebo,2012-08-05,2012-08-05T00:00:00Z,H,2012-09-01,2012-09-01T23:59:59Z,H,Screening,1,DISCONTINUED,2012-09-02,,2012-08-05,2012-09-02,28,,,,,16,ALZHEIMER'S DISEASE,1,,,,,,PRIMARY DIAGNOSIS,2006-03-11,2006-03-11,2006-11-29,2006-11-29,-2339,-2076,Y,Y,Y,Y,Y,Y,,,1,SCREENING 1,-7,2012-07-22,-14,,BEFORE,,SCREENING,BEFORE,,2012-07-22,-14,,,,,,,,,,,,,,,,Past,Y,Y,Y
3,CDISCPILOT01,01-701-1028,1028,701,USA,MH,2013-07-19,2014-01-14,2013-07-19,2014-01-14,2014-01-14T11:10,,,,,,,,,,,,NA,2013-07-11,-8,71,YEARS,>64,M,WHITE,White,NOT HISPANIC OR LATINO,Y,Xanomeline High Dose,Xan_Hi,Xanomeline High Dose,Xan_Hi,Xanomeline High Dose,Xanomeline High Dose,Xanomeline High Dose,Xanomeline High Dose,2013-07-19,2013-07-19T00:00:00Z,H,2014-01-14,2014-01-14T23:59:59Z,H,Screening,1,COMPLETED,2014-01-14,,2013-07-19,2014-01-14,180,,,,,6,ALZHEIMER'S DISEASE,1,,,,,,PRIMARY DIAGNOSIS,2009-12-16,2009-12-16,2010-11-24,2010-11-24,-1311,-968,Y,Y,Y,Y,Y,Y,,,1,SCREENING 1,-7,2013-07-11,-8,,BEFORE,,SCREENING,BEFORE,,2013-07-11,-8,,,,,,,,,,,,,,,,Past,Y,Y,Y
4,CDISCPILOT01,01-701-1033,1033,701,USA,MH,2014-03-18,2014-04-14,2014-03-18,2014-03-31,2014-09-15,,2014-09-15,,,,,,,,,,NA,2014-03-10,-8,74,YEARS,>64,M,WHITE,White,NOT HISPANIC OR LATINO,Y,Xanomeline Low Dose,Xan_Lo,Xanomeline Low Dose,Xan_Lo,Xanomeline Low Dose,Xanomeline Low Dose,Xanomeline Low Dose,Xanomeline Low Dose,2014-03-18,2014-03-18T00:00:00Z,H,2014-03-31,2014-03-31T23:59:59Z,H,Screening,1,DISCONTINUED,2014-04-14,,2014-03-18,2014-04-14,14,,,,,26,ALZHEIMER'S DISEASE,1,,,,,,PRIMARY DIAGNOSIS,2009-08-02,2009-08-02,2010-08-12,2010-08-12,-1689,-1314,Y,Y,Y,Y,Y,Y,,,1,SCREENING 1,-7,2014-03-10,-8,,BEFORE,,SCREENING,BEFORE,,2014-03-10,-8,,,,,,,,,,,,,,,,Past,Y,Y,Y
5,CDISCPILOT01,01-701-1034,1034,701,USA,MH,2014-07-01,2014-12-30,2014-07-01,2014-12-30,2014-12-30T09:50,,,,,,,,,,,,NA,2014-06-24,-7,77,YEARS,>64,F,WHITE,White,NOT HISPANIC OR LATINO,Y,Xanomeline High Dose,Xan_Hi,Xanomeline High Dose,Xan_Hi,Xanomeline High Dose,Xanomeline High Dose,Xanomeline High Dose,Xanomeline High Dose,2014-07-01,2014-07-01T00:00:00Z,H,2014-12-30,2014-12-30T23:59:59Z,H,Screening,1,COMPLETED,2014-12-30,,2014-07-01,2014-12-30,183,,,,,13,ALZHEIMER'S DISEASE,1,,,,,,PRIMARY DIAGNOSIS,2011-09-29,2011-09-29,2012-05-03,2012-05-03,-1006,-789,Y,Y,Y,,Y,Y,,,1,SCREENING 1,-7,2014-06-24,-7,,BEFORE,,SCREENING,BEFORE,,2014-06-24,-7,,,,,,,,,,,,,,,,Past,,Y,Y
6,CDISCPILOT01,01-701-1047,1047,701,USA,MH,2013-02-12,2013-03-29,2013-02-12,2013-03-09,2013-07-28,,2013-07-28,,,,,,,,,,NA,2013-01-22,-21,85,YEARS,>64,F,WHITE,White,NOT HISPANIC OR LATINO,Y,Placebo,Pbo,Placebo,Pbo,Placebo,Placebo,Placebo,Placebo,2013-02-12,2013-02-12T00:00:00Z,H,2013-03-09,2013-03-09T23:59:59Z,H,Screening,1,DISCONTINUED,2013-03-29,,2013-02-12,2013-04-07,26,,,,,14,ALZHEIMER'S DISEASE,1,,,,,,PRIMARY DIAGNOSIS,2009-07-26,2009-07-26,2010-05-09,2010-05-09,-1297,-1010,Y,Y,Y,Y,Y,Y,,,1,SCREENING 1,-7,2013-01-22,-21,,BEFORE,,SCREENING,BEFORE,,2013-01-22,-21,,,,,,,,,,,,,,,,Past,Y,Y,Y
7,CDISCPILOT01,01-701-1097,1097,701,USA,MH,2014-01-01,2014-07-09,2014-01-01,2014-07-09,2014-07-09T09:39,,,,,,,,,,,,NA,2013-12-23,-9,68,YEARS,>64,M,WHITE,White,NOT HISPANIC OR LATINO,Y,Xanomeline Low Dose,Xan_Lo,Xanomeline Low Dose,Xan_Lo,Xanomeline Low Dose,Xanomeline Low Dose,Xanomeline Low Dose,Xanomeline Low Dose,2014-01-01,2014-01-01T00:00:00Z,H,2014-07-09,2014-07-09T23:59:59Z,H,Screening,1,COMPLETED,2014-07-09,,2014-01-01,2014-07-09,190,,,,,4,ALZHEIMER'S DISEASE,1,,,,,,PRIMARY DIAGNOSIS,2005-09-22,2005-09-22,2006-07-09,2006-07-09,-3023,-2733,Y,Y,Y,Y,Y,Y,,,1,SCREENING 1,-7,2013-12-23,-9,,BEFORE,,SCREENING,BEFORE,,2013-12-23,-9,,,,,,,,,,,,,,,,Past,Y,Y,Y
8,CDISCPILOT01,01-701-1111,1111,701,USA,MH,2012-09-07,2012-09-17,2012-09-07,2012-09-16,2013-02-22,,2013-02-22,,,,,,,,,,NA,2012-08-25,-13,81,YEARS,>64,F,WHITE,White,NOT HISPANIC OR LATINO,Y,Xanomeline Low Dose,Xan_Lo,Xanomeline Low Dose,Xan_Lo,Xanomeline Low Dose,Xanomeline Low Dose,Xanomeline Low Dose,Xanomeline Low Dose,2012-09-07,2012-09-07T00:00:00Z,H,2012-09-16,2012-09-16T23:59:59Z,H,Screening,1,DISCONTINUED,2012-09-17,,2012-09-07,2012-09-17,10,,,,,29,ALZHEIMER'S DISEASE,1,,,,,,PRIMARY DIAGNOSIS,2009-04-04,2009-04-04,2010-01-14,2010-01-14,-1252,-967,Y,Y,Y,Y,Y,Y,,,1,SCREENING 1,-7,2012-08-25,-13,,BEFORE,,SCREENING,BEFORE,,2012-08-25,-13,,,,,,,,,,,,,,,,Past,Y,Y,Y
9,CDISCPILOT01,01-701-1115,1115,701,USA,MH,2012-11-30,2013-01-23,2012-11-30,2013-01-23,2013-05-20,,2013-05-20,,,,,,,,,,NA,2012-11-23,-7,84,YEARS,>64,M,WHITE,White,NOT HISPANIC OR LATINO,Y,Xanomeline Low Dose,Xan_Lo,Xanomeline Low Dose,Xan_Lo,Xanomeline Low Dose,Xanomeline Low Dose,Xanomeline Low Dose,Xanomeline Low Dose,2012-11-30,2012-11-30T00:00:00Z,H,2013-01-23,2013-01-23T23:59:59Z,H,Screening,1,DISCONTINUED,2013-01-23,,2012-11-30,2013-01-23,55,,,,,13,ALZHEIMER'S DISEASE,1,,,,,,PRIMARY DIAGNOSIS,2004-05-28,2004-05-28,2004-07-16,2004-07-16,-3108,-3059,Y,Y,Y,Y,Y,Y,,,1,SCREENING 1,-7,2012-11-23,-7,,BEFORE,,SCREENING,BEFORE,,2012-11-23,-7,,,,,,,,,,,,,,,,Past,Y,Y,Y
10,CDISCPILOT01,01-701-1118,1118,701,USA,MH,2014-03-12,2014-09-09,2014-03-12,2014-09-09,2014-09-09T13:28,,,,,,,,,,,,NA,2014-02-27,-13,52,YEARS,18-64,M,WHITE,White,NOT HISPANIC OR LATINO,Y,Placebo,Pbo,Placebo,Pbo,Placebo,Placebo,Placebo,Placebo,2014-03-12,2014-03-12T00:00:00Z,H,2014-09-09,2014-09-09T23:59:59Z,H,Screening,1,COMPLETED,2014-09-09,,2014-03-12,2014-09-09,182,,,,,8,ALZHEIMER'S DISEASE,1,,,,,,PRIMARY DIAGNOSIS,2010-06-24,2010-06-24,2010-08-16,2010-08-16,-1357,-1304,Y,Y,Y,Y,Y,Y,,,1,SCREENING 1,-7,2014-02-27,-13,,BEFORE,,SCREENING,BEFORE,,2014-02-27,-13,,,,,,,,,,,,,,,,Past,Y,Y,Y
11,CDISCPILOT01,01-701-1130,1130,701,USA,MH,2014-02-15,2014-08-16,2014-02-15,2014-08-16,2014-08-16T13:10,,,,,,,,,,,,NA,2014-02-09,-6,84,YEARS,>64,M,WHITE,White,NOT HISPANIC OR LATINO,Y,Placebo,Pbo,Placebo,Pbo,Placebo,Placebo,Placebo,Placebo,2014-02-15,2014-02-15T00:00:00Z,H,2014-08-16,2014-08-16T23:59:59Z,H,Screening,1,COMPLETED,2014-08-16,,2014-02-15,2014-08-16,183,,,,,13,ALZHEIMER'S DISEASE,1,,,,,,PRIMARY DIAGNOSIS,2010-05-22,2010-05-22,2010-09-04,2010-09-04,-1365,-1260,Y,Y,Y,Y,Y,Y,,,1,SCREENING 1,-7,2014-02-09,-6,,BEFORE,,SCREENING,BEFORE,,2014-02-09,-6,,,,,,,,,,,,,,,,Past,,Y,Y
12,CDISCPILOT01,01-701-1133,1133,701,USA,MH,2012-10-28,2013-04-29,2012-10-28,2013-04-28,2013-04-29T10:13,,,,,,,,,,,,NA,2012-10-23,-5,81,YEARS,>64,F,WHITE,White,NOT HISPANIC OR LATINO,Y,Xanomeline High Dose,Xan_Hi,Xanomeline High Dose,Xan_Hi,Xanomeline High Dose,Xanomeline High Dose,Xanomeline High Dose,Xanomeline High Dose,2012-10-28,2012-10-28T00:00:00Z,H,2013-04-28,2013-04-28T23:59:59Z,H,Screening,1,COMPLETED,2013-04-29,,2012-10-28,2013-04-29,183,,,,,11,ALZHEIMER'S DISEASE,1,,,,,,PRIMARY DIAGNOSIS,2010-03-11,2010-03-11,2010-12-01,2010-12-01,-962,-697,Y,Y,Y,Y,Y,Y,,,1,SCREENING 1,-7,2012-10-23,-5,,BEFORE,,SCREENING,BEFORE,,2012-10-23,-5,,,,,,,,,,,,,,,,Past,Y,Y,Y
13,CDISCPILOT01,01-701-1146,1146,701,USA,MH,2013-05-20,2013-06-30,2013-05-20,2013-06-26,2013-07-15,,,,,,,,,,,,NA,2013-05-07,-13,75,YEARS,>64,F,WHITE,White,NOT HISPANIC OR LATINO,Y,Xanomeline High Dose,Xan_Hi,Xanomeline High Dose,Xan_Hi,Xanomeline High Dose,Xanomeline High Dose,Xanomeline High Dose,Xanomeline High Dose,2013-05-20,2013-05-20T00:00:00Z,H,2013-06-26,2013-06-26T23:59:59Z,H,Screening,1,DISCONTINUED,2013-06-30,,2013-05-20,2013-06-30,38,,,,,11,ALZHEIMER'S DISEASE,1,,,,,,PRIMARY DIAGNOSIS,2009-11-17,2009-11-17,2010-03-23,2010-03-23,-1280,-1154,Y,Y,Y,Y,Y,Y,,,1,SCREENING 1,-7,2013-05-07,-13,,BEFORE,,SCREENING,BEFORE,,2013-05-07,-13,,,,,,,,,,,,,,,,Past,Y,Y,Y
14,CDISCPILOT01,01-701-1148,1148,701,USA,MH,2013-08-23,2014-02-20,2013-08-23,2014-02-20,2014-02-20T15:07,,,,,,,,,,,,NA,2013-08-14,-9,57,YEARS,18-64,M,WHITE,White,NOT HISPANIC OR LATINO,Y,Xanomeline High Dose,Xan_Hi,Xanomeline High Dose,Xan_Hi,Xanomeline High Dose,Xanomeline High Dose,Xanomeline High Dose,Xanomeline High Dose,2013-08-23,2013-08-23T00:00:00Z,H,2014-02-20,2014-02-20T23:59:59Z,H,Screening,1,COMPLETED,2014-02-20,,2013-08-23,2014-02-20,182,,,,,29,ALZHEIMER'S DISEASE,1,,,,,,PRIMARY DIAGNOSIS,2010-12-12,2010-12-12,2011-10-13,2011-10-13,-985,-680,Y,Y,Y,Y,Y,Y,,,1,SCREENING 1,-7,2013-08-14,-9,,BEFORE,,SCREENING,BEFORE,,2013-08-14,-9,,,,,,,,,,,,,,,,Past,Y,Y,Y
15,CDISCPILOT01,01-701-1153,1153,701,USA,MH,2013-09-23,2014-04-01,2013-09-23,2014-03-16,2014-04-01T14:25,,,,,,,,,,,,NA,2013-09-06,-17,79,YEARS,>64,F,WHITE,White,NOT HISPANIC OR LATINO,Y,Placebo,Pbo,Placebo,Pbo,Placebo,Placebo,Placebo,Placebo,2013-09-23,2013-09-23T00:00:00Z,H,2014-03-16,2014-03-16T23:59:59Z,H,Screening,1,COMPLETED,2014-04-01,,2013-09-23,2014-04-01,175,,,,,7,ALZHEIMER'S DISEASE,1,,,,,,PRIMARY DIAGNOSIS,2005-05-13,2005-05-13,2005-05-28,2005-05-28,-3055,-3040,Y,Y,Y,Y,Y,Y,,,1,SCREENING 1,-7,2013-09-06,-17,,BEFORE,,SCREENING,BEFORE,,2013-09-06,-17,,,,,,,,,,,,,,,,Past,Y,Y,Y
16,CDISCPILOT01,01-701-1180,1180,701,USA,MH,2013-02-12,2013-03-23,2013-02-12,2013-03-18,2013-04-07,,,,,,,,,,,,NA,2013-01-28,-15,56,YEARS,18-64,M,WHITE,White,NOT HISPANIC OR LATINO,Y,Xanomeline High Dose,Xan_Hi,Xanomeline High Dose,Xan_Hi,Xanomeline High Dose,Xanomeline High Dose,Xanomeline High Dose,Xanomeline High Dose,2013-02-12,2013-02-12T00:00:00Z,H,2013-03-18,2013-03-18T23:59:59Z,H,Screening,1,DISCONTINUED,2013-03-23,,2013-02-12,2013-03-23,35,,,,,2,ALZHEIMER'S DISEASE,1,,,,,,PRIMARY DIAGNOSIS,2008-09-21,2008-09-21,2009-03-25,2009-03-25,-1605,-1420,Y,Y,Y,Y,Y,Y,,,1,SCREENING 1,-7,2013-01-28,-15,,BEFORE,,SCREENING,BEFORE,,2013-01-28,-15,,,,,,,,,,,,,,,,Past,Y,Y,Y
17,CDISCPILOT01,01-701-1181,1181,701,USA,MH,2013-12-05,2013-12-12,2013-12-05,2013-12-09,2014-05-23,,2014-05-23,,,,,,,,,,NA,2013-11-26,-9,79,YEARS,>64,F,WHITE,White,NOT HISPANIC OR LATINO,Y,Xanomeline High Dose,Xan_Hi,Xanomeline Low Dose,Xan_Lo,Xanomeline High Dose,Xanomeline Low Dose,Xanomeline High Dose,Xanomeline Low Dose,2013-12-05,2013-12-05T00:00:00Z,H,2013-12-09,2013-12-09T23:59:59Z,H,Screening,1,DISCONTINUED,2013-12-12,,2013-12-05,2013-12-12,5,,,,,22,ALZHEIMER'S DISEASE,1,,,,,,PRIMARY DIAGNOSIS,2008-08-26,2008-08-26,2009-01-26,2009-01-26,-1927,-1774,Y,Y,Y,Y,Y,Y,,,1,SCREENING 1,-7,2013-11-26,-9,,BEFORE,,SCREENING,BEFORE,,2013-11-26,-9,,,,,,,,,,,,,,,,Past,Y,Y,Y
18,CDISCPILOT01,01-701-1188,1188,701,USA,MH,2013-02-15,2013-03-25,2013-02-15,2013-03-24,2013-08-04,,2013-08-04,,,,,,,,,,NA,2013-02-03,-12,71,YEARS,>64,M,WHITE,White,NOT HISPANIC OR LATINO,Y,Xanomeline Low Dose,Xan_Lo,Xanomeline Low Dose,Xan_Lo,Xanomeline Low Dose,Xanomeline Low Dose,Xanomeline Low Dose,Xanomeline Low Dose,2013-02-15,2013-02-15T00:00:00Z,H,2013-03-24,2013-03-24T23:59:59Z,H,Screening,1,DISCONTINUED,2013-03-25,,2013-02-15,2013-03-25,38,,,,,9,ALZHEIMER'S DISEASE,1,,,,,,PRIMARY DIAGNOSIS,2005-09-14,2005-09-14,2006-01-24,2006-01-24,-2711,-2579,Y,Y,Y,Y,Y,Y,,,1,SCREENING 1,-7,2013-02-03,-12,,BEFORE,,SCREENING,BEFORE,,2013-02-03,-12,,,,,,,,,,,,,,,,Past,Y,Y,Y
19,CDISCPILOT01,01-701-1192,1192,701,USA,MH,2012-07-22,2013-01-20,2012-07-22,2013-01-20,2013-01-20T15:47,,,,,,,,,,,,NA,2012-07-08,-14,80,YEARS,>64,F,WHITE,White,NOT HISPANIC OR LATINO,Y,Xanomeline Low Dose,Xan_Lo,Xanomeline Low Dose,Xan_Lo,Xanomeline Low Dose,Xanomeline Low Dose,Xanomeline Low Dose,Xanomeline Low Dose,2012-07-22,2012-07-22T00:00:00Z,H,2013-01-20,2013-01-20T23:59:59Z,H,Screening,1,COMPLETED,2013-01-20,,2012-07-22,2013-01-20,183,,,,,15,ALZHEIMER'S DISEASE,1,,,,,,PRIMARY DIAGNOSIS,2009-03-15,2009-03-15,2009-10-10,2009-10-10,-1225,-1016,Y,Y,Y,Y,Y,Y,,,1,SCREENING 1,-7,2012-07-08,-14,,BEFORE,,SCREENING,BEFORE,,2012-07-08,-14,,,,,,,,,,,,,,,,Past,Y,Y,Y
20,CDISCPILOT01,01-701-1203,1203,701,USA,MH,2013-02-02,2013-08-03,2013-02-02,2013-08-03,2013-08-03T10:10,,,,,,,,,,,,NA,2013-01-25,-8,81,YEARS,>64,F,BLACK OR AFRICAN AMERICAN,Non-white,NOT HISPANIC OR LATINO,Y,Placebo,Pbo,Placebo,Pbo,Placebo,Placebo,Placebo,Placebo,2013-02-02,2013-02-02T00:00:00Z,H,2013-08-03,2013-08-03T23:59:59Z,H,Screening,1,COMPLETED,2013-08-03,,2013-02-02,2013-08-03,183,,,,,10,ALZHEIMER'S DISEASE,1,,,,,,PRIMARY DIAGNOSIS,2011-04-19,2011-04-19,2011-11-02,2011-11-02,-655,-458,Y,Y,Y,Y,Y,Y,,,1,SCREENING 1,-7,2013-01-25,-8,,BEFORE,,SCREENING,BEFORE,,2013-01-25,-8,,,,,,,,,,,,,,,,Past,Y,Y,Y
21,CDISCPILOT01,01-701-1211,1211,701,USA,MH,2012-11-15,2013-01-14,2012-11-15,2013-01-12,2013-01-14,,,2013-01-14,61,Y,2,<= 30,Y,,AE,,NA,2012-10-30,-16,76,YEARS,>64,F,WHITE,White,NOT HISPANIC OR LATINO,Y,Xanomeline Low Dose,Xan_Lo,Xanomeline Low Dose,Xan_Lo,Xanomeline Low Dose,Xanomeline Low Dose,Xanomeline Low Dose,Xanomeline Low Dose,2012-11-15,2012-11-15T00:00:00Z,H,2013-01-12,2013-01-12T23:59:59Z,H,Screening,1,DISCONTINUED,2013-01-14,,2012-11-15,2013-01-14,59,2013-01-14,,SUDDEN DEATH,ADVERSE EVENT,8,ALZHEIMER'S DISEASE,1,,,,,,PRIMARY DIAGNOSIS,2010-03-19,2010-03-19,2010-10-24,2010-10-24,-972,-753,Y,Y,Y,Y,Y,Y,,,1,SCREENING 1,-7,2012-10-30,-16,,BEFORE,,SCREENING,BEFORE,,2012-10-30,-16,,,,,,,,,,,,,,,,Past,Y,Y,Y
22,CDISCPILOT01,01-701-1234,1234,701,USA,MH,2013-03-30,2013-09-22,2013-03-30,2013-09-22,2013-09-22T09:25,,,,,,,,,,,,NA,2013-03-20,-10,69,YEARS,>64,M,WHITE,White,NOT HISPANIC OR LATINO,Y,Placebo,Pbo,Placebo,Pbo,Placebo,Placebo,Placebo,Placebo,2013-03-30,2013-03-30T00:00:00Z,H,2013-09-22,2013-09-22T23:59:59Z,H,Screening,1,COMPLETED,2013-09-22,,2013-03-30,2013-09-22,177,,,,,12,ALZHEIMER'S DISEASE,1,,,,,,PRIMARY DIAGNOSIS,2006-08-11,2006-08-11,2007-07-07,2007-07-07,-2423,-2093,Y,Y,Y,Y,Y,Y,,,1,SCREENING 1,-7,2013-03-20,-10,,BEFORE,,SCREENING,BEFORE,,2013-03-20,-10,,,,,,,,,,,,,,,,Past,,Y,Y
23,CDISCPILOT01,01-701-1239,1239,701,USA,MH,2014-01-11,2014-07-11,2014-01-11,2014-07-10,2014-07-11T15:40,,,,,,,,,,,,NA,2013-12-28,-14,56,YEARS,18-64,M,WHITE,White,HISPANIC OR LATINO,Y,Xanomeline High Dose,Xan_Hi,Xanomeline High Dose,Xan_Hi,Xanomeline High Dose,Xanomeline High Dose,Xanomeline High Dose,Xanomeline High Dose,2014-01-11,2014-01-11T00:00:00Z,H,2014-07-10,2014-07-10T23:59:59Z,H,Screening,1,COMPLETED,2014-07-11,,2014-01-11,2014-07-11,181,,,,,12,ALZHEIMER'S DISEASE,1,,,,,,PRIMARY DIAGNOSIS,2003-09-23,2003-09-23,2004-08-12,2004-08-12,-3763,-3439,Y,Y,Y,Y,Y,Y,,,1,SCREENING 1,-7,2013-12-28,-14,,BEFORE,,SCREENING,BEFORE,,2013-12-28,-14,,,,,,,,,,,,,,,,Past,Y,Y,Y
24,CDISCPILOT01,01-701-1275,1275,701,USA,MH,2014-02-07,2014-06-14,2014-02-07,2014-05-31,2014-06-14T12:35,,,,,,,,,,,,NA,2014-01-25,-13,61,YEARS,18-64,M,AMERICAN INDIAN OR ALASKA NATIVE,Non-white,NOT HISPANIC OR LATINO,Y,Xanomeline High Dose,Xan_Hi,Xanomeline High Dose,Xan_Hi,Xanomeline High Dose,Xanomeline High Dose,Xanomeline High Dose,Xanomeline High Dose,2014-02-07,2014-02-07T00:00:00Z,H,2014-05-31,2014-05-31T23:59:59Z,H,Screening,1,DISCONTINUED,2014-06-14,,2014-02-07,2014-06-14,114,,,,,4,ALZHEIMER'S DISEASE,1,,,,,,PRIMARY DIAGNOSIS,2011-09-17,2011-09-17,2012-06-03,2012-06-03,-874,-614,Y,Y,Y,Y,Y,Y,,,1,SCREENING 1,-7,2014-01-25,-13,,BEFORE,,SCREENING,BEFORE,,2014-01-25,-13,,,,,,,,,,,,,,,,Past,Y,Y,Y
25,CDISCPILOT01,01-701-1287,1287,701,USA,MH,2014-01-25,2014-07-26,2014-01-25,2014-07-26,2014-07-26T13:15,,,,,,,,,,,,NA,2014-01-17,-8,56,YEARS,18-64,F,WHITE,White,HISPANIC OR LATINO,Y,Xanomeline High Dose,Xan_Hi,Xanomeline High Dose,Xan_Hi,Xanomeline High Dose,Xanomeline High Dose,Xanomeline High Dose,Xanomeline High Dose,2014-01-25,2014-01-25T00:00:00Z,H,2014-07-26,2014-07-26T23:59:59Z,H,Screening,1,COMPLETED,2014-07-26,,2014-01-25,2014-07-26,183,,,,,4,ALZHEIMER'S DISEASE,1,,,,,,PRIMARY DIAGNOSIS,2009-10-30,2009-10-30,2010-04-29,2010-04-29,-1548,-1367,Y,Y,Y,Y,Y,Y,,,1,SCREENING 1,-7,2014-01-17,-8,,BEFORE,,SCREENING,BEFORE,,2014-01-17,-8,,,,,,,,,,,,,,,,Past,Y,Y,Y
26,CDISCPILOT01,01-701-1294,1294,701,USA,MH,2013-03-24,2013-06-14,2013-03-24,2013-06-14,2013-10-08,,2013-10-08,,,,,,,,,,NA,2013-03-17,-7,67,YEARS,>64,M,WHITE,White,NOT HISPANIC OR LATINO,Y,Xanomeline Low Dose,Xan_Lo,Xanomeline Low Dose,Xan_Lo,Xanomeline Low Dose,Xanomeline Low Dose,Xanomeline Low Dose,Xanomeline Low Dose,2013-03-24,2013-03-24T00:00:00Z,H,2013-06-14,2013-06-14T23:59:59Z,H,Screening,1,DISCONTINUED,2013-06-14,,2013-03-24,2013-06-14,83,,,,,10,ALZHEIMER'S DISEASE,1,,,,,,PRIMARY DIAGNOSIS,2011-09-09,2011-09-09,2012-06-14,2012-06-14,-562,-283,Y,Y,Y,Y,Y,Y,,,1,SCREENING 1,-7,2013-03-17,-7,,BEFORE,,SCREENING,BEFORE,,2013-03-17,-7,,,,,,,,,,,,,,,,Past,Y,Y,Y
27,CDISCPILOT01,01-701-1302,1302,701,USA,MH,2013-08-29,2013-11-05,2013-08-29,2013-11-05,2014-02-13,,2014-02-13,,,,,,,,,,NA,2013-08-20,-9,61,YEARS,18-64,M,WHITE,White,NOT HISPANIC OR LATINO,Y,Xanomeline High Dose,Xan_Hi,Xanomeline High Dose,Xan_Hi,Xanomeline High Dose,Xanomeline High Dose,Xanomeline High Dose,Xanomeline High Dose,2013-08-29,2013-08-29T00:00:00Z,H,2013-11-05,2013-11-05T23:59:59Z,H,Screening,1,DISCONTINUED,2013-11-05,,2013-08-29,2013-11-05,69,,,,,20,ALZHEIMER'S DISEASE,1,,,,,,PRIMARY DIAGNOSIS,2007-02-09,2007-02-09,2007-05-06,2007-05-06,-2393,-2307,Y,Y,Y,Y,Y,Y,,,1,SCREENING 1,-7,2013-08-20,-9,,BEFORE,,SCREENING,BEFORE,,2013-08-20,-9,,,,,,,,,,,,,,,,Past,Y,Y,Y
28,CDISCPILOT01,01-701-1317,1317,701,USA,MH,2014-05-22,2014-11-20,2014-05-22,2014-11-20,2014-11-20T11:54,,,,,,,,,,,,NA,2014-05-10,-12,68,YEARS,>64,M,WHITE,White,NOT HISPANIC OR LATINO,Y,Xanomeline Low Dose,Xan_Lo,Xanomeline Low Dose,Xan_Lo,Xanomeline Low Dose,Xanomeline Low Dose,Xanomeline Low Dose,Xanomeline Low Dose,2014-05-22,2014-05-22T00:00:00Z,H,2014-11-20,2014-11-20T23:59:59Z,H,Screening,1,COMPLETED,2014-11-20,,2014-05-22,2014-11-20,183,,,,,12,ALZHEIMER'S DISEASE,1,,,,,,PRIMARY DIAGNOSIS,2013-09-16,2013-09-16,2014-04-23,2014-04-23,-248,-29,Y,Y,Y,Y,Y,Y,,,1,SCREENING 1,-7,2014-05-10,-12,,BEFORE,,SCREENING,BEFORE,,2014-05-10,-12,,,,,,,,,,,,,,,,Past,Y,Y,Y
29,CDISCPILOT01,01-701-1324,1324,701,USA,MH,2012-10-02,2013-04-02,2012-10-02,2013-04-02,2013-04-02T11:35,,,,,,,,,,,,NA,2012-09-16,-16,79,YEARS,>64,M,WHITE,White,NOT HISPANIC OR LATINO,Y,Xanomeline Low Dose,Xan_Lo,Xanomeline Low Dose,Xan_Lo,Xanomeline Low Dose,Xanomeline Low Dose,Xanomeline Low Dose,Xanomeline Low Dose,2012-10-02,2012-10-02T00:00:00Z,H,2013-04-02,2013-04-02T23:59:59Z,H,Screening,1,COMPLETED,2013-04-02,,2012-10-02,2013-04-02,183,,,,,10,ALZHEIMER'S DISEASE,1,,,,,,PRIMARY DIAGNOSIS,2009-10-11,2009-10-11,2009-12-12,2009-12-12,-1087,-1025,Y,Y,Y,Y,Y,Y,,,1,SCREENING 1,-7,2012-09-16,-16,,BEFORE,,SCREENING,BEFORE,,2012-09-16,-16,,,,,,,,,,,,,,,,Past,Y,Y,Y
30,CDISCPILOT01,01-701-1341,1341,701,USA,MH,2013-01-05,2013-02-07,2013-01-05,2013-01-26,2013-02-21,,,,,,,,,,,,NA,2012-12-22,-14,51,YEARS,18-64,M,WHITE,White,NOT HISPANIC OR LATINO,Y,Xanomeline Low Dose,Xan_Lo,Xanomeline Low Dose,Xan_Lo,Xanomeline Low Dose,Xanomeline Low Dose,Xanomeline Low Dose,Xanomeline Low Dose,2013-01-05,2013-01-05T00:00:00Z,H,2013-01-26,2013-01-26T23:59:59Z,H,Screening,1,DISCONTINUED,2013-02-07,,2013-01-05,2013-02-07,22,,,,,14,ALZHEIMER'S DISEASE,1,,,,,,PRIMARY DIAGNOSIS,2006-06-05,2006-06-05,2007-01-29,2007-01-29,-2406,-2168,Y,Y,Y,Y,Y,Y,,,1,SCREENING 1,-7,2012-12-22,-14,,BEFORE,,SCREENING,BEFORE,,2012-12-22,-14,,,,,,,,,,,,,,,,Past,Y,Y,Y
31,CDISCPILOT01,01-701-1345,1345,701,USA,MH,2013-10-08,2014-03-18,2013-10-08,2014-03-18,2014-03-18T14:12,,,,,,,,,,,,NA,2013-10-01,-7,63,YEARS,18-64,F,WHITE,White,NOT HISPANIC OR LATINO,Y,Placebo,Pbo,Placebo,Pbo,Placebo,Placebo,Placebo,Placebo,2013-10-08,2013-10-08T00:00:00Z,H,2014-03-18,2014-03-18T23:59:59Z,H,Screening,1,DISCONTINUED,2014-03-18,,2013-10-08,2014-03-18,162,,,,,8,ALZHEIMER'S DISEASE,1,,,,,,PRIMARY DIAGNOSIS,2010-11-05,2010-11-05,2011-06-22,2011-06-22,-1068,-839,Y,Y,Y,,Y,Y,,,1,SCREENING 1,-7,2013-10-01,-7,,BEFORE,,SCREENING,BEFORE,,2013-10-01,-7,,,,,,,,,,,,,,,,Past,,Y,Y
32,CDISCPILOT01,01-701-1360,1360,701,USA,MH,2013-07-31,2013-08-14,2013-07-31,2013-08-05,2014-02-11,,2014-02-11,,,,,,,,,,NA,2013-07-24,-7,67,YEARS,>64,M,WHITE,White,NOT HISPANIC OR LATINO,Y,Xanomeline High Dose,Xan_Hi,Xanomeline Low Dose,Xan_Lo,Xanomeline High Dose,Xanomeline Low Dose,Xanomeline High Dose,Xanomeline Low Dose,2013-07-31,2013-07-31T00:00:00Z,H,2013-08-05,2013-08-05T23:59:59Z,H,Screening,1,DISCONTINUED,2013-08-14,,2013-07-31,2013-08-14,6,,,,,12,ALZHEIMER'S DISEASE,1,,,,,,PRIMARY DIAGNOSIS,2008-12-02,2008-12-02,2009-06-13,2009-06-13,-1702,-1509,Y,Y,Y,Y,Y,Y,,,1,SCREENING 1,-7,2013-07-24,-7,,BEFORE,,SCREENING,BEFORE,,2013-07-24,-7,,,,,,,,,,,,,,,,Past,Y,Y,Y
33,CDISCPILOT01,01-701-1363,1363,701,USA,MH,2013-05-30,2013-11-27,2013-05-30,2013-11-27,2013-11-27T10:00,,,,,,,,,,,,NA,2013-05-20,-10,81,YEARS,>64,F,BLACK OR AFRICAN AMERICAN,Non-white,NOT HISPANIC OR LATINO,Y,Placebo,Pbo,Placebo,Pbo,Placebo,Placebo,Placebo,Placebo,2013-05-30,2013-05-30T00:00:00Z,H,2013-11-27,2013-11-27T23:59:59Z,H,Screening,1,COMPLETED,2013-11-27,,2013-05-30,2013-11-27,182,,,,,9,ALZHEIMER'S DISEASE,1,,,,,,PRIMARY DIAGNOSIS,2005-10-20,2005-10-20,2006-05-23,2006-05-23,-2779,-2564,Y,Y,Y,Y,Y,Y,,,1,SCREENING 1,-7,2013-05-20,-10,,BEFORE,,SCREENING,BEFORE,,2013-05-20,-10,,,,,,,,,,,,,,,,Past,Y,Y,Y
34,CDISCPILOT01,01-701-1383,1383,701,USA,MH,2013-02-04,2013-08-06,2013-02-04,2013-08-06,2013-08-06T12:00,,,,,,,,,,,,NA,2013-01-22,-13,72,YEARS,>64,F,WHITE,White,NOT HISPANIC OR LATINO,Y,Xanomeline High Dose,Xan_Hi,Xanomeline High Dose,Xan_Hi,Xanomeline High Dose,Xanomeline High Dose,Xanomeline High Dose,Xanomeline High Dose,2013-02-04,2013-02-04T00:00:00Z,H,2013-08-06,2013-08-06T23:59:59Z,H,Screening,1,COMPLETED,2013-08-06,,2013-02-04,2013-08-06,184,,,,,13,ALZHEIMER'S DISEASE,1,,,,,,PRIMARY DIAGNOSIS,2006-08-20,2006-08-20,2006-12-07,2006-12-07,-2360,-2251,Y,Y,Y,Y,Y,Y,,,1,SCREENING 1,-7,2013-01-22,-13,,BEFORE,,SCREENING,BEFORE,,2013-01-22,-13,,,,,,,,,,,,,,,,Past,Y,Y,Y
35,CDISCPILOT01,01-701-1387,1387,701,USA,MH,2014-03-12,2014-03-25,2014-03-12,2014-03-25,2014-08-27,,2014-08-27,,,,,,,,,,NA,2014-02-23,-17,87,YEARS,>64,F,WHITE,White,NOT HISPANIC OR LATINO,Y,Placebo,Pbo,Placebo,Pbo,Placebo,Placebo,Placebo,Placebo,2014-03-12,2014-03-12T00:00:00Z,H,2014-03-25,2014-03-25T23:59:59Z,H,Screening,1,DISCONTINUED,2014-03-25,,2014-03-12,2014-03-25,14,,,,,11,ALZHEIMER'S DISEASE,1,,,,,,PRIMARY DIAGNOSIS,2003-08-17,2003-08-17,2004-04-16,2004-04-16,-3860,-3617,Y,Y,Y,Y,Y,Y,,,1,SCREENING 1,-7,2014-02-23,-17,,BEFORE,,SCREENING,BEFORE,,2014-02-23,-17,,,,,,,,,,,,,,,,Past,Y,Y,Y
36,CDISCPILOT01,01-701-1392,1392,701,USA,MH,2012-10-28,2013-04-28,2012-10-28,2013-04-28,2013-04-28T11:30,,,,,,,,,,,,NA,2012-10-17,-11,78,YEARS,>64,M,WHITE,White,NOT HISPANIC OR LATINO,Y,Placebo,Pbo,Placebo,Pbo,Placebo,Placebo,Placebo,Placebo,2012-10-28,2012-10-28T00:00:00Z,H,2013-04-28,2013-04-28T23:59:59Z,H,Screening,1,COMPLETED,2013-04-28,,2012-10-28,2013-04-28,183,,,,,5,ALZHEIMER'S DISEASE,1,,,,,,PRIMARY DIAGNOSIS,2010-04-25,2010-04-25,2011-04-16,2011-04-16,-917,-561,Y,Y,Y,Y,Y,Y,,,1,SCREENING 1,-7,2012-10-17,-11,,BEFORE,,SCREENING,BEFORE,,2012-10-17,-11,,,,,,,,,,,,,,,,Past,Y,Y,Y
37,CDISCPILOT01,01-701-1415,1415,701,USA,MH,2013-09-23,2014-03-24,2013-09-23,2014-03-24,2014-03-24T12:34,,,,,,,,,,,,NA,2013-09-15,-8,85,YEARS,>64,M,WHITE,White,NOT HISPANIC OR LATINO,Y,Placebo,Pbo,Placebo,Pbo,Placebo,Placebo,Placebo,Placebo,2013-09-23,2013-09-23T00:00:00Z,H,2014-03-24,2014-03-24T23:59:59Z,H,Screening,1,COMPLETED,2014-03-24,,2013-09-23,2014-03-24,183,,,,,12,ALZHEIMER'S DISEASE,1,,,,,,PRIMARY DIAGNOSIS,1998-06-13,1998-06-13,1998-09-13,1998-09-13,-5581,-5489,Y,Y,Y,Y,Y,Y,,,1,SCREENING 1,-7,2013-09-15,-8,,BEFORE,,SCREENING,BEFORE,,2013-09-15,-8,,,,,,,,,,,,,,,,Past,,Y,Y
38,CDISCPILOT01,01-701-1429,1429,701,USA,MH,2013-03-19,2013-04-30,2013-03-19,2013-04-30,2013-04-30T12:22,,,,,,,,,,,,NA,2013-02-25,-22,84,YEARS,>64,F,WHITE,White,NOT HISPANIC OR LATINO,Y,Xanomeline Low Dose,Xan_Lo,Xanomeline Low Dose,Xan_Lo,Xanomeline Low Dose,Xanomeline Low Dose,Xanomeline Low Dose,Xanomeline Low Dose,2013-03-19,2013-03-19T00:00:00Z,H,2013-04-30,2013-04-30T23:59:59Z,H,Screening,1,DISCONTINUED,2013-04-30,,2013-03-19,2013-04-30,43,,,,,3,ALZHEIMER'S DISEASE,1,,,,,,PRIMARY DIAGNOSIS,2008-06-17,2008-06-17,2009-02-01,2009-02-01,-1736,-1507,Y,Y,Y,Y,Y,Y,,,1,SCREENING 1,-7,2013-02-25,-22,,BEFORE,,SCREENING,BEFORE,,2013-02-25,-22,,,,,,,,,,,,,,,,Past,Y,Y,Y
39,CDISCPILOT01,01-701-1440,1440,701,USA,MH,2013-08-08,2014-02-05,2013-08-08,2014-02-05,2014-02-05T11:25,,,,,,,,,,,,NA,2013-07-24,-15,70,YEARS,>64,M,WHITE,White,NOT HISPANIC OR LATINO,Y,Placebo,Pbo,Placebo,Pbo,Placebo,Placebo,Placebo,Placebo,2013-08-08,2013-08-08T00:00:00Z,H,2014-02-05,2014-02-05T23:59:59Z,H,Screening,1,COMPLETED,2014-02-05,,2013-08-08,2014-02-05,182,,,,,6,ALZHEIMER'S DISEASE,1,,,,,,PRIMARY DIAGNOSIS,2011-04-07,2011-04-07,2011-12-22,2011-12-22,-854,-595,Y,Y,Y,Y,Y,Y,,,1,SCREENING 1,-7,2013-07-24,-15,,BEFORE,,SCREENING,BEFORE,,2013-07-24,-15,,,,,,,,,,,,,,,,Past,Y,Y,Y
40,CDISCPILOT01,01-701-1442,1442,701,USA,MH,2013-10-26,2014-04-26,2013-10-26,2014-04-26,2014-04-26T10:00,,,,,,,,,,,,NA,2013-10-17,-9,57,YEARS,18-64,F,BLACK OR AFRICAN AMERICAN,Non-white,NOT HISPANIC OR LATINO,Y,Xanomeline Low Dose,Xan_Lo,Xanomeline Low Dose,Xan_Lo,Xanomeline Low Dose,Xanomeline Low Dose,Xanomeline Low Dose,Xanomeline Low Dose,2013-10-26,2013-10-26T00:00:00Z,H,2014-04-26,2014-04-26T23:59:59Z,H,Screening,1,COMPLETED,2014-04-26,,2013-10-26,2014-04-26,183,,,,,4,ALZHEIMER'S DISEASE,1,,,,,,PRIMARY DIAGNOSIS,2006-02-20,2006-02-20,2006-10-18,2006-10-18,-2805,-2565,Y,Y,Y,Y,Y,Y,,,1,SCREENING 1,-7,2013-10-17,-9,,BEFORE,,SCREENING,BEFORE,,2013-10-17,-9,,,,,,,,,,,,,,,,Past,Y,Y,Y
41,CDISCPILOT01,01-701-1444,1444,701,USA,MH,2013-01-05,2013-02-13,2013-01-05,2013-02-12,2013-06-20,,2013-06-20,,,,,,,,,,NA,2012-12-31,-5,63,YEARS,18-64,M,WHITE,White,HISPANIC OR LATINO,Y,Xanomeline High Dose,Xan_Hi,Xanomeline High Dose,Xan_Hi,Xanomeline High Dose,Xanomeline High Dose,Xanomeline High Dose,Xanomeline High Dose,2013-01-05,2013-01-05T00:00:00Z,H,2013-02-12,2013-02-12T23:59:59Z,H,Screening,1,DISCONTINUED,2013-02-13,,2013-01-05,2013-02-13,39,,,,,13,ALZHEIMER'S DISEASE,1,,,,,,PRIMARY DIAGNOSIS,2008-05-21,2008-05-21,2008-11-01,2008-11-01,-1690,-1526,Y,Y,Y,Y,Y,Y,,,1,SCREENING 1,-7,2012-12-31,-5,,BEFORE,,SCREENING,BEFORE,,2012-12-31,-5,,,,,,,,,,,,,,,,Past,Y,Y,Y
42,CDISCPILOT01,01-702-1082,1082,702,USA,MH,2013-07-26,2013-11-17,2013-07-26,2013-10-13,2013-11-17T12:20,,,,,,,,,,,,NA,2013-07-03,-23,84,YEARS,>64,F,WHITE,White,NOT HISPANIC OR LATINO,Y,Xanomeline Low Dose,Xan_Lo,Xanomeline Low Dose,Xan_Lo,Xanomeline Low Dose,Xanomeline Low Dose,Xanomeline Low Dose,Xanomeline Low Dose,2013-07-26,2013-07-26T00:00:00Z,H,2013-10-13,2013-10-13T23:59:59Z,H,Screening,1,DISCONTINUED,2013-11-17,,2013-07-26,2013-11-17,80,,,,,3,ALZHEIMER'S DISEASE,1,,,,,,PRIMARY DIAGNOSIS,2007-05-17,2007-05-17,2008-03-22,2008-03-22,-2262,-1952,Y,Y,Y,Y,Y,Y,,,1,SCREENING 1,-7,2013-07-03,-23,,BEFORE,,SCREENING,BEFORE,,2013-07-03,-23,,,,,,,,,,,,,,,,Past,Y,Y,Y
43,CDISCPILOT01,01-703-1042,1042,703,USA,MH,2013-03-02,2013-08-31,2013-03-02,2013-08-31,2013-08-31T11:00,,,,,,,,,,,,NA,2013-02-23,-7,64,YEARS,18-64,M,WHITE,White,NOT HISPANIC OR LATINO,Y,Placebo,Pbo,Placebo,Pbo,Placebo,Placebo,Placebo,Placebo,2013-03-02,2013-03-02T00:00:00Z,H,2013-08-31,2013-08-31T23:59:59Z,H,Screening,1,COMPLETED,2013-08-31,,2013-03-02,2013-08-31,183,,,,,5,ALZHEIMER'S DISEASE,1,,,,,,PRIMARY DIAGNOSIS,2008-07-23,2008-07-23,2008-10-12,2008-10-12,-1683,-1602,Y,Y,Y,Y,Y,Y,,,1,SCREENING 1,-7,2013-02-23,-7,,BEFORE,,SCREENING,BEFORE,,2013-02-23,-7,,,,,,,,,,,,,,,,Past,Y,Y,Y
44,CDISCPILOT01,01-703-1076,1076,703,USA,MH,2013-10-25,2013-12-24,2013-10-25,2013-12-24,2014-01-21,,,,,,,,,,,,NA,2013-10-17,-8,69,YEARS,>64,M,WHITE,White,NOT HISPANIC OR LATINO,Y,Xanomeline High Dose,Xan_Hi,Xanomeline High Dose,Xan_Hi,Xanomeline High Dose,Xanomeline High Dose,Xanomeline High Dose,Xanomeline High Dose,2013-10-25,2013-10-25T00:00:00Z,H,2013-12-24,2013-12-24T23:59:59Z,H,Screening,1,DISCONTINUED,2013-12-24,,2013-10-25,2013-12-24,61,,,,,5,ALZHEIMER'S DISEASE,1,,,,,,PRIMARY DIAGNOSIS,2012-08-27,2012-08-27,2012-09-27,2012-09-27,-424,-393,Y,Y,Y,Y,Y,Y,,,1,SCREENING 1,-7,2013-10-17,-8,,BEFORE,,SCREENING,BEFORE,,2013-10-17,-8,,,,,,,,,,,,,,,,Past,Y,Y,Y
45,CDISCPILOT01,01-703-1086,1086,703,USA,MH,2012-09-02,2012-12-24,2012-09-02,2012-12-04,2013-03-26,,2013-03-26,,,,,,,,,,NA,2012-08-22,-11,71,YEARS,>64,M,WHITE,White,NOT HISPANIC OR LATINO,Y,Xanomeline Low Dose,Xan_Lo,Xanomeline Low Dose,Xan_Lo,Xanomeline Low Dose,Xanomeline Low Dose,Xanomeline Low Dose,Xanomeline Low Dose,2012-09-02,2012-09-02T00:00:00Z,H,2012-12-04,2012-12-04T23:59:59Z,H,Screening,1,DISCONTINUED,2012-12-24,,2012-09-02,2013-01-02,94,,,,,1,ALZHEIMER'S DISEASE,1,,,,,,PRIMARY DIAGNOSIS,2011-04-27,2011-04-27,2012-05-08,2012-05-08,-494,-117,Y,Y,Y,Y,Y,Y,,,1,SCREENING 1,-7,2012-08-22,-11,,BEFORE,,SCREENING,BEFORE,,2012-08-22,-11,,,,,,,,,,,,,,,,Past,Y,Y,Y
46,CDISCPILOT01,01-703-1096,1096,703,USA,MH,2013-01-25,2013-03-29,2013-01-25,2013-03-16,2013-03-29,,,,,,,,,,,,NA,2012-12-19,-37,81,YEARS,>64,F,WHITE,White,NOT HISPANIC OR LATINO,Y,Placebo,Pbo,Placebo,Pbo,Placebo,Placebo,Placebo,Placebo,2013-01-25,2013-01-25T00:00:00Z,H,2013-03-16,2013-03-16T23:59:59Z,H,Screening,1,DISCONTINUED,2013-03-29,,2013-01-25,2013-03-16,51,,,,,2,ALZHEIMER'S DISEASE,1,,,,,,PRIMARY DIAGNOSIS,2006-12-20,2006-12-20,2007-05-08,2007-05-08,-2228,-2089,Y,Y,Y,Y,Y,Y,,,1,SCREENING 1,-7,2012-12-19,-37,,BEFORE,,SCREENING,BEFORE,,2012-12-19,-37,,,,,,,,,,,,,,,,Past,Y,Y,Y
47,CDISCPILOT01,01-703-1100,1100,703,USA,MH,2013-03-13,2013-09-14,2013-03-13,2013-09-14,2013-09-14T15:00,,,,,,,,,,,,NA,2013-02-28,-13,84,YEARS,>64,F,WHITE,White,NOT HISPANIC OR LATINO,Y,Placebo,Pbo,Placebo,Pbo,Placebo,Placebo,Placebo,Placebo,2013-03-13,2013-03-13T00:00:00Z,H,2013-09-14,2013-09-14T23:59:59Z,H,Screening,1,COMPLETED,2013-09-14,,2013-03-13,2013-09-14,186,,,,,6,ALZHEIMER'S DISEASE,1,,,,,,PRIMARY DIAGNOSIS,2010-12-02,2010-12-02,2011-09-09,2011-09-09,-832,-551,Y,Y,Y,Y,Y,Y,,,1,SCREENING 1,-7,2013-02-28,-13,,BEFORE,,SCREENING,BEFORE,,2013-02-28,-13,,,,,,,,,,,,,,,,Past,Y,Y,Y
48,CDISCPILOT01,01-703-1119,1119,703,USA,MH,2013-02-20,2013-06-13,2013-02-20,2013-06-13,2013-08-24,,2013-08-24,,,,,,,,,,NA,2013-02-02,-18,81,YEARS,>64,F,WHITE,White,NOT HISPANIC OR LATINO,Y,Xanomeline Low Dose,Xan_Lo,Xanomeline Low Dose,Xan_Lo,Xanomeline Low Dose,Xanomeline Low Dose,Xanomeline Low Dose,Xanomeline Low Dose,2013-02-20,2013-02-20T00:00:00Z,H,2013-06-13,2013-06-13T23:59:59Z,H,Screening,1,DISCONTINUED,2013-06-13,,2013-02-20,2013-06-13,114,,,,,6,ALZHEIMER'S DISEASE,1,,,,,,PRIMARY DIAGNOSIS,2005-02-01,2005-02-01,2005-11-24,2005-11-24,-2941,-2645,Y,Y,Y,Y,Y,Y,,,1,SCREENING 1,-7,2013-02-02,-18,,BEFORE,,SCREENING,BEFORE,,2013-02-02,-18,,,,,,,,,,,,,,,,Past,Y,Y,Y
49,CDISCPILOT01,01-703-1175,1175,703,USA,MH,2013-12-20,2013-12-31,2013-12-20,2013-12-26,2013-12-31T13:15,,,,,,,,,,,,NA,2013-12-13,-7,75,YEARS,>64,M,WHITE,White,NOT HISPANIC OR LATINO,Y,Placebo,Pbo,Placebo,Pbo,Placebo,Placebo,Placebo,Placebo,2013-12-20,2013-12-20T00:00:00Z,H,2013-12-26,2013-12-26T23:59:59Z,H,Screening,1,DISCONTINUED,2013-12-31,,2013-12-20,2013-12-31,7,,,,,6,ALZHEIMER'S DISEASE,1,,,,,,PRIMARY DIAGNOSIS,2010-09-19,2010-09-19,2010-11-13,2010-11-13,-1188,-1133,Y,Y,Y,Y,Y,Y,,,1,SCREENING 1,-7,2013-12-13,-7,,BEFORE,,SCREENING,BEFORE,,2013-12-13,-7,,,,,,,,,,,,,,,,Past,Y,Y,Y
50,CDISCPILOT01,01-703-1182,1182,703,USA,MH,2013-10-17,2013-12-12,2013-10-17,2013-12-11,2014-01-14,,,,,,,,,,,,NA,2013-10-08,-9,84,YEARS,>64,M,WHITE,White,NOT HISPANIC OR LATINO,Y,Xanomeline Low Dose,Xan_Lo,Xanomeline Low Dose,Xan_Lo,Xanomeline Low Dose,Xanomeline Low Dose,Xanomeline Low Dose,Xanomeline Low Dose,2013-10-17,2013-10-17T00:00:00Z,H,2013-12-11,2013-12-11T23:59:59Z,H,Screening,1,DISCONTINUED,2013-12-12,,2013-10-17,2013-12-12,56,,,,,8,ALZHEIMER'S DISEASE,1,,,,,,PRIMARY DIAGNOSIS,2011-09-27,2011-09-27,2011-12-01,2011-12-01,-751,-686,Y,Y,Y,Y,Y,Y,,,1,SCREENING 1,-7,2013-10-08,-9,,BEFORE,,SCREENING,BEFORE,,2013-10-08,-9,,,,,,,,,,,,,,,,Past,Y,Y,Y
51,CDISCPILOT01,01-703-1197,1197,703,USA,MH,2013-06-16,2013-07-22,2013-06-16,2013-06-29,2013-07-22,,,,,,,,,,,,NA,2013-06-01,-15,76,YEARS,>64,F,BLACK OR AFRICAN AMERICAN,Non-white,NOT HISPANIC OR LATINO,Y,Xanomeline Low Dose,Xan_Lo,Xanomeline Low Dose,Xan_Lo,Xanomeline Low Dose,Xanomeline Low Dose,Xanomeline Low Dose,Xanomeline Low Dose,2013-06-16,2013-06-16T00:00:00Z,H,2013-06-29,2013-06-29T23:59:59Z,H,Screening,1,DISCONTINUED,2013-07-22,,2013-06-16,2013-06-29,14,,,,,2,ALZHEIMER'S DISEASE,1,,,,,,PRIMARY DIAGNOSIS,2012-01-11,2012-01-11,2012-10-24,2012-10-24,-522,-235,Y,Y,Y,Y,Y,Y,,,1,SCREENING 1,-7,2013-06-01,-15,,BEFORE,,SCREENING,BEFORE,,2013-06-01,-15,,,,,,,,,,,,,,,,Past,Y,Y,Y
52,CDISCPILOT01,01-703-1210,1210,703,USA,MH,2013-03-16,2013-09-06,2013-03-16,2013-09-06,2013-09-06T13:30,,,,,,,,,,,,NA,2013-03-08,-8,72,YEARS,>64,F,WHITE,White,NOT HISPANIC OR LATINO,Y,Placebo,Pbo,Placebo,Pbo,Placebo,Placebo,Placebo,Placebo,2013-03-16,2013-03-16T00:00:00Z,H,2013-09-06,2013-09-06T23:59:59Z,H,Screening,1,COMPLETED,2013-09-06,,2013-03-16,2013-09-06,175,,,,,5,ALZHEIMER'S DISEASE,1,,,,,,PRIMARY DIAGNOSIS,2010-02-18,2010-02-18,2010-09-12,2010-09-12,-1122,-916,Y,Y,Y,Y,Y,Y,,,1,SCREENING 1,-7,2013-03-08,-8,,BEFORE,,SCREENING,BEFORE,,2013-03-08,-8,,,,,,,,,,,,,,,,Past,Y,Y,Y
53,CDISCPILOT01,01-703-1258,1258,703,USA,MH,2012-07-20,2013-01-21,2012-07-20,2013-01-11,2013-01-28,,,,,,,,,,,,NA,2012-07-10,-10,78,YEARS,>64,F,WHITE,White,NOT HISPANIC OR LATINO,Y,Xanomeline High Dose,Xan_Hi,Xanomeline High Dose,Xan_Hi,Xanomeline High Dose,Xanomeline High Dose,Xanomeline High Dose,Xanomeline High Dose,2012-07-20,2012-07-20T00:00:00Z,H,2013-01-11,2013-01-11T23:59:59Z,H,Screening,1,DISCONTINUED,2013-01-21,,2012-07-20,2013-01-25,176,,,,,8,ALZHEIMER'S DISEASE,1,,,,,,PRIMARY DIAGNOSIS,2006-02-17,2006-02-17,2007-03-04,2007-03-04,-2345,-1965,Y,Y,Y,Y,Y,Y,,,1,SCREENING 1,-7,2012-07-10,-10,,BEFORE,,SCREENING,BEFORE,,2012-07-10,-10,,,,,,,,,,,,,,,,Past,Y,Y,Y
54,CDISCPILOT01,01-703-1279,1279,703,USA,MH,2013-05-13,2013-06-22,2013-05-13,2013-06-03,2013-06-22,,,,,,,,,,,,NA,2013-04-27,-16,72,YEARS,>64,F,WHITE,White,NOT HISPANIC OR LATINO,Y,Xanomeline Low Dose,Xan_Lo,Xanomeline Low Dose,Xan_Lo,Xanomeline Low Dose,Xanomeline Low Dose,Xanomeline Low Dose,Xanomeline Low Dose,2013-05-13,2013-05-13T00:00:00Z,H,2013-06-03,2013-06-03T23:59:59Z,H,Screening,1,DISCONTINUED,2013-06-22,,2013-05-13,2013-06-03,22,,,,,2,ALZHEIMER'S DISEASE,1,,,,,,PRIMARY DIAGNOSIS,2010-07-29,2010-07-29,2011-07-07,2011-07-07,-1019,-676,Y,Y,Y,Y,Y,Y,,,1,SCREENING 1,-7,2013-04-27,-16,,BEFORE,,SCREENING,BEFORE,,2013-04-27,-16,,,,,,,,,,,,,,,,Past,Y,Y,Y
55,CDISCPILOT01,01-703-1295,1295,703,USA,MH,2013-11-21,2014-05-19,2013-11-21,2014-04-19,2014-05-19T14:45,,,,,,,,,,,,NA,2013-10-24,-28,88,YEARS,>64,F,WHITE,White,NOT HISPANIC OR LATINO,Y,Xanomeline High Dose,Xan_Hi,Xanomeline High Dose,Xan_Hi,Xanomeline High Dose,Xanomeline High Dose,Xanomeline High Dose,Xanomeline High Dose,2013-11-21,2013-11-21T00:00:00Z,H,2014-04-19,2014-04-19T23:59:59Z,H,Screening,1,DISCONTINUED,2014-05-19,,2013-11-21,2014-05-19,150,,,,,7,ALZHEIMER'S DISEASE,1,,,,,,PRIMARY DIAGNOSIS,2012-04-05,2012-04-05,2012-07-26,2012-07-26,-595,-483,Y,Y,Y,Y,Y,Y,,,1,SCREENING 1,-7,2013-10-24,-28,,BEFORE,,SCREENING,BEFORE,,2013-10-24,-28,,,,,,,,,,,,,,,,Past,Y,Y,Y
56,CDISCPILOT01,01-703-1299,1299,703,USA,MH,2012-09-12,2013-03-13,2012-09-12,2013-03-13,2013-03-27,,,,,,,,,,,,NA,2012-09-07,-5,81,YEARS,>64,F,WHITE,White,NOT HISPANIC OR LATINO,Y,Placebo,Pbo,Placebo,Pbo,Placebo,Placebo,Placebo,Placebo,2012-09-12,2012-09-12T00:00:00Z,H,2013-03-13,2013-03-13T23:59:59Z,H,Screening,1,COMPLETED,2013-03-13,,2012-09-12,2013-03-13,183,,,,,8,ALZHEIMER'S DISEASE,1,,,,,,PRIMARY DIAGNOSIS,2011-09-16,2011-09-16,2012-04-29,2012-04-29,-362,-136,Y,Y,Y,Y,Y,Y,,,1,SCREENING 1,-7,2012-09-07,-5,,BEFORE,,SCREENING,BEFORE,,2012-09-07,-5,,,,,,,,,,,,,,,,Past,Y,Y,Y
57,CDISCPILOT01,01-703-1335,1335,703,USA,MH,2014-03-17,2014-05-24,2014-03-17,2014-05-07,2014-05-24T12:15,,,,,,,,,,,,NA,2014-02-28,-17,67,YEARS,>64,F,BLACK OR AFRICAN AMERICAN,Non-white,NOT HISPANIC OR LATINO,Y,Xanomeline High Dose,Xan_Hi,Xanomeline High Dose,Xan_Hi,Xanomeline High Dose,Xanomeline High Dose,Xanomeline High Dose,Xanomeline High Dose,2014-03-17,2014-03-17T00:00:00Z,H,2014-05-07,2014-05-07T23:59:59Z,H,Screening,1,DISCONTINUED,2014-05-24,,2014-03-17,2014-05-24,52,,,,,3,ALZHEIMER'S DISEASE,1,,,,,,PRIMARY DIAGNOSIS,2008-01-30,2008-01-30,2008-04-06,2008-04-06,-2238,-2171,Y,Y,Y,Y,Y,Y,,,1,SCREENING 1,-7,2014-02-28,-17,,BEFORE,,SCREENING,BEFORE,,2014-02-28,-17,,,,,,,,,,,,,,,,Past,Y,Y,Y
58,CDISCPILOT01,01-703-1379,1379,703,USA,MH,2013-09-22,2014-03-21,2013-09-22,2014-03-21,2014-03-21T10:55,,,,,,,,,,,,NA,2013-09-12,-10,81,YEARS,>64,F,BLACK OR AFRICAN AMERICAN,Non-white,NOT HISPANIC OR LATINO,Y,Xanomeline Low Dose,Xan_Lo,Xanomeline Low Dose,Xan_Lo,Xanomeline Low Dose,Xanomeline Low Dose,Xanomeline Low Dose,Xanomeline Low Dose,2013-09-22,2013-09-22T00:00:00Z,H,2014-03-21,2014-03-21T23:59:59Z,H,Screening,1,COMPLETED,2014-03-21,,2013-09-22,2014-03-21,181,,,,,8,ALZHEIMER'S DISEASE,1,,,,,,PRIMARY DIAGNOSIS,2009-09-21,2009-09-21,2010-05-29,2010-05-29,-1462,-1212,Y,Y,Y,Y,Y,Y,,,1,SCREENING 1,-7,2013-09-12,-10,,BEFORE,,SCREENING,BEFORE,,2013-09-12,-10,,,,,,,,,,,,,,,,Past,Y,Y,Y
59,CDISCPILOT01,01-703-1403,1403,703,USA,MH,2012-12-12,2012-12-19,2012-12-12,2012-12-13,2013-01-08,,,,,,,,,,,,NA,2012-12-05,-7,67,YEARS,>64,M,WHITE,White,NOT HISPANIC OR LATINO,Y,Xanomeline High Dose,Xan_Hi,Xanomeline Low Dose,Xan_Lo,Xanomeline High Dose,Xanomeline Low Dose,Xanomeline High Dose,Xanomeline Low Dose,2012-12-12,2012-12-12T00:00:00Z,H,2012-12-13,2012-12-13T23:59:59Z,H,Screening,1,DISCONTINUED,2012-12-19,,2012-12-12,2012-12-19,2,,,,,4,ALZHEIMER'S DISEASE,1,,,,,,PRIMARY DIAGNOSIS,2010-12-07,2010-12-07,2011-03-29,2011-03-29,-736,-624,Y,Y,Y,Y,Y,Y,,,1,SCREENING 1,-7,2012-12-05,-7,,BEFORE,,SCREENING,BEFORE,,2012-12-05,-7,,,,,,,,,,,,,,,,Past,Y,Y,Y
60,CDISCPILOT01,01-703-1439,1439,703,USA,MH,2014-03-12,2014-09-11,2014-03-12,2014-09-11,2014-09-11T12:40,,,,,,,,,,,,NA,2014-03-04,-8,76,YEARS,>64,F,WHITE,White,NOT HISPANIC OR LATINO,Y,Xanomeline High Dose,Xan_Hi,Xanomeline High Dose,Xan_Hi,Xanomeline High Dose,Xanomeline High Dose,Xanomeline High Dose,Xanomeline High Dose,2014-03-12,2014-03-12T00:00:00Z,H,2014-09-11,2014-09-11T23:59:59Z,H,Screening,1,COMPLETED,2014-09-11,,2014-03-12,2014-09-11,184,,,,,3,ALZHEIMER'S DISEASE,1,,,,,,PRIMARY DIAGNOSIS,2010-07-29,2010-07-29,2011-07-12,2011-07-12,-1322,-974,Y,Y,Y,Y,Y,Y,,,1,SCREENING 1,-7,2014-03-04,-8,,BEFORE,,SCREENING,BEFORE,,2014-03-04,-8,,,,,,,,,,,,,,,,Past,Y,Y,Y
61,CDISCPILOT01,01-704-1008,1008,704,USA,MH,2013-01-13,2013-02-25,2013-01-13,2013-02-21,2013-02-25T11:00,,,,,,,,,,,,NA,2013-01-06,-7,76,YEARS,>64,F,WHITE,White,NOT HISPANIC OR LATINO,Y,Xanomeline High Dose,Xan_Hi,Xanomeline High Dose,Xan_Hi,Xanomeline High Dose,Xanomeline High Dose,Xanomeline High Dose,Xanomeline High Dose,2013-01-13,2013-01-13T00:00:00Z,H,2013-02-21,2013-02-21T23:59:59Z,H,Screening,1,DISCONTINUED,2013-02-25,,2013-01-13,2013-02-25,40,,,,,5,ALZHEIMER'S DISEASE,1,,,,,,PRIMARY DIAGNOSIS,2011-10-17,2011-10-17,2011-10-24,2011-10-24,-454,-447,Y,Y,Y,Y,Y,Y,,,1,SCREENING 1,-7,2013-01-06,-7,,BEFORE,,SCREENING,BEFORE,,2013-01-06,-7,,,,,,,,,,,,,,,,Past,Y,Y,Y
62,CDISCPILOT01,01-704-1009,1009,704,USA,MH,2013-08-27,2013-10-02,2013-08-27,2013-09-25,2013-10-02,,,,,,,,,,,,NA,2013-08-20,-7,83,YEARS,>64,M,WHITE,White,NOT HISPANIC OR LATINO,Y,Xanomeline Low Dose,Xan_Lo,Xanomeline Low Dose,Xan_Lo,Xanomeline Low Dose,Xanomeline Low Dose,Xanomeline Low Dose,Xanomeline Low Dose,2013-08-27,2013-08-27T00:00:00Z,H,2013-09-25,2013-09-25T23:59:59Z,H,Screening,1,DISCONTINUED,2013-10-02,,2013-08-27,2013-09-27,30,,,,,6,ALZHEIMER'S DISEASE,1,,,,,,PRIMARY DIAGNOSIS,2009-02-03,2009-02-03,2009-05-24,2009-05-24,-1666,-1556,Y,Y,Y,Y,Y,Y,,,1,SCREENING 1,-7,2013-08-20,-7,,BEFORE,,SCREENING,BEFORE,,2013-08-20,-7,,,,,,,,,,,,,,,,Past,Y,Y,Y
63,CDISCPILOT01,01-704-1010,1010,704,USA,MH,2014-02-21,2014-07-09,2014-02-21,2014-07-08,2014-07-09T11:00,,,,,,,,,,,,NA,2014-02-08,-13,80,YEARS,>64,M,WHITE,White,NOT HISPANIC OR LATINO,Y,Placebo,Pbo,Placebo,Pbo,Placebo,Placebo,Placebo,Placebo,2014-02-21,2014-02-21T00:00:00Z,H,2014-07-08,2014-07-08T23:59:59Z,H,Screening,1,DISCONTINUED,2014-07-09,,2014-02-21,2014-07-09,138,,,,,9,ALZHEIMER'S DISEASE,1,,,,,,PRIMARY DIAGNOSIS,2006-01-02,2006-01-02,2006-01-21,2006-01-21,-2972,-2953,Y,Y,Y,Y,Y,Y,,,1,SCREENING 1,-7,2014-02-08,-13,,BEFORE,,SCREENING,BEFORE,,2014-02-08,-13,,,,,,,,,,,,,,,,Past,Y,Y,Y
64,CDISCPILOT01,01-704-1017,1017,704,USA,MH,2013-10-06,2013-11-24,2013-10-06,2013-11-18,2013-12-06,,,,,,,,,,,,NA,2013-09-20,-16,77,YEARS,>64,M,WHITE,White,NOT HISPANIC OR LATINO,Y,Xanomeline High Dose,Xan_Hi,Xanomeline High Dose,Xan_Hi,Xanomeline High Dose,Xanomeline High Dose,Xanomeline High Dose,Xanomeline High Dose,2013-10-06,2013-10-06T00:00:00Z,H,2013-11-18,2013-11-18T23:59:59Z,H,Screening,1,DISCONTINUED,2013-11-24,,2013-10-06,2013-11-22,44,,,,,9,ALZHEIMER'S DISEASE,1,,,,,,PRIMARY DIAGNOSIS,2011-03-27,2011-03-27,2011-05-18,2011-05-18,-924,-872,Y,Y,Y,,Y,Y,,,1,SCREENING 1,-7,2013-09-20,-16,,BEFORE,,SCREENING,BEFORE,,2013-09-20,-16,,,,,,,,,,,,,,,,Past,,Y,Y
65,CDISCPILOT01,01-704-1025,1025,704,USA,MH,2013-09-27,2013-11-29,2013-09-27,2013-10-24,2013-11-29T12:00,,,,,,,,,,,,NA,2013-09-18,-9,81,YEARS,>64,F,WHITE,White,NOT HISPANIC OR LATINO,Y,Xanomeline Low Dose,Xan_Lo,Xanomeline Low Dose,Xan_Lo,Xanomeline Low Dose,Xanomeline Low Dose,Xanomeline Low Dose,Xanomeline Low Dose,2013-09-27,2013-09-27T00:00:00Z,H,2013-10-24,2013-10-24T23:59:59Z,H,Screening,1,DISCONTINUED,2013-11-29,,2013-09-27,2013-11-29,28,,,,,4,ALZHEIMER'S DISEASE,1,,,,,,PRIMARY DIAGNOSIS,2012-03-03,2012-03-03,2012-08-17,2012-08-17,-573,-406,Y,Y,Y,Y,Y,Y,,,1,SCREENING 1,-7,2013-09-18,-9,,BEFORE,,SCREENING,BEFORE,,2013-09-18,-9,,,,,,,,,,,,,,,,Past,Y,Y,Y
66,CDISCPILOT01,01-704-1065,1065,704,USA,MH,2013-10-24,2013-12-24,2013-10-24,2013-12-22,2014-02-17,,,,,,,,,,,,NA,2013-10-17,-7,75,YEARS,>64,M,WHITE,White,NOT HISPANIC OR LATINO,Y,Xanomeline High Dose,Xan_Hi,Xanomeline High Dose,Xan_Hi,Xanomeline High Dose,Xanomeline High Dose,Xanomeline High Dose,Xanomeline High Dose,2013-10-24,2013-10-24T00:00:00Z,H,2013-12-22,2013-12-22T23:59:59Z,H,Screening,1,DISCONTINUED,2013-12-24,,2013-10-24,2013-12-24,60,,,,,8,ALZHEIMER'S DISEASE,1,,,,,,PRIMARY DIAGNOSIS,2010-03-23,2010-03-23,2010-08-07,2010-08-07,-1311,-1174,Y,Y,Y,Y,Y,Y,,,1,SCREENING 1,-7,2013-10-17,-7,,BEFORE,,SCREENING,BEFORE,,2013-10-17,-7,,,,,,,,,,,,,,,,Past,Y,Y,Y
67,CDISCPILOT01,01-704-1074,1074,704,USA,MH,2014-01-22,2014-03-31,2014-01-22,2014-03-20,2014-03-31T10:30,,,,,,,,,,,,NA,2014-01-19,-3,80,YEARS,>64,F,WHITE,White,NOT HISPANIC OR LATINO,Y,Xanomeline High Dose,Xan_Hi,Xanomeline High Dose,Xan_Hi,Xanomeline High Dose,Xanomeline High Dose,Xanomeline High Dose,Xanomeline High Dose,2014-01-22,2014-01-22T00:00:00Z,H,2014-03-20,2014-03-20T23:59:59Z,H,Screening,1,DISCONTINUED,2014-03-31,,2014-01-22,2014-03-31,58,,,,,10,ALZHEIMER'S DISEASE,1,,,,,,PRIMARY DIAGNOSIS,2009-01-30,2009-01-30,2009-07-25,2009-07-25,-1818,-1642,Y,Y,Y,Y,Y,Y,,,1,SCREENING 1,-7,2014-01-19,-3,,BEFORE,,SCREENING,BEFORE,,2014-01-19,-3,,,,,,,,,,,,,,,,Past,Y,Y,Y
68,CDISCPILOT01,01-704-1093,1093,704,USA,MH,2013-03-15,2013-06-20,2013-03-15,2013-06-17,2013-12-25,,2013-12-25,,,,,,,,,,NA,2013-02-22,-21,79,YEARS,>64,M,WHITE,White,NOT HISPANIC OR LATINO,Y,Xanomeline High Dose,Xan_Hi,Xanomeline High Dose,Xan_Hi,Xanomeline High Dose,Xanomeline High Dose,Xanomeline High Dose,Xanomeline High Dose,2013-03-15,2013-03-15T00:00:00Z,H,2013-06-17,2013-06-17T23:59:59Z,H,Screening,1,DISCONTINUED,2013-06-20,,2013-03-15,2013-06-20,95,,,,,6,ALZHEIMER'S DISEASE,1,,,,,,PRIMARY DIAGNOSIS,2010-07-17,2010-07-17,2011-06-07,2011-06-07,-972,-647,Y,Y,Y,Y,Y,Y,,,1,SCREENING 1,-7,2013-02-22,-21,,BEFORE,,SCREENING,BEFORE,,2013-02-22,-21,,,,,,,,,,,,,,,,Past,Y,Y,Y
69,CDISCPILOT01,01-704-1114,1114,704,USA,MH,2013-01-23,2013-07-08,2013-01-23,2013-07-07,2013-07-08T09:56,,,,,,,,,,,,NA,2013-01-09,-14,77,YEARS,>64,M,WHITE,White,NOT HISPANIC OR LATINO,Y,Xanomeline Low Dose,Xan_Lo,Xanomeline Low Dose,Xan_Lo,Xanomeline Low Dose,Xanomeline Low Dose,Xanomeline Low Dose,Xanomeline Low Dose,2013-01-23,2013-01-23T00:00:00Z,H,2013-07-07,2013-07-07T23:59:59Z,H,Screening,1,DISCONTINUED,2013-07-08,,2013-01-23,2013-07-08,166,,,,,5,ALZHEIMER'S DISEASE,1,,,,,,PRIMARY DIAGNOSIS,2007-03-25,2007-03-25,2008-03-20,2008-03-20,-2131,-1770,Y,Y,Y,Y,Y,Y,,,1,SCREENING 1,-7,2013-01-09,-14,,BEFORE,,SCREENING,BEFORE,,2013-01-09,-14,,,,,,,,,,,,,,,,Past,Y,Y,Y
70,CDISCPILOT01,01-704-1120,1120,704,USA,MH,2013-12-02,2014-02-03,2013-12-02,2014-02-01,2014-03-10,,,,,,,,,,,,NA,2013-11-18,-14,71,YEARS,>64,F,WHITE,White,NOT HISPANIC OR LATINO,Y,Xanomeline Low Dose,Xan_Lo,Xanomeline Low Dose,Xan_Lo,Xanomeline Low Dose,Xanomeline Low Dose,Xanomeline Low Dose,Xanomeline Low Dose,2013-12-02,2013-12-02T00:00:00Z,H,2014-02-01,2014-02-01T23:59:59Z,H,Screening,1,DISCONTINUED,2014-02-03,,2013-12-02,2014-02-03,62,,,,,3,ALZHEIMER'S DISEASE,1,,,,,,PRIMARY DIAGNOSIS,2007-03-23,2007-03-23,2007-05-22,2007-05-22,-2446,-2386,Y,Y,Y,Y,Y,Y,,,1,SCREENING 1,-7,2013-11-18,-14,,BEFORE,,SCREENING,BEFORE,,2013-11-18,-14,,,,,,,,,,,,,,,,Past,Y,Y,Y
71,CDISCPILOT01,01-704-1127,1127,704,USA,MH,2013-10-02,2014-03-31,2013-10-02,2014-03-31,2014-03-31T11:30,,,,,,,,,,,,NA,2013-09-16,-16,84,YEARS,>64,F,WHITE,White,NOT HISPANIC OR LATINO,Y,Placebo,Pbo,Placebo,Pbo,Placebo,Placebo,Placebo,Placebo,2013-10-02,2013-10-02T00:00:00Z,H,2014-03-31,2014-03-31T23:59:59Z,H,Screening,1,COMPLETED,2014-03-31,,2013-10-02,2014-03-31,181,,,,,2,ALZHEIMER'S DISEASE,1,,,,,,PRIMARY DIAGNOSIS,2008-09-11,2008-09-11,2009-07-31,2009-07-31,-1847,-1524,Y,Y,Y,Y,Y,Y,,,1,SCREENING 1,-7,2013-09-16,-16,,BEFORE,,SCREENING,BEFORE,,2013-09-16,-16,,,,,,,,,,,,,,,,Past,Y,Y,Y
72,CDISCPILOT01,01-704-1135,1135,704,USA,MH,2013-10-31,2014-05-16,2013-10-31,2014-05-16,2014-05-16T09:45,,,,,,,,,,,,NA,2013-10-23,-8,74,YEARS,>64,F,WHITE,White,NOT HISPANIC OR LATINO,Y,Xanomeline Low Dose,Xan_Lo,Xanomeline Low Dose,Xan_Lo,Xanomeline Low Dose,Xanomeline Low Dose,Xanomeline Low Dose,Xanomeline Low Dose,2013-10-31,2013-10-31T00:00:00Z,H,2014-05-16,2014-05-16T23:59:59Z,H,Screening,1,COMPLETED,2014-05-16,,2013-10-31,2014-05-16,198,,,,,4,ALZHEIMER'S DISEASE,1,,,,,,PRIMARY DIAGNOSIS,2010-10-06,2010-10-06,2011-08-24,2011-08-24,-1121,-799,Y,Y,Y,Y,Y,Y,,,1,SCREENING 1,-7,2013-10-23,-8,,BEFORE,,SCREENING,BEFORE,,2013-10-23,-8,,,,,,,,,,,,,,,,Past,Y,Y,Y
73,CDISCPILOT01,01-704-1164,1164,704,USA,MH,2012-09-19,2013-04-04,2012-09-19,2013-04-04,2013-04-04,,,,,,,,,,,,NA,2012-09-11,-8,67,YEARS,>64,F,WHITE,White,NOT HISPANIC OR LATINO,Y,Placebo,Pbo,Placebo,Pbo,Placebo,Placebo,Placebo,Placebo,2012-09-19,2012-09-19T00:00:00Z,H,2013-04-04,2013-04-04T23:59:59Z,H,Screening,1,COMPLETED,2013-04-04,,2012-09-19,2013-04-04,198,,,,,6,ALZHEIMER'S DISEASE,1,,,,,,PRIMARY DIAGNOSIS,2011-03-04,2011-03-04,2012-04-03,2012-04-03,-565,-169,Y,Y,Y,Y,Y,Y,,,1,SCREENING 1,-7,2012-09-11,-8,,BEFORE,,SCREENING,BEFORE,,2012-09-11,-8,,,,,,,,,,,,,,,,Past,Y,Y,Y
74,CDISCPILOT01,01-704-1218,1218,704,USA,MH,2012-11-19,2013-05-27,2012-11-19,2013-05-27,2013-05-27T11:20,,,,,,,,,,,,NA,2012-11-11,-8,81,YEARS,>64,F,WHITE,White,NOT HISPANIC OR LATINO,Y,Xanomeline Low Dose,Xan_Lo,Xanomeline Low Dose,Xan_Lo,Xanomeline Low Dose,Xanomeline Low Dose,Xanomeline Low Dose,Xanomeline Low Dose,2012-11-19,2012-11-19T00:00:00Z,H,2013-05-27,2013-05-27T23:59:59Z,H,Screening,1,COMPLETED,2013-05-27,,2012-11-19,2013-05-27,190,,,,,7,ALZHEIMER'S DISEASE,1,,,,,,PRIMARY DIAGNOSIS,2010-08-15,2010-08-15,2010-12-25,2010-12-25,-827,-695,Y,Y,Y,Y,Y,Y,,,1,SCREENING 1,-7,2012-11-11,-8,,BEFORE,,SCREENING,BEFORE,,2012-11-11,-8,,,,,,,,,,,,,,,,Past,Y,Y,Y
75,CDISCPILOT01,01-704-1233,1233,704,USA,MH,2013-03-21,2013-07-14,2013-03-21,2013-04-04,2013-07-14,,,,,,,,,,,,NA,2013-03-08,-13,87,YEARS,>64,F,WHITE,White,NOT HISPANIC OR LATINO,Y,Placebo,Pbo,Placebo,Pbo,Placebo,Placebo,Placebo,Placebo,2013-03-21,2013-03-21T00:00:00Z,H,2013-04-04,2013-04-04T23:59:59Z,H,Screening,1,DISCONTINUED,2013-07-14,,2013-03-21,2013-07-11,15,,,,,6,ALZHEIMER'S DISEASE,1,,,,,,PRIMARY DIAGNOSIS,2011-01-15,2011-01-15,2011-10-12,2011-10-12,-796,-526,Y,Y,Y,Y,Y,Y,,,1,SCREENING 1,-7,2013-03-08,-13,,BEFORE,,SCREENING,BEFORE,,2013-03-08,-13,,,,,,,,,,,,,,,,Past,Y,Y,Y
76,CDISCPILOT01,01-704-1241,1241,704,USA,MH,2013-08-25,2013-10-31,2013-08-25,2013-10-09,2014-01-22,,,,,,,,,,,,NA,2013-08-14,-11,86,YEARS,>64,M,WHITE,White,NOT HISPANIC OR LATINO,Y,Xanomeline High Dose,Xan_Hi,Xanomeline High Dose,Xan_Hi,Xanomeline High Dose,Xanomeline High Dose,Xanomeline High Dose,Xanomeline High Dose,2013-08-25,2013-08-25T00:00:00Z,H,2013-10-09,2013-10-09T23:59:59Z,H,Screening,1,DISCONTINUED,2013-10-31,,2013-08-25,2013-10-31,46,,,,,5,ALZHEIMER'S DISEASE,1,,,,,,PRIMARY DIAGNOSIS,2011-07-25,2011-07-25,2012-04-30,2012-04-30,-762,-482,Y,Y,Y,Y,Y,Y,,,1,SCREENING 1,-7,2013-08-14,-11,,BEFORE,,SCREENING,BEFORE,,2013-08-14,-11,,,,,,,,,,,,,,,,Past,Y,Y,Y
77,CDISCPILOT01,01-704-1260,1260,704,USA,MH,2012-08-30,2013-01-18,2012-08-30,2012-11-04,2013-01-18,,,,,,,,,,,,NA,2012-08-23,-7,71,YEARS,>64,F,WHITE,White,NOT HISPANIC OR LATINO,Y,Placebo,Pbo,Placebo,Pbo,Placebo,Placebo,Placebo,Placebo,2012-08-30,2012-08-30T00:00:00Z,H,2012-11-04,2012-11-04T23:59:59Z,H,Screening,1,DISCONTINUED,2013-01-18,,2012-08-30,2012-11-04,67,,,,,4,ALZHEIMER'S DISEASE,1,,,,,,PRIMARY DIAGNOSIS,2002-11-29,2002-11-29,2002-12-26,2002-12-26,-3562,-3535,Y,Y,Y,Y,Y,Y,,,1,SCREENING 1,-7,2012-08-23,-7,,BEFORE,,SCREENING,BEFORE,,2012-08-23,-7,,,,,,,,,,,,,,,,Past,,Y,Y
78,CDISCPILOT01,01-704-1266,1266,704,USA,MH,2013-10-13,2013-12-06,2013-10-13,2013-12-06,2014-01-03,,,,,,,,,,,,NA,2013-10-05,-8,82,YEARS,>64,M,WHITE,White,NOT HISPANIC OR LATINO,Y,Xanomeline High Dose,Xan_Hi,Xanomeline High Dose,Xan_Hi,Xanomeline High Dose,Xanomeline High Dose,Xanomeline High Dose,Xanomeline High Dose,2013-10-13,2013-10-13T00:00:00Z,H,2013-12-06,2013-12-06T23:59:59Z,H,Screening,1,DISCONTINUED,2013-12-06,,2013-10-13,2013-12-23,55,,,,,13,ALZHEIMER'S DISEASE,1,,,,,,PRIMARY DIAGNOSIS,2011-12-02,2011-12-02,2012-02-01,2012-02-01,-681,-620,Y,Y,Y,Y,Y,Y,,,1,SCREENING 1,-7,2013-10-05,-8,,BEFORE,,SCREENING,BEFORE,,2013-10-05,-8,,,,,,,,,,,,,,,,Past,Y,Y,Y
79,CDISCPILOT01,01-704-1323,1323,704,USA,MH,2013-07-08,2013-08-08,2013-07-08,2013-08-05,2013-10-01,,,,,,,,,,,,NA,2013-06-13,-25,68,YEARS,>64,F,WHITE,White,NOT HISPANIC OR LATINO,Y,Xanomeline Low Dose,Xan_Lo,Xanomeline Low Dose,Xan_Lo,Xanomeline Low Dose,Xanomeline Low Dose,Xanomeline Low Dose,Xanomeline Low Dose,2013-07-08,2013-07-08T00:00:00Z,H,2013-08-05,2013-08-05T23:59:59Z,H,Screening,1,DISCONTINUED,2013-08-08,,2013-07-08,2013-08-05,29,,,,,10,ALZHEIMER'S DISEASE,1,,,,,,PRIMARY DIAGNOSIS,2010-03-23,2010-03-23,2010-04-16,2010-04-16,-1203,-1179,Y,Y,Y,Y,Y,Y,,,1,SCREENING 1,-7,2013-06-13,-25,,BEFORE,,SCREENING,BEFORE,,2013-06-13,-25,,,,,,,,,,,,,,,,Past,Y,Y,Y
80,CDISCPILOT01,01-704-1325,1325,704,USA,MH,2014-04-23,2014-08-06,2014-04-23,2014-07-04,2014-08-06T13:30,,,,,,,,,,,,NA,2014-04-16,-7,81,YEARS,>64,M,WHITE,White,NOT HISPANIC OR LATINO,Y,Xanomeline Low Dose,Xan_Lo,Xanomeline Low Dose,Xan_Lo,Xanomeline Low Dose,Xanomeline Low Dose,Xanomeline Low Dose,Xanomeline Low Dose,2014-04-23,2014-04-23T00:00:00Z,H,2014-07-04,2014-07-04T23:59:59Z,H,Screening,1,DISCONTINUED,2014-08-06,,2014-04-23,2014-08-06,73,,,,,7,ALZHEIMER'S DISEASE,1,,,,,,PRIMARY DIAGNOSIS,2008-11-02,2008-11-02,2009-05-04,2009-05-04,-1998,-1815,Y,Y,Y,Y,Y,Y,,,1,SCREENING 1,-7,2014-04-16,-7,,BEFORE,,SCREENING,BEFORE,,2014-04-16,-7,,,,,,,,,,,,,,,,Past,Y,Y,Y
81,CDISCPILOT01,01-704-1332,1332,704,USA,MH,2013-12-09,2014-02-16,2013-12-09,2014-02-14,2014-02-24,,,,,,,,,,,,NA,2013-11-24,-15,80,YEARS,>64,M,WHITE,White,NOT HISPANIC OR LATINO,Y,Xanomeline High Dose,Xan_Hi,Xanomeline High Dose,Xan_Hi,Xanomeline High Dose,Xanomeline High Dose,Xanomeline High Dose,Xanomeline High Dose,2013-12-09,2013-12-09T00:00:00Z,H,2014-02-14,2014-02-14T23:59:59Z,H,Screening,1,DISCONTINUED,2014-02-16,,2013-12-09,2014-02-24,68,,,,,4,ALZHEIMER'S DISEASE,1,,,,,,PRIMARY DIAGNOSIS,2011-11-09,2011-11-09,2012-10-16,2012-10-16,-761,-419,Y,Y,Y,Y,Y,Y,,,1,SCREENING 1,-7,2013-11-24,-15,,BEFORE,,SCREENING,BEFORE,,2013-11-24,-15,,,,,,,,,,,,,,,,Past,,Y,Y
82,CDISCPILOT01,01-704-1351,1351,704,USA,MH,2013-10-12,2014-04-18,2013-10-12,2014-04-18,2014-04-18T10:30,,,,,,,,,,,,NA,2013-09-26,-16,70,YEARS,>64,M,WHITE,White,NOT HISPANIC OR LATINO,Y,Placebo,Pbo,Placebo,Pbo,Placebo,Placebo,Placebo,Placebo,2013-10-12,2013-10-12T00:00:00Z,H,2014-04-18,2014-04-18T23:59:59Z,H,Screening,1,COMPLETED,2014-04-18,,2013-10-12,2014-04-18,189,,,,,8,ALZHEIMER'S DISEASE,1,,,,,,PRIMARY DIAGNOSIS,2012-09-10,2012-09-10,2013-05-24,2013-05-24,-397,-141,Y,Y,Y,Y,Y,Y,,,1,SCREENING 1,-7,2013-09-26,-16,,BEFORE,,SCREENING,BEFORE,,2013-09-26,-16,,,,,,,,,,,,,,,,Past,Y,Y,Y
83,CDISCPILOT01,01-704-1388,1388,704,USA,MH,2012-12-07,2013-06-19,2012-12-07,2013-06-11,2013-06-19T12:30,,,,,,,,,,,,NA,2012-11-28,-9,81,YEARS,>64,M,WHITE,White,NOT HISPANIC OR LATINO,Y,Placebo,Pbo,Placebo,Pbo,Placebo,Placebo,Placebo,Placebo,2012-12-07,2012-12-07T00:00:00Z,H,2013-06-11,2013-06-11T23:59:59Z,H,Screening,1,COMPLETED,2013-06-19,,2012-12-07,2013-06-19,187,,,,,12,ALZHEIMER'S DISEASE,1,,,,,,PRIMARY DIAGNOSIS,2010-10-26,2010-10-26,2011-02-28,2011-02-28,-773,-648,Y,Y,Y,Y,Y,Y,,,1,SCREENING 1,-7,2012-11-28,-9,,BEFORE,,SCREENING,BEFORE,,2012-11-28,-9,,,,,,,,,,,,,,,,Past,Y,Y,Y
84,CDISCPILOT01,01-704-1435,1435,704,USA,MH,2012-11-17,2013-01-12,2012-11-17,2013-01-09,2013-01-12T12:00,,,,,,,,,,,,NA,2012-11-01,-16,74,YEARS,>64,M,WHITE,White,NOT HISPANIC OR LATINO,Y,Placebo,Pbo,Placebo,Pbo,Placebo,Placebo,Placebo,Placebo,2012-11-17,2012-11-17T00:00:00Z,H,2013-01-09,2013-01-09T23:59:59Z,H,Screening,1,DISCONTINUED,2013-01-12,,2012-11-17,2013-01-12,54,,,,,9,ALZHEIMER'S DISEASE,1,,,,,,PRIMARY DIAGNOSIS,2010-01-20,2010-01-20,2010-01-27,2010-01-27,-1032,-1025,Y,Y,Y,Y,Y,Y,,,1,SCREENING 1,-7,2012-11-01,-16,,BEFORE,,SCREENING,BEFORE,,2012-11-01,-16,,,,,,,,,,,,,,,,Past,Y,Y,Y
85,CDISCPILOT01,01-704-1445,1445,704,USA,MH,2014-05-11,2014-11-01,2014-05-11,2014-11-01,2014-11-01,,,2014-11-01,175,Y,0,<= 30,Y,,AE,,NA,2014-05-01,-10,75,YEARS,>64,M,WHITE,White,NOT HISPANIC OR LATINO,Y,Placebo,Pbo,Placebo,Pbo,Placebo,Placebo,Placebo,Placebo,2014-05-11,2014-05-11T00:00:00Z,H,2014-11-01,2014-11-01T23:59:59Z,H,Screening,1,DISCONTINUED,2014-11-01,,2014-05-11,2014-11-01,175,2014-11-01,,COMPLETED SUICIDE,ADVERSE EVENT,8,ALZHEIMER'S DISEASE,1,,,,,,PRIMARY DIAGNOSIS,2012-11-11,2012-11-11,2013-02-24,2013-02-24,-546,-441,Y,Y,Y,Y,Y,Y,,,1,SCREENING 1,-7,2014-05-01,-10,,BEFORE,,SCREENING,BEFORE,,2014-05-01,-10,,,,,,,,,,,,,,,,Past,Y,Y,Y
86,CDISCPILOT01,01-705-1018,1018,705,USA,MH,2013-07-05,2013-07-12,2013-07-05,,2013-07-12,,,,,,,,,,,,NA,2013-06-30,-5,69,YEARS,>64,F,WHITE,White,NOT HISPANIC OR LATINO,Y,Placebo,Pbo,Placebo,Pbo,Placebo,Placebo,Placebo,Placebo,2013-07-05,2013-07-05T00:00:00Z,H,,,,Screening,1,DISCONTINUED,2013-07-12,,2013-07-05,2013-06-30,,,,,,4,ALZHEIMER'S DISEASE,1,,,,,,PRIMARY DIAGNOSIS,2009-11-21,2009-11-21,2010-03-11,2010-03-11,-1322,-1212,Y,Y,Y,Y,Y,Y,,,1,SCREENING 1,-7,2013-06-30,-5,,BEFORE,,SCREENING,BEFORE,,2013-06-30,-5,,,,,,,,,,,,,,,,Past,Y,Y,Y
87,CDISCPILOT01,01-705-1031,1031,705,USA,MH,2013-11-27,2014-05-11,2013-11-27,2013-12-18,2014-05-11T09:55,,,,,,,,,,,,NA,2013-11-17,-10,56,YEARS,18-64,F,WHITE,White,HISPANIC OR LATINO,Y,Xanomeline Low Dose,Xan_Lo,Xanomeline Low Dose,Xan_Lo,Xanomeline Low Dose,Xanomeline Low Dose,Xanomeline Low Dose,Xanomeline Low Dose,2013-11-27,2013-11-27T00:00:00Z,H,2013-12-18,2013-12-18T23:59:59Z,H,Screening,1,DISCONTINUED,2014-05-11,,2013-11-27,2014-05-11,22,,,,,3,ALZHEIMER'S DISEASE,1,,,,,,PRIMARY DIAGNOSIS,2010-11-25,2010-11-25,2010-11-30,2010-11-30,-1098,-1093,Y,Y,Y,Y,Y,Y,,,1,SCREENING 1,-7,2013-11-17,-10,,BEFORE,,SCREENING,BEFORE,,2013-11-17,-10,,,,,,,,,,,,,,,,Past,Y,Y,Y
88,CDISCPILOT01,01-705-1059,1059,705,USA,MH,2013-08-05,2013-12-05,2013-08-05,2013-12-05,2014-02-06,,2014-02-06,,,,,,,,,,NA,2013-08-02,-3,66,YEARS,>64,F,WHITE,White,NOT HISPANIC OR LATINO,Y,Placebo,Pbo,Placebo,Pbo,Placebo,Placebo,Placebo,Placebo,2013-08-05,2013-08-05T00:00:00Z,H,2013-12-05,2013-12-05T23:59:59Z,H,Screening,1,DISCONTINUED,2013-12-05,,2013-08-05,2013-12-05,123,,,,,3,ALZHEIMER'S DISEASE,1,,,,,,PRIMARY DIAGNOSIS,2009-07-20,2009-07-20,2010-01-18,2010-01-18,-1477,-1295,Y,Y,Y,Y,Y,Y,,,1,SCREENING 1,-7,2013-08-02,-3,,BEFORE,,SCREENING,BEFORE,,2013-08-02,-3,,,,,,,,,,,,,,,,Past,Y,Y,Y
89,CDISCPILOT01,01-705-1186,1186,705,USA,MH,2014-01-08,2014-02-07,2014-01-08,2014-01-26,2014-02-07T15:20,,,,,,,,,,,,NA,2014-01-03,-5,84,YEARS,>64,F,WHITE,White,NOT HISPANIC OR LATINO,Y,Placebo,Pbo,Placebo,Pbo,Placebo,Placebo,Placebo,Placebo,2014-01-08,2014-01-08T00:00:00Z,H,2014-01-26,2014-01-26T23:59:59Z,H,Screening,1,DISCONTINUED,2014-02-07,,2014-01-08,2014-02-07,19,,,,,3,ALZHEIMER'S DISEASE,1,,,,,,PRIMARY DIAGNOSIS,2011-07-03,2011-07-03,2012-08-02,2012-08-02,-920,-524,Y,Y,Y,Y,Y,Y,,,1,SCREENING 1,-7,2014-01-03,-5,,BEFORE,,SCREENING,BEFORE,,2014-01-03,-5,,,,,,,,,,,,,,,,Past,Y,Y,Y
90,CDISCPILOT01,01-705-1199,1199,705,USA,MH,2013-09-16,2013-09-29,2013-09-16,2013-09-28,2013-09-29T10:30,,,,,,,,,,,,NA,2013-09-11,-5,87,YEARS,>64,M,WHITE,White,NOT HISPANIC OR LATINO,Y,Xanomeline Low Dose,Xan_Lo,Xanomeline Low Dose,Xan_Lo,Xanomeline Low Dose,Xanomeline Low Dose,Xanomeline Low Dose,Xanomeline Low Dose,2013-09-16,2013-09-16T00:00:00Z,H,2013-09-28,2013-09-28T23:59:59Z,H,Screening,1,DISCONTINUED,2013-09-29,,2013-09-16,2013-09-29,13,,,,,7,ALZHEIMER'S DISEASE,1,,,,,,PRIMARY DIAGNOSIS,2007-09-08,2007-09-08,2008-01-16,2008-01-16,-2200,-2070,Y,Y,Y,Y,Y,Y,,,1,SCREENING 1,-7,2013-09-11,-5,,BEFORE,,SCREENING,BEFORE,,2013-09-11,-5,,,,,,,,,,,,,,,,Past,Y,Y,Y
91,CDISCPILOT01,01-705-1280,1280,705,USA,MH,2014-01-17,2014-07-25,2014-01-17,2014-07-25,2014-07-25,,,,,,,,,,,,NA,2014-01-11,-6,56,YEARS,18-64,F,WHITE,White,NOT HISPANIC OR LATINO,Y,Xanomeline High Dose,Xan_Hi,Xanomeline High Dose,Xan_Hi,Xanomeline High Dose,Xanomeline High Dose,Xanomeline High Dose,Xanomeline High Dose,2014-01-17,2014-01-17T00:00:00Z,H,2014-07-25,2014-07-25T23:59:59Z,H,Screening,1,COMPLETED,2014-07-25,,2014-01-17,2014-07-25,190,,,,,2,ALZHEIMER'S DISEASE,1,,,,,,PRIMARY DIAGNOSIS,2013-01-04,2013-01-04,2013-05-10,2013-05-10,-378,-252,Y,Y,Y,Y,Y,Y,,,1,SCREENING 1,-7,2014-01-11,-6,,BEFORE,,SCREENING,BEFORE,,2014-01-11,-6,,,,,,,,,,,,,,,,Past,Y,Y,Y
92,CDISCPILOT01,01-705-1281,1281,705,USA,MH,2013-11-28,2014-03-17,2013-11-28,2014-02-27,2014-04-20,,,,,,,,,,,,NA,2013-11-26,-2,73,YEARS,>64,F,BLACK OR AFRICAN AMERICAN,Non-white,NOT HISPANIC OR LATINO,Y,Xanomeline High Dose,Xan_Hi,Xanomeline High Dose,Xan_Hi,Xanomeline High Dose,Xanomeline High Dose,Xanomeline High Dose,Xanomeline High Dose,2013-11-28,2013-11-28T00:00:00Z,H,2014-02-27,2014-02-27T23:59:59Z,H,Screening,1,DISCONTINUED,2014-03-17,,2013-11-28,2014-03-17,92,,,,,4,ALZHEIMER'S DISEASE,1,,,,,,PRIMARY DIAGNOSIS,2012-11-05,2012-11-05,2013-03-18,2013-03-18,-388,-255,Y,Y,Y,Y,Y,Y,,,1,SCREENING 1,-7,2013-11-26,-2,,BEFORE,,SCREENING,BEFORE,,2013-11-26,-2,,,,,,,,,,,,,,,,Past,Y,Y,Y
93,CDISCPILOT01,01-705-1282,1282,705,USA,MH,2012-12-26,2013-06-24,2012-12-26,2013-06-24,2013-06-24T15:25,,,,,,,,,,,,NA,2012-12-23,-3,70,YEARS,>64,F,BLACK OR AFRICAN AMERICAN,Non-white,NOT HISPANIC OR LATINO,Y,Placebo,Pbo,Placebo,Pbo,Placebo,Placebo,Placebo,Placebo,2012-12-26,2012-12-26T00:00:00Z,H,2013-06-24,2013-06-24T23:59:59Z,H,Screening,1,COMPLETED,2013-06-24,,2012-12-26,2013-06-24,181,,,,,1,ALZHEIMER'S DISEASE,1,,,,,,PRIMARY DIAGNOSIS,2006-12-06,2006-12-06,2007-07-17,2007-07-17,-2212,-1989,Y,Y,Y,Y,Y,Y,,,1,SCREENING 1,-7,2012-12-23,-3,,BEFORE,,SCREENING,BEFORE,,2012-12-23,-3,,,,,,,,,,,,,,,,Past,Y,Y,Y
94,CDISCPILOT01,01-705-1292,1292,705,USA,MH,2013-10-14,2014-05-14,2013-10-14,2014-05-13,2014-05-14T13:33,,,,,,,,,,,,NA,2013-10-11,-3,60,YEARS,18-64,F,BLACK OR AFRICAN AMERICAN,Non-white,NOT HISPANIC OR LATINO,Y,Xanomeline Low Dose,Xan_Lo,Xanomeline Low Dose,Xan_Lo,Xanomeline Low Dose,Xanomeline Low Dose,Xanomeline Low Dose,Xanomeline Low Dose,2013-10-14,2013-10-14T00:00:00Z,H,2014-05-13,2014-05-13T23:59:59Z,H,Screening,1,COMPLETED,2014-05-14,,2013-10-14,2014-05-14,212,,,,,2,ALZHEIMER'S DISEASE,1,,,,,,PRIMARY DIAGNOSIS,2012-09-28,2012-09-28,2013-04-02,2013-04-02,-381,-195,Y,Y,Y,Y,Y,Y,,,1,SCREENING 1,-7,2013-10-11,-3,,BEFORE,,SCREENING,BEFORE,,2013-10-11,-3,,,,,,,,,,,,,,,,Past,Y,Y,Y
95,CDISCPILOT01,01-705-1303,1303,705,USA,MH,2013-12-16,2014-06-02,2013-12-16,2013-12-30,2014-06-02,,,,,,,,,,,,NA,2013-12-10,-6,72,YEARS,>64,M,WHITE,White,NOT HISPANIC OR LATINO,Y,Xanomeline High Dose,Xan_Hi,Xanomeline High Dose,Xan_Hi,Xanomeline High Dose,Xanomeline High Dose,Xanomeline High Dose,Xanomeline High Dose,2013-12-16,2013-12-16T00:00:00Z,H,2013-12-30,2013-12-30T23:59:59Z,H,Screening,1,DISCONTINUED,2014-06-02,,2013-12-16,2014-04-07,15,,,,,2,ALZHEIMER'S DISEASE,1,,,,,,PRIMARY DIAGNOSIS,2010-12-15,2010-12-15,2011-03-09,2011-03-09,-1097,-1013,Y,Y,Y,Y,Y,Y,,,1,SCREENING 1,-7,2013-12-10,-6,,BEFORE,,SCREENING,BEFORE,,2013-12-10,-6,,,,,,,,,,,,,,,,Past,Y,Y,Y
96,CDISCPILOT01,01-705-1310,1310,705,USA,MH,2013-11-02,2014-01-23,2013-11-02,2014-01-23,2014-02-24,,,,,,,,,,,,NA,2013-10-26,-7,74,YEARS,>64,F,WHITE,White,NOT HISPANIC OR LATINO,Y,Xanomeline High Dose,Xan_Hi,Xanomeline High Dose,Xan_Hi,Xanomeline High Dose,Xanomeline High Dose,Xanomeline High Dose,Xanomeline High Dose,2013-11-02,2013-11-02T00:00:00Z,H,2014-01-23,2014-01-23T23:59:59Z,H,Screening,1,DISCONTINUED,2014-01-23,,2013-11-02,2014-01-23,83,,,,,2,ALZHEIMER'S DISEASE,1,,,,,,PRIMARY DIAGNOSIS,2011-10-30,2011-10-30,2011-12-26,2011-12-26,-734,-677,Y,Y,Y,Y,Y,Y,,,1,SCREENING 1,-7,2013-10-26,-7,,BEFORE,,SCREENING,BEFORE,,2013-10-26,-7,,,,,,,,,,,,,,,,Past,Y,Y,Y
97,CDISCPILOT01,01-705-1349,1349,705,USA,MH,2013-03-10,2013-09-08,2013-03-10,2013-09-08,2013-09-08T10:10,,,,,,,,,,,,NA,2013-02-24,-14,86,YEARS,>64,F,WHITE,White,HISPANIC OR LATINO,Y,Placebo,Pbo,Placebo,Pbo,Placebo,Placebo,Placebo,Placebo,2013-03-10,2013-03-10T00:00:00Z,H,2013-09-08,2013-09-08T23:59:59Z,H,Screening,1,COMPLETED,2013-09-08,,2013-03-10,2013-09-08,183,,,,,3,ALZHEIMER'S DISEASE,1,,,,,,PRIMARY DIAGNOSIS,2007-03-23,2007-03-23,2007-05-03,2007-05-03,-2179,-2138,Y,Y,Y,Y,Y,Y,,,1,SCREENING 1,-7,2013-02-24,-14,,BEFORE,,SCREENING,BEFORE,,2013-02-24,-14,,,,,,,,,,,,,,,,Past,Y,Y,Y
98,CDISCPILOT01,01-705-1377,1377,705,USA,MH,2014-01-04,2014-03-07,2014-01-04,2014-01-25,2014-03-07,,,,,,,,,,,,NA,2013-12-29,-6,63,YEARS,18-64,F,BLACK OR AFRICAN AMERICAN,Non-white,NOT HISPANIC OR LATINO,Y,Xanomeline High Dose,Xan_Hi,Xanomeline High Dose,Xan_Hi,Xanomeline High Dose,Xanomeline High Dose,Xanomeline High Dose,Xanomeline High Dose,2014-01-04,2014-01-04T00:00:00Z,H,2014-01-25,2014-01-25T23:59:59Z,H,Screening,1,DISCONTINUED,2014-03-07,,2014-01-04,2014-02-07,22,,,,,3,ALZHEIMER'S DISEASE,1,,,,,,PRIMARY DIAGNOSIS,2012-01-05,2012-01-05,2012-01-30,2012-01-30,-730,-705,Y,Y,Y,Y,Y,Y,,,1,SCREENING 1,-7,2013-12-29,-6,,BEFORE,,SCREENING,BEFORE,,2013-12-29,-6,,,,,,,,,,,,,,,,Past,Y,Y,Y
99,CDISCPILOT01,01-705-1382,1382,705,USA,MH,2013-05-13,2013-05-13,2013-05-13,,2013-05-13,,,,,,,,,,,,NA,2013-05-09,-4,82,YEARS,>64,M,WHITE,White,NOT HISPANIC OR LATINO,Y,Xanomeline High Dose,Xan_Hi,Xanomeline Low Dose,Xan_Lo,Xanomeline High Dose,Xanomeline Low Dose,Xanomeline High Dose,Xanomeline Low Dose,2013-05-13,2013-05-13T00:00:00Z,H,,,,Screening,1,DISCONTINUED,2013-05-13,,2013-05-13,2013-05-09,,,,,,4,ALZHEIMER'S DISEASE,1,,,,,,PRIMARY DIAGNOSIS,2012-05-03,2012-05-03,2012-06-04,2012-06-04,-375,-343,Y,Y,Y,Y,Y,Y,,,1,SCREENING 1,-7,2013-05-09,-4,,BEFORE,,SCREENING,BEFORE,,2013-05-09,-4,,,,,,,,,,,,,,,,Past,Y,Y,Y
100,CDISCPILOT01,01-705-1393,1393,705,USA,MH,2012-09-07,2013-02-20,2012-09-07,2013-02-01,2013-04-25,,,,,,,,,,,,NA,2012-09-02,-5,84,YEARS,>64,F,WHITE,White,NOT HISPANIC OR LATINO,Y,Xanomeline Low Dose,Xan_Lo,Xanomeline Low Dose,Xan_Lo,Xanomeline Low Dose,Xanomeline Low Dose,Xanomeline Low Dose,Xanomeline Low Dose,2012-09-07,2012-09-07T00:00:00Z,H,2013-02-01,2013-02-01T23:59:59Z,H,Screening,1,DISCONTINUED,2013-02-20,,2012-09-07,2013-02-20,148,,,,,4,ALZHEIMER'S DISEASE,1,,,,,,PRIMARY DIAGNOSIS,2004-09-08,2004-09-08,2005-04-13,2005-04-13,-2921,-2704,Y,Y,Y,Y,Y,Y,,,1,SCREENING 1,-7,2012-09-02,-5,,BEFORE,,SCREENING,BEFORE,,2012-09-02,-5,,,,,,,,,,,,,,,,Past,Y,Y,Y
101,CDISCPILOT01,01-705-1431,1431,705,USA,MH,2013-06-23,2013-12-19,2013-06-23,2013-12-19,2013-12-19T10:05,,,,,,,,,,,,NA,2013-06-16,-7,68,YEARS,>64,F,WHITE,White,HISPANIC OR LATINO,Y,Xanomeline Low Dose,Xan_Lo,Xanomeline Low Dose,Xan_Lo,Xanomeline Low Dose,Xanomeline Low Dose,Xanomeline Low Dose,Xanomeline Low Dose,2013-06-23,2013-06-23T00:00:00Z,H,2013-12-19,2013-12-19T23:59:59Z,H,Screening,1,COMPLETED,2013-12-19,,2013-06-23,2013-12-19,180,,,,,8,ALZHEIMER'S DISEASE,1,,,,,,PRIMARY DIAGNOSIS,2010-07-04,2010-07-04,2010-07-17,2010-07-17,-1085,-1072,Y,Y,Y,Y,Y,Y,,,1,SCREENING 1,-7,2013-06-16,-7,,BEFORE,,SCREENING,BEFORE,,2013-06-16,-7,,,,,,,,,,,,,,,,Past,Y,Y,Y
102,CDISCPILOT01,01-706-1041,1041,706,USA,MH,2013-12-31,2014-07-29,2013-12-31,2014-07-28,2014-07-29T13:45,,,,,,,,,,,,NA,2013-12-21,-10,64,YEARS,18-64,F,BLACK OR AFRICAN AMERICAN,Non-white,NOT HISPANIC OR LATINO,Y,Placebo,Pbo,Placebo,Pbo,Placebo,Placebo,Placebo,Placebo,2013-12-31,2013-12-31T00:00:00Z,H,2014-07-28,2014-07-28T23:59:59Z,H,Screening,1,COMPLETED,2014-07-29,,2013-12-31,2014-07-29,210,,,,,5,ALZHEIMER'S DISEASE,1,,,,,,PRIMARY DIAGNOSIS,2011-11-18,2011-11-18,2012-10-27,2012-10-27,-774,-430,Y,Y,Y,Y,Y,Y,,,1,SCREENING 1,-7,2013-12-21,-10,,BEFORE,,SCREENING,BEFORE,,2013-12-21,-10,,,,,,,,,,,,,,,,Past,Y,Y,Y
103,CDISCPILOT01,01-706-1049,1049,706,USA,MH,2013-05-14,2013-06-25,2013-05-14,2013-06-18,2013-11-26,,2013-11-26,,,,,,,,,,NA,2013-04-30,-14,60,YEARS,18-64,F,WHITE,White,NOT HISPANIC OR LATINO,Y,Xanomeline High Dose,Xan_Hi,Xanomeline High Dose,Xan_Hi,Xanomeline High Dose,Xanomeline High Dose,Xanomeline High Dose,Xanomeline High Dose,2013-05-14,2013-05-14T00:00:00Z,H,2013-06-18,2013-06-18T23:59:59Z,H,Screening,1,DISCONTINUED,2013-06-25,,2013-05-14,2013-06-25,36,,,,,3,ALZHEIMER'S DISEASE,1,,,,,,PRIMARY DIAGNOSIS,2010-05-02,2010-05-02,2010-10-09,2010-10-09,-1108,-948,Y,Y,Y,Y,Y,Y,,,1,SCREENING 1,-7,2013-04-30,-14,,BEFORE,,SCREENING,BEFORE,,2013-04-30,-14,,,,,,,,,,,,,,,,Past,Y,Y,Y
104,CDISCPILOT01,01-706-1384,1384,706,USA,MH,2012-09-15,2012-09-29,2012-09-15,2012-09-24,2013-06-22,,2013-06-22,,,,,,,,,,NA,2012-08-25,-21,74,YEARS,>64,F,WHITE,White,NOT HISPANIC OR LATINO,Y,Xanomeline Low Dose,Xan_Lo,Xanomeline Low Dose,Xan_Lo,Xanomeline Low Dose,Xanomeline Low Dose,Xanomeline Low Dose,Xanomeline Low Dose,2012-09-15,2012-09-15T00:00:00Z,H,2012-09-24,2012-09-24T23:59:59Z,H,Screening,1,DISCONTINUED,2012-09-29,,2012-09-15,2012-09-29,10,,,,,8,ALZHEIMER'S DISEASE,1,,,,,,PRIMARY DIAGNOSIS,2008-05-04,2008-05-04,2009-05-31,2009-05-31,-1595,-1203,Y,Y,Y,Y,Y,Y,,,1,SCREENING 1,-7,2012-08-25,-21,,BEFORE,,SCREENING,BEFORE,,2012-08-25,-21,,,,,,,,,,,,,,,,Past,Y,Y,Y
105,CDISCPILOT01,01-707-1037,1037,707,USA,MH,2013-12-20,2014-01-08,2013-12-20,2013-12-24,2014-01-08T12:40,,,,,,,,,,,,NA,2013-12-12,-8,72,YEARS,>64,F,WHITE,White,NOT HISPANIC OR LATINO,Y,Xanomeline Low Dose,Xan_Lo,Xanomeline Low Dose,Xan_Lo,Xanomeline Low Dose,Xanomeline Low Dose,Xanomeline Low Dose,Xanomeline Low Dose,2013-12-20,2013-12-20T00:00:00Z,H,2013-12-24,2013-12-24T23:59:59Z,H,Screening,1,DISCONTINUED,2014-01-08,,2013-12-20,2014-01-08,5,,,,,10,ALZHEIMER'S DISEASE,1,,,,,,PRIMARY DIAGNOSIS,2009-01-02,2009-01-02,2010-01-31,2010-01-31,-1813,-1419,Y,Y,Y,Y,Y,Y,,,1,SCREENING 1,-7,2013-12-12,-8,,BEFORE,,SCREENING,BEFORE,,2013-12-12,-8,,,,,,,,,,,,,,,,Past,Y,Y,Y
106,CDISCPILOT01,01-707-1206,1206,707,USA,MH,2013-10-28,2014-04-27,2013-10-28,2014-04-26,2014-04-27T08:00,,,,,,,,,,,,NA,2013-10-20,-8,65,YEARS,>64,M,WHITE,White,NOT HISPANIC OR LATINO,Y,Placebo,Pbo,Placebo,Pbo,Placebo,Placebo,Placebo,Placebo,2013-10-28,2013-10-28T00:00:00Z,H,2014-04-26,2014-04-26T23:59:59Z,H,Screening,1,COMPLETED,2014-04-27,,2013-10-28,2014-04-27,181,,,,,3,ALZHEIMER'S DISEASE,1,,,,,,PRIMARY DIAGNOSIS,2012-08-23,2012-08-23,2012-11-25,2012-11-25,-431,-337,Y,Y,Y,Y,Y,Y,,,1,SCREENING 1,-7,2013-10-20,-8,,BEFORE,,SCREENING,BEFORE,,2013-10-20,-8,,,,,,,,,,,,,,,,Past,Y,Y,Y
107,CDISCPILOT01,01-708-1019,1019,708,USA,MH,2013-12-20,2014-01-23,2013-12-20,2014-01-01,2014-01-23T10:10,,,,,,,,,,,,NA,2013-12-10,-10,68,YEARS,>64,M,WHITE,White,NOT HISPANIC OR LATINO,Y,Xanomeline Low Dose,Xan_Lo,Xanomeline Low Dose,Xan_Lo,Xanomeline Low Dose,Xanomeline Low Dose,Xanomeline Low Dose,Xanomeline Low Dose,2013-12-20,2013-12-20T00:00:00Z,H,2014-01-01,2014-01-01T23:59:59Z,H,Screening,1,DISCONTINUED,2014-01-23,,2013-12-20,2014-01-23,13,,,,,2,ALZHEIMER'S DISEASE,1,,,,,,PRIMARY DIAGNOSIS,2006-12-19,2006-12-19,2007-08-13,2007-08-13,-2558,-2321,Y,Y,Y,Y,Y,Y,,,1,SCREENING 1,-7,2013-12-10,-10,,BEFORE,,SCREENING,BEFORE,,2013-12-10,-10,,,,,,,,,,,,,,,,Past,Y,Y,Y
108,CDISCPILOT01,01-708-1032,1032,708,USA,MH,2013-02-09,2013-03-09,2013-02-09,2013-03-01,2013-03-09T10:45,,,,,,,,,,,,NA,2013-02-02,-7,62,YEARS,18-64,M,WHITE,White,NOT HISPANIC OR LATINO,Y,Xanomeline Low Dose,Xan_Lo,Xanomeline Low Dose,Xan_Lo,Xanomeline Low Dose,Xanomeline Low Dose,Xanomeline Low Dose,Xanomeline Low Dose,2013-02-09,2013-02-09T00:00:00Z,H,2013-03-01,2013-03-01T23:59:59Z,H,Screening,1,DISCONTINUED,2013-03-09,,2013-02-09,2013-03-09,21,,,,,5,ALZHEIMER'S DISEASE,1,,,,,,PRIMARY DIAGNOSIS,2002-07-16,2002-07-16,2003-08-12,2003-08-12,-3861,-3469,Y,Y,Y,Y,Y,Y,,,1,SCREENING 1,-7,2013-02-02,-7,,BEFORE,,SCREENING,BEFORE,,2013-02-02,-7,,,,,,,,,,,,,,,,Past,Y,Y,Y
109,CDISCPILOT01,01-708-1084,1084,708,USA,MH,2013-05-09,2013-11-11,2013-05-09,2013-11-11,2013-11-11T10:00,,,,,,,,,,,,NA,2013-05-01,-8,73,YEARS,>64,F,WHITE,White,NOT HISPANIC OR LATINO,Y,Xanomeline Low Dose,Xan_Lo,Xanomeline Low Dose,Xan_Lo,Xanomeline Low Dose,Xanomeline Low Dose,Xanomeline Low Dose,Xanomeline Low Dose,2013-05-09,2013-05-09T00:00:00Z,H,2013-11-11,2013-11-11T23:59:59Z,H,Screening,1,COMPLETED,2013-11-11,,2013-05-09,2013-11-11,187,,,,,5,ALZHEIMER'S DISEASE,1,,,,,,PRIMARY DIAGNOSIS,2010-04-26,2010-04-26,2011-02-28,2011-02-28,-1109,-801,Y,Y,Y,Y,Y,Y,,,1,SCREENING 1,-7,2013-05-01,-8,,BEFORE,,SCREENING,BEFORE,,2013-05-01,-8,,,,,,,,,,,,,,,,Past,Y,Y,Y
110,CDISCPILOT01,01-708-1087,1087,708,USA,MH,2012-10-22,2013-04-28,2012-10-22,2013-04-28,2013-04-28T12:40,,,,,,,,,,,,NA,2012-10-06,-16,74,YEARS,>64,F,WHITE,White,NOT HISPANIC OR LATINO,Y,Placebo,Pbo,Placebo,Pbo,Placebo,Placebo,Placebo,Placebo,2012-10-22,2012-10-22T00:00:00Z,H,2013-04-28,2013-04-28T23:59:59Z,H,Screening,1,COMPLETED,2013-04-28,,2012-10-22,2013-04-28,189,,,,,7,ALZHEIMER'S DISEASE,1,,,,,,PRIMARY DIAGNOSIS,2008-09-02,2008-09-02,2009-10-04,2009-10-04,-1511,-1114,Y,Y,Y,Y,Y,Y,,,1,SCREENING 1,-7,2012-10-06,-16,,BEFORE,,SCREENING,BEFORE,,2012-10-06,-16,,,,,,,,,,,,,,,,Past,Y,Y,Y
111,CDISCPILOT01,01-708-1158,1158,708,USA,MH,2014-02-08,2014-03-22,2014-02-08,2014-03-21,2014-03-22T11:15,,,,,,,,,,,,NA,2014-02-01,-7,81,YEARS,>64,F,WHITE,White,NOT HISPANIC OR LATINO,Y,Placebo,Pbo,Placebo,Pbo,Placebo,Placebo,Placebo,Placebo,2014-02-08,2014-02-08T00:00:00Z,H,2014-03-21,2014-03-21T23:59:59Z,H,Screening,1,DISCONTINUED,2014-03-22,,2014-02-08,2014-03-22,42,,,,,8,ALZHEIMER'S DISEASE,1,,,,,,PRIMARY DIAGNOSIS,2010-08-01,2010-08-01,2011-06-08,2011-06-08,-1287,-976,Y,Y,Y,Y,Y,Y,,,1,SCREENING 1,-7,2014-02-01,-7,,BEFORE,,SCREENING,BEFORE,,2014-02-01,-7,,,,,,,,,,,,,,,,Past,Y,Y,Y
112,CDISCPILOT01,01-708-1171,1171,708,USA,MH,2012-12-06,2013-06-04,2012-12-06,2013-06-04,2013-06-04,,,,,,,,,,,,NA,2012-11-25,-11,77,YEARS,>64,F,WHITE,White,NOT HISPANIC OR LATINO,Y,Placebo,Pbo,Placebo,Pbo,Placebo,Placebo,Placebo,Placebo,2012-12-06,2012-12-06T00:00:00Z,H,2013-06-04,2013-06-04T23:59:59Z,H,Screening,1,COMPLETED,2013-06-04,,2012-12-06,2013-06-04,181,,,,,5,ALZHEIMER'S DISEASE,1,,,,,,PRIMARY DIAGNOSIS,2010-09-24,2010-09-24,2011-10-23,2011-10-23,-804,-410,Y,Y,Y,Y,Y,Y,,,1,SCREENING 1,-7,2012-11-25,-11,,BEFORE,,SCREENING,BEFORE,,2012-11-25,-11,,,,,,,,,,,,,,,,Past,Y,Y,Y
113,CDISCPILOT01,01-708-1178,1178,708,USA,MH,2013-12-29,2014-04-06,2013-12-29,2014-04-06,2014-04-06T08:50,,,,,,,,,,,,NA,2013-12-13,-16,77,YEARS,>64,F,BLACK OR AFRICAN AMERICAN,Non-white,NOT HISPANIC OR LATINO,Y,Xanomeline High Dose,Xan_Hi,Xanomeline High Dose,Xan_Hi,Xanomeline High Dose,Xanomeline High Dose,Xanomeline High Dose,Xanomeline High Dose,2013-12-29,2013-12-29T00:00:00Z,H,2014-04-06,2014-04-06T23:59:59Z,H,Screening,1,DISCONTINUED,2014-04-06,,2013-12-29,2014-04-06,99,,,,,3,ALZHEIMER'S DISEASE,1,,,,,,PRIMARY DIAGNOSIS,2008-08-10,2008-08-10,2008-12-02,2008-12-02,-1967,-1853,Y,Y,Y,Y,Y,Y,,,1,SCREENING 1,-7,2013-12-13,-16,,BEFORE,,SCREENING,BEFORE,,2013-12-13,-16,,,,,,,,,,,,,,,,Past,Y,Y,Y
114,CDISCPILOT01,01-708-1213,1213,708,USA,MH,2013-02-09,2013-02-26,2013-02-09,2013-02-22,2013-02-26,,,,,,,,,,,,NA,2013-02-01,-8,76,YEARS,>64,F,WHITE,White,NOT HISPANIC OR LATINO,Y,Xanomeline High Dose,Xan_Hi,Xanomeline Low Dose,Xan_Lo,Xanomeline High Dose,Xanomeline Low Dose,Xanomeline High Dose,Xanomeline Low Dose,2013-02-09,2013-02-09T00:00:00Z,H,2013-02-22,2013-02-22T23:59:59Z,H,Screening,1,DISCONTINUED,2013-02-26,,2013-02-09,2013-02-22,14,,,,,3,ALZHEIMER'S DISEASE,1,,,,,,PRIMARY DIAGNOSIS,2011-02-06,2011-02-06,2011-09-25,2011-09-25,-734,-503,Y,Y,Y,Y,Y,Y,,,1,SCREENING 1,-7,2013-02-01,-8,,BEFORE,,SCREENING,BEFORE,,2013-02-01,-8,,,,,,,,,,,,,,,,Past,Y,Y,Y
115,CDISCPILOT01,01-708-1216,1216,708,USA,MH,2012-10-24,2012-12-06,2012-10-24,2012-11-29,2013-01-09,,,,,,,,,,,,NA,2012-10-14,-10,78,YEARS,>64,M,WHITE,White,NOT HISPANIC OR LATINO,Y,Xanomeline High Dose,Xan_Hi,Xanomeline High Dose,Xan_Hi,Xanomeline High Dose,Xanomeline High Dose,Xanomeline High Dose,Xanomeline High Dose,2012-10-24,2012-10-24T00:00:00Z,H,2012-11-29,2012-11-29T23:59:59Z,H,Screening,1,DISCONTINUED,2012-12-06,,2012-10-24,2012-12-13,37,,,,,4,ALZHEIMER'S DISEASE,1,,,,,,PRIMARY DIAGNOSIS,2001-07-15,2001-07-15,2001-09-01,2001-09-01,-4119,-4071,Y,Y,Y,Y,Y,Y,,,1,SCREENING 1,-7,2012-10-14,-10,,BEFORE,,SCREENING,BEFORE,,2012-10-14,-10,,,,,,,,,,,,,,,,Past,Y,Y,Y
116,CDISCPILOT01,01-708-1236,1236,708,USA,MH,2013-09-21,2013-09-26,2013-09-21,2013-09-21,2013-09-26,,,,,,,,,,,,NA,2013-09-08,-13,86,YEARS,>64,F,WHITE,White,NOT HISPANIC OR LATINO,Y,Xanomeline High Dose,Xan_Hi,Xanomeline Low Dose,Xan_Lo,Xanomeline High Dose,Xanomeline Low Dose,Xanomeline High Dose,Xanomeline Low Dose,2013-09-21,2013-09-21T00:00:00Z,H,2013-09-21,2013-09-21T23:59:59Z,H,Screening,1,DISCONTINUED,2013-09-26,,2013-09-21,2013-09-21,1,,,,,7,ALZHEIMER'S DISEASE,1,,,,,,PRIMARY DIAGNOSIS,2012-09-08,2012-09-08,2013-01-11,2013-01-11,-378,-253,Y,Y,Y,Y,Y,Y,,,1,SCREENING 1,-7,2013-09-08,-13,,BEFORE,,SCREENING,BEFORE,,2013-09-08,-13,,,,,,,,,,,,,,,,Past,Y,Y,Y
117,CDISCPILOT01,01-708-1253,1253,708,USA,MH,2013-05-07,2013-11-05,2013-05-07,2013-11-05,2013-11-05,,,,,,,,,,,,NA,2013-04-26,-11,61,YEARS,18-64,M,WHITE,White,NOT HISPANIC OR LATINO,Y,Placebo,Pbo,Placebo,Pbo,Placebo,Placebo,Placebo,Placebo,2013-05-07,2013-05-07T00:00:00Z,H,2013-11-05,2013-11-05T23:59:59Z,H,Screening,1,COMPLETED,2013-11-05,,2013-05-07,2013-11-05,183,,,,,2,ALZHEIMER'S DISEASE,1,,,,,,PRIMARY DIAGNOSIS,2009-03-12,2009-03-12,2010-01-17,2010-01-17,-1517,-1206,Y,Y,Y,Y,Y,Y,,,1,SCREENING 1,-7,2013-04-26,-11,,BEFORE,,SCREENING,BEFORE,,2013-04-26,-11,,,,,,,,,,,,,,,,Past,Y,Y,Y
118,CDISCPILOT01,01-708-1272,1272,708,USA,MH,2013-02-06,2013-04-04,2013-02-06,2013-03-22,2013-04-04T11:05,,,,,,,,,,,,NA,2013-01-22,-15,82,YEARS,>64,M,WHITE,White,NOT HISPANIC OR LATINO,Y,Xanomeline Low Dose,Xan_Lo,Xanomeline Low Dose,Xan_Lo,Xanomeline Low Dose,Xanomeline Low Dose,Xanomeline Low Dose,Xanomeline Low Dose,2013-02-06,2013-02-06T00:00:00Z,H,2013-03-22,2013-03-22T23:59:59Z,H,Screening,1,DISCONTINUED,2013-04-04,,2013-02-06,2013-04-04,45,,,,,7,ALZHEIMER'S DISEASE,1,,,,,,PRIMARY DIAGNOSIS,2006-08-07,2006-08-07,2007-05-11,2007-05-11,-2375,-2098,Y,Y,Y,Y,Y,Y,,,1,SCREENING 1,-7,2013-01-22,-15,,BEFORE,,SCREENING,BEFORE,,2013-01-22,-15,,,,,,,,,,,,,,,,Past,Y,Y,Y
119,CDISCPILOT01,01-708-1286,1286,708,USA,MH,2013-09-10,2014-03-08,2013-09-10,2014-03-08,2014-03-08T09:50,,,,,,,,,,,,NA,2013-08-25,-16,80,YEARS,>64,F,BLACK OR AFRICAN AMERICAN,Non-white,NOT HISPANIC OR LATINO,Y,Placebo,Pbo,Placebo,Pbo,Placebo,Placebo,Placebo,Placebo,2013-09-10,2013-09-10T00:00:00Z,H,2014-03-08,2014-03-08T23:59:59Z,H,Screening,1,COMPLETED,2014-03-08,,2013-09-10,2014-03-08,180,,,,,6,ALZHEIMER'S DISEASE,1,,,,,,PRIMARY DIAGNOSIS,2001-10-03,2001-10-03,2002-04-30,2002-04-30,-4360,-4151,Y,Y,Y,Y,Y,Y,,,1,SCREENING 1,-7,2013-08-25,-16,,BEFORE,,SCREENING,BEFORE,,2013-08-25,-16,,,,,,,,,,,,,,,,Past,Y,Y,Y
120,CDISCPILOT01,01-708-1296,1296,708,USA,MH,2013-06-14,2013-12-12,2013-06-14,2013-12-12,2013-12-12T09:30,,,,,,,,,,,,NA,2013-06-07,-7,57,YEARS,18-64,M,BLACK OR AFRICAN AMERICAN,Non-white,NOT HISPANIC OR LATINO,Y,Placebo,Pbo,Placebo,Pbo,Placebo,Placebo,Placebo,Placebo,2013-06-14,2013-06-14T00:00:00Z,H,2013-12-12,2013-12-12T23:59:59Z,H,Screening,1,COMPLETED,2013-12-12,,2013-06-14,2013-12-12,182,,,,,3,ALZHEIMER'S DISEASE,1,,,,,,PRIMARY DIAGNOSIS,2010-02-03,2010-02-03,2010-04-09,2010-04-09,-1227,-1162,Y,Y,Y,Y,Y,Y,,,1,SCREENING 1,-7,2013-06-07,-7,,BEFORE,,SCREENING,BEFORE,,2013-06-07,-7,,,,,,,,,,,,,,,,Past,Y,Y,Y
121,CDISCPILOT01,01-708-1297,1297,708,USA,MH,2013-01-25,2013-05-08,2013-01-25,2013-05-03,2013-06-07,,,,,,,,,,,,NA,2013-01-15,-10,61,YEARS,18-64,M,WHITE,White,NOT HISPANIC OR LATINO,Y,Xanomeline Low Dose,Xan_Lo,Xanomeline Low Dose,Xan_Lo,Xanomeline Low Dose,Xanomeline Low Dose,Xanomeline Low Dose,Xanomeline Low Dose,2013-01-25,2013-01-25T00:00:00Z,H,2013-05-03,2013-05-03T23:59:59Z,H,Screening,1,DISCONTINUED,2013-05-08,,2013-01-25,2013-05-08,99,,,,,3,ALZHEIMER'S DISEASE,1,,,,,,PRIMARY DIAGNOSIS,2008-02-27,2008-02-27,2008-08-15,2008-08-15,-1794,-1624,Y,Y,Y,Y,Y,Y,,,1,SCREENING 1,-7,2013-01-15,-10,,BEFORE,,SCREENING,BEFORE,,2013-01-15,-10,,,,,,,,,,,,,,,,Past,Y,Y,Y
122,CDISCPILOT01,01-708-1316,1316,708,USA,MH,2013-08-23,2014-03-01,2013-08-23,2014-03-01,2014-03-01T10:25,,,,,,,,,,,,NA,2013-08-15,-8,74,YEARS,>64,F,WHITE,White,NOT HISPANIC OR LATINO,Y,Placebo,Pbo,Placebo,Pbo,Placebo,Placebo,Placebo,Placebo,2013-08-23,2013-08-23T00:00:00Z,H,2014-03-01,2014-03-01T23:59:59Z,H,Screening,1,COMPLETED,2014-03-01,,2013-08-23,2014-03-01,191,,,,,4,ALZHEIMER'S DISEASE,1,,,,,,PRIMARY DIAGNOSIS,2011-08-08,2011-08-08,2012-06-27,2012-06-27,-746,-422,Y,Y,Y,Y,Y,Y,,,1,SCREENING 1,-7,2013-08-15,-8,,BEFORE,,SCREENING,BEFORE,,2013-08-15,-8,,,,,,,,,,,,,,,,Past,Y,Y,Y
123,CDISCPILOT01,01-708-1336,1336,708,USA,MH,2012-12-07,2013-06-05,2012-12-07,2013-06-05,2013-07-05,,,,,,,,,,,,NA,2012-11-21,-16,73,YEARS,>64,M,WHITE,White,NOT HISPANIC OR LATINO,Y,Xanomeline High Dose,Xan_Hi,Xanomeline High Dose,Xan_Hi,Xanomeline High Dose,Xanomeline High Dose,Xanomeline High Dose,Xanomeline High Dose,2012-12-07,2012-12-07T00:00:00Z,H,2013-06-05,2013-06-05T23:59:59Z,H,Screening,1,COMPLETED,2013-06-05,,2012-12-07,2013-06-05,181,,,,,9,ALZHEIMER'S DISEASE,1,,,,,,PRIMARY DIAGNOSIS,2002-12-01,2002-12-01,2003-01-09,2003-01-09,-3659,-3620,Y,Y,Y,Y,Y,Y,,,1,SCREENING 1,-7,2012-11-21,-16,,BEFORE,,SCREENING,BEFORE,,2012-11-21,-16,,,,,,,,,,,,,,,,Past,Y,Y,Y
124,CDISCPILOT01,01-708-1342,1342,708,USA,MH,2012-12-29,2013-06-28,2012-12-29,2013-06-28,2013-06-28T09:40,,,,,,,,,,,,NA,2012-12-21,-8,59,YEARS,18-64,F,WHITE,White,NOT HISPANIC OR LATINO,Y,Placebo,Pbo,Placebo,Pbo,Placebo,Placebo,Placebo,Placebo,2012-12-29,2012-12-29T00:00:00Z,H,2013-06-28,2013-06-28T23:59:59Z,H,Screening,1,COMPLETED,2013-06-28,,2012-12-29,2013-06-28,182,,,,,4,ALZHEIMER'S DISEASE,1,,,,,,PRIMARY DIAGNOSIS,2010-09-24,2010-09-24,2011-02-02,2011-02-02,-827,-696,Y,Y,Y,Y,Y,Y,,,1,SCREENING 1,-7,2012-12-21,-8,,BEFORE,,SCREENING,BEFORE,,2012-12-21,-8,,,,,,,,,,,,,,,,Past,Y,Y,Y
125,CDISCPILOT01,01-708-1347,1347,708,USA,MH,2013-04-20,2013-06-18,2013-04-20,2013-06-18,2013-08-02,,,,,,,,,,,,NA,2013-04-11,-9,61,YEARS,18-64,F,WHITE,White,NOT HISPANIC OR LATINO,Y,Xanomeline High Dose,Xan_Hi,Xanomeline High Dose,Xan_Hi,Xanomeline High Dose,Xanomeline High Dose,Xanomeline High Dose,Xanomeline High Dose,2013-04-20,2013-04-20T00:00:00Z,H,2013-06-18,2013-06-18T23:59:59Z,H,Screening,1,DISCONTINUED,2013-06-18,,2013-04-20,2013-06-25,60,,,,,3,ALZHEIMER'S DISEASE,1,,,,,,PRIMARY DIAGNOSIS,2009-05-23,2009-05-23,2009-06-06,2009-06-06,-1428,-1414,Y,Y,Y,Y,Y,Y,,,1,SCREENING 1,-7,2013-04-11,-9,,BEFORE,,SCREENING,BEFORE,,2013-04-11,-9,,,,,,,,,,,,,,,,Past,Y,Y,Y
126,CDISCPILOT01,01-708-1348,1348,708,USA,MH,2013-08-05,2014-02-13,2013-08-05,2014-02-13,2014-02-13T10:25,,,,,,,,,,,,NA,2013-07-28,-8,79,YEARS,>64,F,WHITE,White,NOT HISPANIC OR LATINO,Y,Xanomeline Low Dose,Xan_Lo,Xanomeline Low Dose,Xan_Lo,Xanomeline Low Dose,Xanomeline Low Dose,Xanomeline Low Dose,Xanomeline Low Dose,2013-08-05,2013-08-05T00:00:00Z,H,2014-02-13,2014-02-13T23:59:59Z,H,Screening,1,COMPLETED,2014-02-13,,2013-08-05,2014-02-13,193,,,,,6,ALZHEIMER'S DISEASE,1,,,,,,PRIMARY DIAGNOSIS,2010-07-29,2010-07-29,2010-10-01,2010-10-01,-1103,-1039,Y,Y,Y,Y,Y,Y,,,1,SCREENING 1,-7,2013-07-28,-8,,BEFORE,,SCREENING,BEFORE,,2013-07-28,-8,,,,,,,,,,,,,,,,Past,Y,Y,Y
127,CDISCPILOT01,01-708-1353,1353,708,USA,MH,2013-07-04,2013-09-10,2013-07-04,2013-08-28,2013-09-10T13:15,,,,,,,,,,,,NA,2013-06-17,-17,87,YEARS,>64,F,BLACK OR AFRICAN AMERICAN,Non-white,NOT HISPANIC OR LATINO,Y,Xanomeline Low Dose,Xan_Lo,Xanomeline Low Dose,Xan_Lo,Xanomeline Low Dose,Xanomeline Low Dose,Xanomeline Low Dose,Xanomeline Low Dose,2013-07-04,2013-07-04T00:00:00Z,H,2013-08-28,2013-08-28T23:59:59Z,H,Screening,1,DISCONTINUED,2013-09-10,,2013-07-04,2013-09-10,56,,,,,6,ALZHEIMER'S DISEASE,1,,,,,,PRIMARY DIAGNOSIS,2010-08-06,2010-08-06,2011-08-23,2011-08-23,-1063,-681,Y,Y,Y,Y,Y,Y,,,1,SCREENING 1,-7,2013-06-17,-17,,BEFORE,,SCREENING,BEFORE,,2013-06-17,-17,,,,,,,,,,,,,,,,Past,Y,Y,Y
128,CDISCPILOT01,01-708-1372,1372,708,USA,MH,2013-04-12,2013-05-10,2013-04-12,2013-04-19,2013-05-10,,,,,,,,,,,,NA,2013-04-03,-9,84,YEARS,>64,M,WHITE,White,NOT HISPANIC OR LATINO,Y,Xanomeline High Dose,Xan_Hi,Xanomeline Low Dose,Xan_Lo,Xanomeline High Dose,Xanomeline Low Dose,Xanomeline High Dose,Xanomeline Low Dose,2013-04-12,2013-04-12T00:00:00Z,H,2013-04-19,2013-04-19T23:59:59Z,H,Screening,1,DISCONTINUED,2013-05-10,,2013-04-12,2013-04-19,8,,,,,3,ALZHEIMER'S DISEASE,1,,,,,,PRIMARY DIAGNOSIS,2007-09-17,2007-09-17,2008-07-01,2008-07-01,-2034,-1746,Y,Y,Y,Y,Y,Y,,,1,SCREENING 1,-7,2013-04-03,-9,,BEFORE,,SCREENING,BEFORE,,2013-04-03,-9,,,,,,,,,,,,,,,,Past,Y,Y,Y
129,CDISCPILOT01,01-708-1378,1378,708,USA,MH,2013-09-03,2014-01-28,2013-09-03,2014-01-28,2014-01-28T13:00,,,,,,,,,,,,NA,2013-08-24,-10,67,YEARS,>64,M,BLACK OR AFRICAN AMERICAN,Non-white,NOT HISPANIC OR LATINO,Y,Placebo,Pbo,Placebo,Pbo,Placebo,Placebo,Placebo,Placebo,2013-09-03,2013-09-03T00:00:00Z,H,2014-01-28,2014-01-28T23:59:59Z,H,Screening,1,DISCONTINUED,2014-01-28,,2013-09-03,2014-01-28,148,,,,,2,ALZHEIMER'S DISEASE,1,,,,,,PRIMARY DIAGNOSIS,2009-03-16,2009-03-16,2010-02-06,2010-02-06,-1632,-1305,Y,Y,Y,Y,Y,Y,,,1,SCREENING 1,-7,2013-08-24,-10,,BEFORE,,SCREENING,BEFORE,,2013-08-24,-10,,,,,,,,,,,,,,,,Past,Y,Y,Y
130,CDISCPILOT01,01-708-1406,1406,708,USA,MH,2013-12-26,2014-07-02,2013-12-26,2014-07-02,2014-07-02T13:45,,,,,,,,,,,,NA,2013-12-06,-20,71,YEARS,>64,F,WHITE,White,NOT HISPANIC OR LATINO,Y,Xanomeline High Dose,Xan_Hi,Xanomeline High Dose,Xan_Hi,Xanomeline High Dose,Xanomeline High Dose,Xanomeline High Dose,Xanomeline High Dose,2013-12-26,2013-12-26T00:00:00Z,H,2014-07-02,2014-07-02T23:59:59Z,H,Screening,1,COMPLETED,2014-07-02,,2013-12-26,2014-07-02,189,,,,,2,ALZHEIMER'S DISEASE,1,,,,,,PRIMARY DIAGNOSIS,2010-06-24,2010-06-24,2010-12-06,2010-12-06,-1281,-1116,Y,Y,Y,Y,Y,Y,,,1,SCREENING 1,-7,2013-12-06,-20,,BEFORE,,SCREENING,BEFORE,,2013-12-06,-20,,,,,,,,,,,,,,,,Past,Y,Y,Y
131,CDISCPILOT01,01-708-1428,1428,708,USA,MH,2013-11-09,2014-01-31,2013-11-09,2013-12-14,2014-01-31T11:10,,,,,,,,,,,,NA,2013-11-02,-7,84,YEARS,>64,F,WHITE,White,NOT HISPANIC OR LATINO,Y,Xanomeline Low Dose,Xan_Lo,Xanomeline Low Dose,Xan_Lo,Xanomeline Low Dose,Xanomeline Low Dose,Xanomeline Low Dose,Xanomeline Low Dose,2013-11-09,2013-11-09T00:00:00Z,H,2013-12-14,2013-12-14T23:59:59Z,H,Screening,1,DISCONTINUED,2014-01-31,,2013-11-09,2014-01-31,36,,,,,1,ALZHEIMER'S DISEASE,1,,,,,,PRIMARY DIAGNOSIS,2010-10-27,2010-10-27,2010-12-11,2010-12-11,-1109,-1064,Y,Y,Y,Y,Y,Y,,,1,SCREENING 1,-7,2013-11-02,-7,,BEFORE,,SCREENING,BEFORE,,2013-11-02,-7,,,,,,,,,,,,,,,,Past,Y,Y,Y
132,CDISCPILOT01,01-709-1001,1001,709,USA,MH,2013-10-08,2014-04-08,2013-10-08,2014-04-08,2014-04-08,,,,,,,,,,,,NA,2013-09-20,-18,76,YEARS,>64,F,WHITE,White,NOT HISPANIC OR LATINO,Y,Placebo,Pbo,Placebo,Pbo,Placebo,Placebo,Placebo,Placebo,2013-10-08,2013-10-08T00:00:00Z,H,2014-04-08,2014-04-08T23:59:59Z,H,Screening,1,COMPLETED,2014-04-08,,2013-10-08,2014-04-08,183,,,,,4,ALZHEIMER'S DISEASE,1,,,,,,PRIMARY DIAGNOSIS,2011-01-30,2011-01-30,2011-06-30,2011-06-30,-982,-831,Y,Y,Y,Y,Y,Y,,,1,SCREENING 1,-7,2013-09-20,-18,,BEFORE,,SCREENING,BEFORE,,2013-09-20,-18,,,,,,,,,,,,,,,,Past,Y,Y,Y
133,CDISCPILOT01,01-709-1007,1007,709,USA,MH,2012-07-31,2012-09-01,2012-07-31,2012-08-28,2012-09-07,,,,,,,,,,,,NA,2012-07-21,-10,54,YEARS,18-64,F,WHITE,White,NOT HISPANIC OR LATINO,Y,Xanomeline Low Dose,Xan_Lo,Xanomeline Low Dose,Xan_Lo,Xanomeline Low Dose,Xanomeline Low Dose,Xanomeline Low Dose,Xanomeline Low Dose,2012-07-31,2012-07-31T00:00:00Z,H,2012-08-28,2012-08-28T23:59:59Z,H,Screening,1,DISCONTINUED,2012-09-01,,2012-07-31,2012-09-01,29,,,,,2,ALZHEIMER'S DISEASE,1,,,,,,PRIMARY DIAGNOSIS,2007-02-28,2007-02-28,2008-02-28,2008-02-28,-1980,-1615,Y,Y,Y,Y,Y,Y,,,1,SCREENING 1,-7,2012-07-21,-10,,BEFORE,,SCREENING,BEFORE,,2012-07-21,-10,,,,,,,,,,,,,,,,Past,Y,Y,Y
134,CDISCPILOT01,01-709-1020,1020,709,USA,MH,2012-12-01,2013-06-01,2012-12-01,2013-06-01,2013-06-01T10:40,,,,,,,,,,,,NA,2012-11-22,-9,72,YEARS,>64,F,WHITE,White,NOT HISPANIC OR LATINO,Y,Xanomeline Low Dose,Xan_Lo,Xanomeline Low Dose,Xan_Lo,Xanomeline Low Dose,Xanomeline Low Dose,Xanomeline Low Dose,Xanomeline Low Dose,2012-12-01,2012-12-01T00:00:00Z,H,2013-06-01,2013-06-01T23:59:59Z,H,Screening,1,COMPLETED,2013-06-01,,2012-12-01,2013-06-01,183,,,,,2,ALZHEIMER'S DISEASE,1,,,,,,PRIMARY DIAGNOSIS,2009-02-26,2009-02-26,2010-01-23,2010-01-23,-1374,-1043,Y,Y,Y,Y,Y,Y,,,1,SCREENING 1,-7,2012-11-22,-9,,BEFORE,,SCREENING,BEFORE,,2012-11-22,-9,,,,,,,,,,,,,,,,Past,Y,Y,Y
135,CDISCPILOT01,01-709-1029,1029,709,USA,MH,2012-12-25,2013-06-26,2012-12-25,2013-06-26,2013-06-26T10:58,,,,,,,,,,,,NA,2012-12-10,-15,82,YEARS,>64,M,WHITE,White,NOT HISPANIC OR LATINO,Y,Xanomeline High Dose,Xan_Hi,Xanomeline High Dose,Xan_Hi,Xanomeline High Dose,Xanomeline High Dose,Xanomeline High Dose,Xanomeline High Dose,2012-12-25,2012-12-25T00:00:00Z,H,2013-06-26,2013-06-26T23:59:59Z,H,Screening,1,COMPLETED,2013-06-26,,2012-12-25,2013-06-26,184,,,,,6,ALZHEIMER'S DISEASE,1,,,,,,PRIMARY DIAGNOSIS,2009-06-02,2009-06-02,2010-05-08,2010-05-08,-1302,-962,Y,Y,Y,Y,Y,Y,,,1,SCREENING 1,-7,2012-12-10,-15,,BEFORE,,SCREENING,BEFORE,,2012-12-10,-15,,,,,,,,,,,,,,,,Past,Y,Y,Y
136,CDISCPILOT01,01-709-1081,1081,709,USA,MH,2014-01-18,2014-05-10,2014-01-18,2014-04-27,2014-05-10T11:15,,,,,,,,,,,,NA,2014-01-09,-9,86,YEARS,>64,F,WHITE,White,NOT HISPANIC OR LATINO,Y,Xanomeline Low Dose,Xan_Lo,Xanomeline Low Dose,Xan_Lo,Xanomeline Low Dose,Xanomeline Low Dose,Xanomeline Low Dose,Xanomeline Low Dose,2014-01-18,2014-01-18T00:00:00Z,H,2014-04-27,2014-04-27T23:59:59Z,H,Screening,1,DISCONTINUED,2014-05-10,,2014-01-18,2014-05-10,100,,,,,8,ALZHEIMER'S DISEASE,1,,,,,,PRIMARY DIAGNOSIS,2011-08-06,2011-08-06,2011-10-08,2011-10-08,-896,-833,Y,Y,Y,Y,Y,Y,,,1,SCREENING 1,-7,2014-01-09,-9,,BEFORE,,SCREENING,BEFORE,,2014-01-09,-9,,,,,,,,,,,,,,,,Past,Y,Y,Y
137,CDISCPILOT01,01-709-1088,1088,709,USA,MH,2014-04-12,2014-10-09,2014-04-12,2014-10-09,2014-10-09T13:25,,,,,,,,,,,,NA,2014-03-30,-13,69,YEARS,>64,M,WHITE,White,NOT HISPANIC OR LATINO,Y,Placebo,Pbo,Placebo,Pbo,Placebo,Placebo,Placebo,Placebo,2014-04-12,2014-04-12T00:00:00Z,H,2014-10-09,2014-10-09T23:59:59Z,H,Screening,1,COMPLETED,2014-10-09,,2014-04-12,2014-10-09,181,,,,,2,ALZHEIMER'S DISEASE,1,,,,,,PRIMARY DIAGNOSIS,2012-02-25,2012-02-25,2013-03-23,2013-03-23,-777,-385,Y,Y,Y,Y,Y,Y,,,1,SCREENING 1,-7,2014-03-30,-13,,BEFORE,,SCREENING,BEFORE,,2014-03-30,-13,,,,,,,,,,,,,,,,Past,,Y,Y
138,CDISCPILOT01,01-709-1099,1099,709,USA,MH,2013-10-25,2014-04-25,2013-10-25,2014-04-25,2014-04-25T09:10,,,,,,,,,,,,NA,2013-10-14,-11,79,YEARS,>64,F,WHITE,White,NOT HISPANIC OR LATINO,Y,Xanomeline High Dose,Xan_Hi,Xanomeline High Dose,Xan_Hi,Xanomeline High Dose,Xanomeline High Dose,Xanomeline High Dose,Xanomeline High Dose,2013-10-25,2013-10-25T00:00:00Z,H,2014-04-25,2014-04-25T23:59:59Z,H,Screening,1,COMPLETED,2014-04-25,,2013-10-25,2014-04-25,183,,,,,3,ALZHEIMER'S DISEASE,1,,,,,,PRIMARY DIAGNOSIS,2009-04-20,2009-04-20,2009-08-18,2009-08-18,-1649,-1529,Y,Y,Y,Y,Y,Y,,,1,SCREENING 1,-7,2013-10-14,-11,,BEFORE,,SCREENING,BEFORE,,2013-10-14,-11,,,,,,,,,,,,,,,,Past,Y,Y,Y
139,CDISCPILOT01,01-709-1102,1102,709,USA,MH,2013-01-15,2013-03-31,2013-01-15,2013-03-27,2013-05-12,,,,,,,,,,,,NA,2013-01-07,-8,71,YEARS,>64,F,WHITE,White,NOT HISPANIC OR LATINO,Y,Xanomeline Low Dose,Xan_Lo,Xanomeline Low Dose,Xan_Lo,Xanomeline Low Dose,Xanomeline Low Dose,Xanomeline Low Dose,Xanomeline Low Dose,2013-01-15,2013-01-15T00:00:00Z,H,2013-03-27,2013-03-27T23:59:59Z,H,Screening,1,DISCONTINUED,2013-03-31,,2013-01-15,2013-03-31,72,,,,,2,ALZHEIMER'S DISEASE,1,,,,,,PRIMARY DIAGNOSIS,2009-07-13,2009-07-13,2010-02-12,2010-02-12,-1282,-1068,Y,Y,Y,Y,Y,Y,,,1,SCREENING 1,-7,2013-01-07,-8,,BEFORE,,SCREENING,BEFORE,,2013-01-07,-8,,,,,,,,,,,,,,,,Past,Y,Y,Y
140,CDISCPILOT01,01-709-1168,1168,709,USA,MH,2013-08-02,2013-09-27,2013-08-02,2013-09-26,2013-11-01,,,,,,,,,,,,NA,2013-07-25,-8,72,YEARS,>64,F,WHITE,White,NOT HISPANIC OR LATINO,Y,Xanomeline High Dose,Xan_Hi,Xanomeline High Dose,Xan_Hi,Xanomeline High Dose,Xanomeline High Dose,Xanomeline High Dose,Xanomeline High Dose,2013-08-02,2013-08-02T00:00:00Z,H,2013-09-26,2013-09-26T23:59:59Z,H,Screening,1,DISCONTINUED,2013-09-27,,2013-08-02,2013-10-11,56,,,,,2,ALZHEIMER'S DISEASE,1,,,,,,PRIMARY DIAGNOSIS,2009-10-29,2009-10-29,2010-06-26,2010-06-26,-1373,-1133,Y,Y,Y,Y,Y,Y,,,1,SCREENING 1,-7,2013-07-25,-8,,BEFORE,,SCREENING,BEFORE,,2013-07-25,-8,,,,,,,,,,,,,,,,Past,Y,Y,Y
141,CDISCPILOT01,01-709-1217,1217,709,USA,MH,2013-03-04,2013-06-25,2013-03-04,2013-06-11,2013-06-25T10:35,,,,,,,,,,,,NA,2013-02-16,-16,77,YEARS,>64,M,WHITE,White,NOT HISPANIC OR LATINO,Y,Xanomeline Low Dose,Xan_Lo,Xanomeline Low Dose,Xan_Lo,Xanomeline Low Dose,Xanomeline Low Dose,Xanomeline Low Dose,Xanomeline Low Dose,2013-03-04,2013-03-04T00:00:00Z,H,2013-06-11,2013-06-11T23:59:59Z,H,Screening,1,DISCONTINUED,2013-06-25,,2013-03-04,2013-06-25,100,,,,,7,ALZHEIMER'S DISEASE,1,,,,,,PRIMARY DIAGNOSIS,2008-10-11,2008-10-11,2008-12-11,2008-12-11,-1605,-1544,Y,Y,Y,Y,Y,Y,,,1,SCREENING 1,-7,2013-02-16,-16,,BEFORE,,SCREENING,BEFORE,,2013-02-16,-16,,,,,,,,,,,,,,,,Past,Y,Y,Y
142,CDISCPILOT01,01-709-1238,1238,709,USA,MH,2013-05-15,2013-08-07,2013-05-15,2013-08-06,2013-08-13,,,,,,,,,,,,NA,2013-05-02,-13,69,YEARS,>64,M,WHITE,White,NOT HISPANIC OR LATINO,Y,Xanomeline High Dose,Xan_Hi,Xanomeline High Dose,Xan_Hi,Xanomeline High Dose,Xanomeline High Dose,Xanomeline High Dose,Xanomeline High Dose,2013-05-15,2013-05-15T00:00:00Z,H,2013-08-06,2013-08-06T23:59:59Z,H,Screening,1,DISCONTINUED,2013-08-07,,2013-05-15,2013-08-07,84,,,,,5,ALZHEIMER'S DISEASE,1,,,,,,PRIMARY DIAGNOSIS,2011-10-13,2011-10-13,2012-04-27,2012-04-27,-580,-383,Y,Y,Y,Y,Y,Y,,,1,SCREENING 1,-7,2013-05-02,-13,,BEFORE,,SCREENING,BEFORE,,2013-05-02,-13,,,,,,,,,,,,,,,,Past,Y,Y,Y
143,CDISCPILOT01,01-709-1259,1259,709,USA,MH,2013-01-26,2013-06-13,2013-01-26,2013-06-13,2013-06-13T12:23,,,,,,,,,,,,NA,2013-01-13,-13,82,YEARS,>64,M,WHITE,White,NOT HISPANIC OR LATINO,Y,Placebo,Pbo,Placebo,Pbo,Placebo,Placebo,Placebo,Placebo,2013-01-26,2013-01-26T00:00:00Z,H,2013-06-13,2013-06-13T23:59:59Z,H,Screening,1,DISCONTINUED,2013-06-13,,2013-01-26,2013-06-13,139,,,,,8,ALZHEIMER'S DISEASE,1,,,,,,PRIMARY DIAGNOSIS,2008-08-06,2008-08-06,2008-11-19,2008-11-19,-1634,-1529,Y,Y,Y,Y,Y,Y,,,1,SCREENING 1,-7,2013-01-13,-13,,BEFORE,,SCREENING,BEFORE,,2013-01-13,-13,,,,,,,,,,,,,,,,Past,Y,Y,Y
144,CDISCPILOT01,01-709-1285,1285,709,USA,MH,2013-03-24,2013-05-31,2013-03-24,2013-05-23,2013-05-31T13:15,,,,,,,,,,,,NA,2013-03-17,-7,87,YEARS,>64,M,WHITE,White,NOT HISPANIC OR LATINO,Y,Xanomeline Low Dose,Xan_Lo,Xanomeline Low Dose,Xan_Lo,Xanomeline Low Dose,Xanomeline Low Dose,Xanomeline Low Dose,Xanomeline Low Dose,2013-03-24,2013-03-24T00:00:00Z,H,2013-05-23,2013-05-23T23:59:59Z,H,Screening,1,DISCONTINUED,2013-05-31,,2013-03-24,2013-05-31,61,,,,,4,ALZHEIMER'S DISEASE,1,,,,,,PRIMARY DIAGNOSIS,2009-09-18,2009-09-18,2010-08-25,2010-08-25,-1283,-942,Y,Y,Y,Y,Y,Y,,,1,SCREENING 1,-7,2013-03-17,-7,,BEFORE,,SCREENING,BEFORE,,2013-03-17,-7,,,,,,,,,,,,,,,,Past,Y,Y,Y
145,CDISCPILOT01,01-709-1301,1301,709,USA,MH,2013-07-19,2014-01-17,2013-07-19,2014-01-17,2014-01-17T10:07,,,,,,,,,,,,NA,2013-07-14,-5,62,YEARS,18-64,F,WHITE,White,NOT HISPANIC OR LATINO,Y,Placebo,Pbo,Placebo,Pbo,Placebo,Placebo,Placebo,Placebo,2013-07-19,2013-07-19T00:00:00Z,H,2014-01-17,2014-01-17T23:59:59Z,H,Screening,1,COMPLETED,2014-01-17,,2013-07-19,2014-01-17,183,,,,,2,ALZHEIMER'S DISEASE,1,,,,,,PRIMARY DIAGNOSIS,2009-02-04,2009-02-04,2009-03-15,2009-03-15,-1626,-1587,Y,Y,Y,Y,Y,Y,,,1,SCREENING 1,-7,2013-07-14,-5,,BEFORE,,SCREENING,BEFORE,,2013-07-14,-5,,,,,,,,,,,,,,,,Past,Y,Y,Y
146,CDISCPILOT01,01-709-1306,1306,709,USA,MH,2014-02-03,2014-06-25,2014-02-03,2014-06-16,2014-06-25T10:45,,,,,,,,,,,,NA,2014-01-19,-15,60,YEARS,18-64,F,WHITE,White,NOT HISPANIC OR LATINO,Y,Placebo,Pbo,Placebo,Pbo,Placebo,Placebo,Placebo,Placebo,2014-02-03,2014-02-03T00:00:00Z,H,2014-06-16,2014-06-16T23:59:59Z,H,Screening,1,DISCONTINUED,2014-06-25,,2014-02-03,2014-06-25,134,,,,,1,ALZHEIMER'S DISEASE,1,,,,,,PRIMARY DIAGNOSIS,2009-02-02,2009-02-02,2009-06-05,2009-06-05,-1827,-1704,Y,Y,Y,Y,Y,Y,,,1,SCREENING 1,-7,2014-01-19,-15,,BEFORE,,SCREENING,BEFORE,,2014-01-19,-15,,,,,,,,,,,,,,,,Past,Y,Y,Y
147,CDISCPILOT01,01-709-1309,1309,709,USA,MH,2013-06-19,2013-12-19,2013-06-19,2013-12-19,2013-12-19T10:35,,,,,,,,,,,,NA,2013-06-09,-10,65,YEARS,>64,M,WHITE,White,NOT HISPANIC OR LATINO,Y,Xanomeline High Dose,Xan_Hi,Xanomeline High Dose,Xan_Hi,Xanomeline High Dose,Xanomeline High Dose,Xanomeline High Dose,Xanomeline High Dose,2013-06-19,2013-06-19T00:00:00Z,H,2013-12-19,2013-12-19T23:59:59Z,H,Screening,1,COMPLETED,2013-12-19,,2013-06-19,2013-12-19,184,,,,,4,ALZHEIMER'S DISEASE,1,,,,,,PRIMARY DIAGNOSIS,2009-12-21,2009-12-21,2010-09-16,2010-09-16,-1276,-1007,Y,Y,Y,Y,Y,Y,,,1,SCREENING 1,-7,2013-06-09,-10,,BEFORE,,SCREENING,BEFORE,,2013-06-09,-10,,,,,,,,,,,,,,,,Past,Y,Y,Y
148,CDISCPILOT01,01-709-1312,1312,709,USA,MH,2014-04-20,2014-10-19,2014-04-20,2014-10-19,2014-10-19T10:00,,,,,,,,,,,,NA,2014-04-13,-7,68,YEARS,>64,F,WHITE,White,NOT HISPANIC OR LATINO,Y,Placebo,Pbo,Placebo,Pbo,Placebo,Placebo,Placebo,Placebo,2014-04-20,2014-04-20T00:00:00Z,H,2014-10-19,2014-10-19T23:59:59Z,H,Screening,1,COMPLETED,2014-10-19,,2014-04-20,2014-10-19,183,,,,,4,ALZHEIMER'S DISEASE,1,,,,,,PRIMARY DIAGNOSIS,2010-07-30,2010-07-30,2010-11-08,2010-11-08,-1360,-1259,Y,Y,Y,Y,Y,Y,,,1,SCREENING 1,-7,2014-04-13,-7,,BEFORE,,SCREENING,BEFORE,,2014-04-13,-7,,,,,,,,,,,,,,,,Past,Y,Y,Y
149,CDISCPILOT01,01-709-1326,1326,709,USA,MH,2013-04-05,2013-10-02,2013-04-05,2013-10-02,2013-10-02T09:40,,,,,,,,,,,,NA,2013-03-21,-15,75,YEARS,>64,F,WHITE,White,NOT HISPANIC OR LATINO,Y,Xanomeline Low Dose,Xan_Lo,Xanomeline Low Dose,Xan_Lo,Xanomeline Low Dose,Xanomeline Low Dose,Xanomeline Low Dose,Xanomeline Low Dose,2013-04-05,2013-04-05T00:00:00Z,H,2013-10-02,2013-10-02T23:59:59Z,H,Screening,1,COMPLETED,2013-10-02,,2013-04-05,2013-10-02,181,,,,,3,ALZHEIMER'S DISEASE,1,,,,,,PRIMARY DIAGNOSIS,2010-09-19,2010-09-19,2010-10-27,2010-10-27,-929,-891,Y,Y,Y,Y,Y,Y,,,1,SCREENING 1,-7,2013-03-21,-15,,BEFORE,,SCREENING,BEFORE,,2013-03-21,-15,,,,,,,,,,,,,,,,Past,Y,Y,Y
150,CDISCPILOT01,01-709-1329,1329,709,USA,MH,2013-08-15,2013-08-29,2013-08-15,2013-08-25,2013-08-29T10:35,,,,,,,,,,,,NA,2013-08-01,-14,70,YEARS,>64,M,WHITE,White,NOT HISPANIC OR LATINO,Y,Xanomeline High Dose,Xan_Hi,Xanomeline Low Dose,Xan_Lo,Xanomeline High Dose,Xanomeline Low Dose,Xanomeline High Dose,Xanomeline Low Dose,2013-08-15,2013-08-15T00:00:00Z,H,2013-08-25,2013-08-25T23:59:59Z,H,Screening,1,DISCONTINUED,2013-08-29,,2013-08-15,2013-08-29,11,,,,,5,ALZHEIMER'S DISEASE,1,,,,,,PRIMARY DIAGNOSIS,2009-03-08,2009-03-08,2010-02-14,2010-02-14,-1621,-1278,Y,Y,Y,Y,Y,Y,,,1,SCREENING 1,-7,2013-08-01,-14,,BEFORE,,SCREENING,BEFORE,,2013-08-01,-14,,,,,,,,,,,,,,,,Past,Y,Y,Y
151,CDISCPILOT01,01-709-1339,1339,709,USA,MH,2012-12-23,2013-06-24,2012-12-23,2013-06-24,2013-06-24T10:10,,,,,,,,,,,,NA,2012-12-15,-8,81,YEARS,>64,M,WHITE,White,NOT HISPANIC OR LATINO,Y,Placebo,Pbo,Placebo,Pbo,Placebo,Placebo,Placebo,Placebo,2012-12-23,2012-12-23T00:00:00Z,H,2013-06-24,2013-06-24T23:59:59Z,H,Screening,1,COMPLETED,2013-06-24,,2012-12-23,2013-06-24,184,,,,,7,ALZHEIMER'S DISEASE,1,,,,,,PRIMARY DIAGNOSIS,2010-03-03,2010-03-03,2010-03-04,2010-03-04,-1026,-1025,Y,Y,Y,Y,Y,Y,,,1,SCREENING 1,-7,2012-12-15,-8,,BEFORE,,SCREENING,BEFORE,,2012-12-15,-8,,,,,,,,,,,,,,,,Past,Y,Y,Y
152,CDISCPILOT01,01-709-1424,1424,709,USA,MH,2013-03-03,2013-03-08,2013-03-03,2013-03-07,2013-03-17,,,,,,,,,,,,NA,2013-02-15,-16,77,YEARS,>64,M,WHITE,White,NOT HISPANIC OR LATINO,Y,Xanomeline High Dose,Xan_Hi,Xanomeline Low Dose,Xan_Lo,Xanomeline High Dose,Xanomeline Low Dose,Xanomeline High Dose,Xanomeline Low Dose,2013-03-03,2013-03-03T00:00:00Z,H,2013-03-07,2013-03-07T23:59:59Z,H,Screening,1,DISCONTINUED,2013-03-08,,2013-03-03,2013-03-17,5,,,,,7,ALZHEIMER'S DISEASE,1,,,,,,PRIMARY DIAGNOSIS,2007-09-12,2007-09-12,2008-05-24,2008-05-24,-1999,-1744,Y,Y,Y,Y,Y,Y,,,1,SCREENING 1,-7,2013-02-15,-16,,BEFORE,,SCREENING,BEFORE,,2013-02-15,-16,,,,,,,,,,,,,,,,Past,Y,Y,Y
153,CDISCPILOT01,01-710-1002,1002,710,USA,MH,2014-01-14,2014-01-18,2014-01-14,2014-01-18,2014-01-20,,,,,,,,,,,,NA,2013-12-30,-15,88,YEARS,>64,M,WHITE,White,NOT HISPANIC OR LATINO,Y,Xanomeline Low Dose,Xan_Lo,Xanomeline Low Dose,Xan_Lo,Xanomeline Low Dose,Xanomeline Low Dose,Xanomeline Low Dose,Xanomeline Low Dose,2014-01-14,2014-01-14T00:00:00Z,H,2014-01-18,2014-01-18T23:59:59Z,H,Screening,1,DISCONTINUED,2014-01-18,,2014-01-14,2014-01-20,5,,,,,5,ALZHEIMER'S DISEASE,1,,,,,,PRIMARY DIAGNOSIS,2008-01-08,2008-01-08,2008-05-08,2008-05-08,-2198,-2077,Y,Y,Y,Y,Y,Y,,,1,SCREENING 1,-7,2013-12-30,-15,,BEFORE,,SCREENING,BEFORE,,2013-12-30,-15,,,,,,,,,,,,,,,,Past,Y,Y,Y
154,CDISCPILOT01,01-710-1006,1006,710,USA,MH,2013-02-10,2013-08-10,2013-02-10,2013-08-09,2013-08-10T10:10,,,,,,,,,,,,NA,2013-01-27,-14,77,YEARS,>64,M,WHITE,White,NOT HISPANIC OR LATINO,Y,Xanomeline High Dose,Xan_Hi,Xanomeline High Dose,Xan_Hi,Xanomeline High Dose,Xanomeline High Dose,Xanomeline High Dose,Xanomeline High Dose,2013-02-10,2013-02-10T00:00:00Z,H,2013-08-09,2013-08-09T23:59:59Z,H,Screening,1,COMPLETED,2013-08-10,,2013-02-10,2013-08-10,181,,,,,4,ALZHEIMER'S DISEASE,1,,,,,,PRIMARY DIAGNOSIS,2012-02-10,2012-02-10,2012-02-27,2012-02-27,-366,-349,Y,Y,Y,Y,Y,Y,,,1,SCREENING 1,-7,2013-01-27,-14,,BEFORE,,SCREENING,BEFORE,,2013-01-27,-14,,,,,,,,,,,,,,,,Past,Y,Y,Y
155,CDISCPILOT01,01-710-1021,1021,710,USA,MH,2013-09-27,2013-11-12,2013-09-27,2013-10-29,2013-11-22,,,,,,,,,,,,NA,2013-09-19,-8,79,YEARS,>64,M,BLACK OR AFRICAN AMERICAN,Non-white,NOT HISPANIC OR LATINO,Y,Xanomeline High Dose,Xan_Hi,Xanomeline High Dose,Xan_Hi,Xanomeline High Dose,Xanomeline High Dose,Xanomeline High Dose,Xanomeline High Dose,2013-09-27,2013-09-27T00:00:00Z,H,2013-10-29,2013-10-29T23:59:59Z,H,Screening,1,DISCONTINUED,2013-11-12,,2013-09-27,2013-11-12,33,,,,,4,ALZHEIMER'S DISEASE,1,,,,,,PRIMARY DIAGNOSIS,2012-07-09,2012-07-09,2012-12-02,2012-12-02,-445,-299,Y,Y,Y,Y,Y,Y,,,1,SCREENING 1,-7,2013-09-19,-8,,BEFORE,,SCREENING,BEFORE,,2013-09-19,-8,,,,,,,,,,,,,,,,Past,Y,Y,Y
156,CDISCPILOT01,01-710-1027,1027,710,USA,MH,2014-02-28,2014-08-29,2014-02-28,2014-08-29,2014-08-29T11:05,,,,,,,,,,,,NA,2014-02-03,-25,83,YEARS,>64,M,WHITE,White,NOT HISPANIC OR LATINO,Y,Placebo,Pbo,Placebo,Pbo,Placebo,Placebo,Placebo,Placebo,2014-02-28,2014-02-28T00:00:00Z,H,2014-08-29,2014-08-29T23:59:59Z,H,Screening,1,COMPLETED,2014-08-29,,2014-02-28,2014-08-29,183,,,,,14,ALZHEIMER'S DISEASE,1,,,,,,PRIMARY DIAGNOSIS,2012-02-04,2012-02-04,2012-07-10,2012-07-10,-755,-598,Y,Y,Y,Y,Y,Y,,,1,SCREENING 1,-7,2014-02-03,-25,,BEFORE,,SCREENING,BEFORE,,2014-02-03,-25,,,,,,,,,,,,,,,,Past,Y,Y,Y
157,CDISCPILOT01,01-710-1045,1045,710,USA,MH,2013-06-03,2013-08-17,2013-06-03,2013-08-13,2013-09-08,,,,,,,,,,,,NA,2013-05-20,-14,83,YEARS,>64,F,WHITE,White,NOT HISPANIC OR LATINO,Y,Xanomeline Low Dose,Xan_Lo,Xanomeline Low Dose,Xan_Lo,Xanomeline Low Dose,Xanomeline Low Dose,Xanomeline Low Dose,Xanomeline Low Dose,2013-06-03,2013-06-03T00:00:00Z,H,2013-08-13,2013-08-13T23:59:59Z,H,Screening,1,DISCONTINUED,2013-08-17,,2013-06-03,2013-08-17,72,,,,,5,ALZHEIMER'S DISEASE,1,,,,,,PRIMARY DIAGNOSIS,2010-05-12,2010-05-12,2010-07-16,2010-07-16,-1118,-1053,Y,Y,Y,Y,Y,Y,,,1,SCREENING 1,-7,2013-05-20,-14,,BEFORE,,SCREENING,BEFORE,,2013-05-20,-14,,,,,,,,,,,,,,,,Past,Y,Y,Y
158,CDISCPILOT01,01-710-1053,1053,710,USA,MH,2012-12-26,2013-02-15,2012-12-26,2013-02-10,2013-02-26T13:25,,,,,,,,,,,,NA,2012-12-15,-11,84,YEARS,>64,F,WHITE,White,NOT HISPANIC OR LATINO,Y,Xanomeline Low Dose,Xan_Lo,Xanomeline Low Dose,Xan_Lo,Xanomeline Low Dose,Xanomeline Low Dose,Xanomeline Low Dose,Xanomeline Low Dose,2012-12-26,2012-12-26T00:00:00Z,H,2013-02-10,2013-02-10T23:59:59Z,H,Screening,1,DISCONTINUED,2013-02-15,,2012-12-26,2013-02-26,47,,,,,4,ALZHEIMER'S DISEASE,1,,,,,,PRIMARY DIAGNOSIS,2011-11-04,2011-11-04,2012-06-10,2012-06-10,-418,-199,Y,Y,Y,Y,Y,Y,,,1,SCREENING 1,-7,2012-12-15,-11,,BEFORE,,SCREENING,BEFORE,,2012-12-15,-11,,,,,,,,,,,,,,,,Past,Y,Y,Y
159,CDISCPILOT01,01-710-1060,1060,710,USA,MH,2013-01-01,2013-07-05,2013-01-01,2013-07-05,2013-07-05T14:40,,,,,,,,,,,,NA,2012-12-24,-8,82,YEARS,>64,M,WHITE,White,NOT HISPANIC OR LATINO,Y,Placebo,Pbo,Placebo,Pbo,Placebo,Placebo,Placebo,Placebo,2013-01-01,2013-01-01T00:00:00Z,H,2013-07-05,2013-07-05T23:59:59Z,H,Screening,1,COMPLETED,2013-07-05,,2013-01-01,2013-07-05,186,,,,,7,ALZHEIMER'S DISEASE,1,,,,,,PRIMARY DIAGNOSIS,2010-09-14,2010-09-14,2010-10-16,2010-10-16,-840,-808,Y,Y,Y,Y,Y,Y,,,1,SCREENING 1,-7,2012-12-24,-8,,BEFORE,,SCREENING,BEFORE,,2012-12-24,-8,,,,,,,,,,,,,,,,Past,Y,Y,Y
160,CDISCPILOT01,01-710-1070,1070,710,USA,MH,2012-09-08,2013-02-23,2012-09-08,2013-01-22,2013-07-04,,,,,,,,,,,,NA,2012-08-28,-11,85,YEARS,>64,F,WHITE,White,NOT HISPANIC OR LATINO,Y,Xanomeline High Dose,Xan_Hi,Xanomeline High Dose,Xan_Hi,Xanomeline High Dose,Xanomeline High Dose,Xanomeline High Dose,Xanomeline High Dose,2012-09-08,2012-09-08T00:00:00Z,H,2013-01-22,2013-01-22T23:59:59Z,H,Screening,1,DISCONTINUED,2013-02-23,,2012-09-08,2013-02-10,137,,,,,11,ALZHEIMER'S DISEASE,1,,,,,,PRIMARY DIAGNOSIS,2010-09-08,2010-09-08,2011-05-29,2011-05-29,-731,-468,Y,Y,Y,Y,Y,Y,,,1,SCREENING 1,-7,2012-08-28,-11,,BEFORE,,SCREENING,BEFORE,,2012-08-28,-11,,,,,,,,,,,,,,,,Past,Y,Y,Y
161,CDISCPILOT01,01-710-1077,1077,710,USA,MH,2013-11-17,2014-05-18,2013-11-17,2014-05-18,2014-05-18T09:50,,,,,,,,,,,,NA,2013-11-03,-14,76,YEARS,>64,F,WHITE,White,NOT HISPANIC OR LATINO,Y,Placebo,Pbo,Placebo,Pbo,Placebo,Placebo,Placebo,Placebo,2013-11-17,2013-11-17T00:00:00Z,H,2014-05-18,2014-05-18T23:59:59Z,H,Screening,1,COMPLETED,2014-05-18,,2013-11-17,2014-05-18,183,,,,,7,ALZHEIMER'S DISEASE,1,,,,,,PRIMARY DIAGNOSIS,2011-06-11,2011-06-11,2012-05-19,2012-05-19,-890,-547,Y,Y,Y,Y,Y,Y,,,1,SCREENING 1,-7,2013-11-03,-14,,BEFORE,,SCREENING,BEFORE,,2013-11-03,-14,,,,,,,,,,,,,,,,Past,Y,Y,Y
162,CDISCPILOT01,01-710-1078,1078,710,USA,MH,2013-09-17,2014-03-23,2013-09-17,2014-03-23,2014-03-23T16:00,,,,,,,,,,,,NA,2013-09-06,-11,81,YEARS,>64,F,WHITE,White,NOT HISPANIC OR LATINO,Y,Placebo,Pbo,Placebo,Pbo,Placebo,Placebo,Placebo,Placebo,2013-09-17,2013-09-17T00:00:00Z,H,2014-03-23,2014-03-23T23:59:59Z,H,Screening,1,COMPLETED,2014-03-23,,2013-09-17,2014-03-23,188,,,,,4,ALZHEIMER'S DISEASE,1,,,,,,PRIMARY DIAGNOSIS,2011-08-25,2011-08-25,2012-03-29,2012-03-29,-754,-537,Y,Y,Y,Y,Y,Y,,,1,SCREENING 1,-7,2013-09-06,-11,,BEFORE,,SCREENING,BEFORE,,2013-09-06,-11,,,,,,,,,,,,,,,,Past,Y,Y,Y
163,CDISCPILOT01,01-710-1083,1083,710,USA,MH,2013-07-22,2013-08-03,2013-07-22,2013-08-01,2013-08-03,,,2013-08-02,12,Y,1,<= 30,Y,,AE,Y,NA,2013-07-09,-13,89,YEARS,>64,F,WHITE,White,NOT HISPANIC OR LATINO,Y,Placebo,Pbo,Placebo,Pbo,Placebo,Placebo,Placebo,Placebo,2013-07-22,2013-07-22T00:00:00Z,H,2013-08-01,2013-08-01T23:59:59Z,H,Screening,1,DISCONTINUED,2013-08-02,,2013-07-22,2013-08-02,11,2013-08-02,,MYOCARDIAL INFARCTION,ADVERSE EVENT,6,ALZHEIMER'S DISEASE,1,,,,,,PRIMARY DIAGNOSIS,2011-07-19,2011-07-19,2011-10-31,2011-10-31,-734,-630,Y,Y,Y,Y,Y,Y,,,1,SCREENING 1,-7,2013-07-09,-13,,BEFORE,,SCREENING,BEFORE,,2013-07-09,-13,,,,,,,,,,,,,,,,Past,Y,Y,Y
164,CDISCPILOT01,01-710-1137,1137,710,USA,MH,2013-10-11,2013-11-13,2013-10-11,2013-11-13,2013-11-25,,,,,,,,,,,,NA,2013-10-03,-8,79,YEARS,>64,F,BLACK OR AFRICAN AMERICAN,Non-white,NOT HISPANIC OR LATINO,Y,Xanomeline High Dose,Xan_Hi,Xanomeline High Dose,Xan_Hi,Xanomeline High Dose,Xanomeline High Dose,Xanomeline High Dose,Xanomeline High Dose,2013-10-11,2013-10-11T00:00:00Z,H,2013-11-13,2013-11-13T23:59:59Z,H,Screening,1,DISCONTINUED,2013-11-13,,2013-10-11,2013-11-13,34,,,,,5,ALZHEIMER'S DISEASE,1,,,,,,PRIMARY DIAGNOSIS,2009-10-12,2009-10-12,2010-11-03,2010-11-03,-1460,-1073,Y,Y,Y,Y,Y,Y,,,1,SCREENING 1,-7,2013-10-03,-8,,BEFORE,,SCREENING,BEFORE,,2013-10-03,-8,,,,,,,,,,,,,,,,Past,Y,Y,Y
165,CDISCPILOT01,01-710-1142,1142,710,USA,MH,2012-10-02,2012-10-23,2012-10-02,2012-10-20,2012-10-28,,,,,,,,,,,,NA,2012-09-12,-20,76,YEARS,>64,F,WHITE,White,NOT HISPANIC OR LATINO,Y,Xanomeline High Dose,Xan_Hi,Xanomeline High Dose,Xan_Hi,Xanomeline High Dose,Xanomeline High Dose,Xanomeline High Dose,Xanomeline High Dose,2012-10-02,2012-10-02T00:00:00Z,H,2012-10-20,2012-10-20T23:59:59Z,H,Screening,1,DISCONTINUED,2012-10-23,,2012-10-02,2012-10-23,19,,,,,6,ALZHEIMER'S DISEASE,1,,,,,,PRIMARY DIAGNOSIS,2010-09-26,2010-09-26,2011-08-03,2011-08-03,-737,-426,Y,Y,Y,Y,Y,Y,,,1,SCREENING 1,-7,2012-09-12,-20,,BEFORE,,SCREENING,BEFORE,,2012-09-12,-20,,,,,,,,,,,,,,,,Past,Y,Y,Y
166,CDISCPILOT01,01-710-1154,1154,710,USA,MH,2014-03-29,2014-05-09,2014-03-29,2014-04-27,2014-06-13,,,,,,,,,,,,NA,2014-03-08,-21,84,YEARS,>64,M,WHITE,White,HISPANIC OR LATINO,Y,Xanomeline Low Dose,Xan_Lo,Xanomeline Low Dose,Xan_Lo,Xanomeline Low Dose,Xanomeline Low Dose,Xanomeline Low Dose,Xanomeline Low Dose,2014-03-29,2014-03-29T00:00:00Z,H,2014-04-27,2014-04-27T23:59:59Z,H,Screening,1,DISCONTINUED,2014-05-09,,2014-03-29,2014-05-09,30,,,,,4,ALZHEIMER'S DISEASE,1,,,,,,PRIMARY DIAGNOSIS,2008-02-25,2008-02-25,2008-07-10,2008-07-10,-2224,-2088,Y,Y,Y,Y,Y,Y,,,1,SCREENING 1,-7,2014-03-08,-21,,BEFORE,,SCREENING,BEFORE,,2014-03-08,-21,,,,,,,,,,,,,,,,Past,Y,Y,Y
167,CDISCPILOT01,01-710-1166,1166,710,USA,MH,2012-11-30,2013-03-30,2012-11-30,2013-03-19,2013-05-22,,,,,,,,,,,,NA,2012-11-10,-20,81,YEARS,>64,F,WHITE,White,NOT HISPANIC OR LATINO,Y,Xanomeline Low Dose,Xan_Lo,Xanomeline Low Dose,Xan_Lo,Xanomeline Low Dose,Xanomeline Low Dose,Xanomeline Low Dose,Xanomeline Low Dose,2012-11-30,2012-11-30T00:00:00Z,H,2013-03-19,2013-03-19T23:59:59Z,H,Screening,1,DISCONTINUED,2013-03-30,,2012-11-30,2013-03-30,110,,,,,6,ALZHEIMER'S DISEASE,1,,,,,,PRIMARY DIAGNOSIS,2007-11-10,2007-11-10,2008-04-19,2008-04-19,-1847,-1686,Y,Y,Y,Y,Y,Y,,,1,SCREENING 1,-7,2012-11-10,-20,,BEFORE,,SCREENING,BEFORE,,2012-11-10,-20,,,,,,,,,,,,,,,,Past,Y,Y,Y
168,CDISCPILOT01,01-710-1183,1183,710,USA,MH,2013-11-16,2014-05-17,2013-11-16,2014-05-17,2014-05-17T11:55,,,,,,,,,,,,NA,2013-10-24,-23,80,YEARS,>64,F,WHITE,White,NOT HISPANIC OR LATINO,Y,Placebo,Pbo,Placebo,Pbo,Placebo,Placebo,Placebo,Placebo,2013-11-16,2013-11-16T00:00:00Z,H,2014-05-17,2014-05-17T23:59:59Z,H,Screening,1,COMPLETED,2014-05-17,,2013-11-16,2014-05-17,183,,,,,7,ALZHEIMER'S DISEASE,1,,,,,,PRIMARY DIAGNOSIS,2012-10-25,2012-10-25,2013-02-14,2013-02-14,-387,-275,Y,Y,Y,Y,Y,Y,,,1,SCREENING 1,-7,2013-10-24,-23,,BEFORE,,SCREENING,BEFORE,,2013-10-24,-23,,,,,,,,,,,,,,,,Past,Y,Y,Y
169,CDISCPILOT01,01-710-1187,1187,710,USA,MH,2012-11-10,2013-05-12,2012-11-10,2013-05-12,2013-05-12T11:05,,,,,,,,,,,,NA,2012-10-26,-15,78,YEARS,>64,F,WHITE,White,NOT HISPANIC OR LATINO,Y,Xanomeline High Dose,Xan_Hi,Xanomeline High Dose,Xan_Hi,Xanomeline High Dose,Xanomeline High Dose,Xanomeline High Dose,Xanomeline High Dose,2012-11-10,2012-11-10T00:00:00Z,H,2013-05-12,2013-05-12T23:59:59Z,H,Screening,1,COMPLETED,2013-05-12,,2012-11-10,2013-05-12,184,,,,,3,ALZHEIMER'S DISEASE,1,,,,,,PRIMARY DIAGNOSIS,2010-10-22,2010-10-22,2011-05-21,2011-05-21,-750,-539,Y,Y,Y,Y,Y,Y,,,1,SCREENING 1,-7,2012-10-26,-15,,BEFORE,,SCREENING,BEFORE,,2012-10-26,-15,,,,,,,,,,,,,,,,Past,Y,Y,Y
170,CDISCPILOT01,01-710-1235,1235,710,USA,MH,2012-09-26,2013-03-27,2012-09-26,2013-03-27,2013-03-27T09:35,,,,,,,,,,,,NA,2012-09-13,-13,56,YEARS,18-64,F,WHITE,White,HISPANIC OR LATINO,Y,Xanomeline Low Dose,Xan_Lo,Xanomeline Low Dose,Xan_Lo,Xanomeline Low Dose,Xanomeline Low Dose,Xanomeline Low Dose,Xanomeline Low Dose,2012-09-26,2012-09-26T00:00:00Z,H,2013-03-27,2013-03-27T23:59:59Z,H,Screening,1,COMPLETED,2013-03-27,,2012-09-26,2013-03-27,183,,,,,5,ALZHEIMER'S DISEASE,1,,,,,,PRIMARY DIAGNOSIS,2009-12-03,2009-12-03,2010-02-01,2010-02-01,-1028,-968,Y,Y,Y,Y,Y,Y,,,1,SCREENING 1,-7,2012-09-13,-13,,BEFORE,,SCREENING,BEFORE,,2012-09-13,-13,,,,,,,,,,,,,,,,Past,Y,Y,Y
171,CDISCPILOT01,01-710-1249,1249,710,USA,MH,2013-12-28,2014-06-28,2013-12-28,2014-06-28,2014-06-28T11:05,,,,,,,,,,,,NA,2013-12-19,-9,79,YEARS,>64,M,WHITE,White,NOT HISPANIC OR LATINO,Y,Xanomeline High Dose,Xan_Hi,Xanomeline High Dose,Xan_Hi,Xanomeline High Dose,Xanomeline High Dose,Xanomeline High Dose,Xanomeline High Dose,2013-12-28,2013-12-28T00:00:00Z,H,2014-06-28,2014-06-28T23:59:59Z,H,Screening,1,COMPLETED,2014-06-28,,2013-12-28,2014-06-28,183,,,,,7,ALZHEIMER'S DISEASE,1,,,,,,PRIMARY DIAGNOSIS,2008-12-27,2008-12-27,2010-01-07,2010-01-07,-1827,-1451,Y,Y,Y,Y,Y,Y,,,1,SCREENING 1,-7,2013-12-19,-9,,BEFORE,,SCREENING,BEFORE,,2013-12-19,-9,,,,,,,,,,,,,,,,Past,Y,Y,Y
172,CDISCPILOT01,01-710-1264,1264,710,USA,MH,2013-06-13,2013-10-12,2013-06-13,2013-10-11,2013-11-05,,,,,,,,,,,,NA,2013-06-02,-11,78,YEARS,>64,M,WHITE,White,NOT HISPANIC OR LATINO,Y,Placebo,Pbo,Placebo,Pbo,Placebo,Placebo,Placebo,Placebo,2013-06-13,2013-06-13T00:00:00Z,H,2013-10-11,2013-10-11T23:59:59Z,H,Screening,1,DISCONTINUED,2013-10-12,,2013-06-13,2013-10-12,121,,,,,11,ALZHEIMER'S DISEASE,1,,,,,,PRIMARY DIAGNOSIS,2010-06-06,2010-06-06,2011-04-04,2011-04-04,-1103,-801,Y,Y,Y,Y,Y,Y,,,1,SCREENING 1,-7,2013-06-02,-11,,BEFORE,,SCREENING,BEFORE,,2013-06-02,-11,,,,,,,,,,,,,,,,Past,Y,Y,Y
173,CDISCPILOT01,01-710-1270,1270,710,USA,MH,2014-02-12,2014-03-01,2014-02-12,2014-03-01,2014-03-26,,,,,,,,,,,,NA,2014-02-01,-11,83,YEARS,>64,F,WHITE,White,NOT HISPANIC OR LATINO,Y,Xanomeline Low Dose,Xan_Lo,Xanomeline Low Dose,Xan_Lo,Xanomeline Low Dose,Xanomeline Low Dose,Xanomeline Low Dose,Xanomeline Low Dose,2014-02-12,2014-02-12T00:00:00Z,H,2014-03-01,2014-03-01T23:59:59Z,H,Screening,1,DISCONTINUED,2014-03-01,,2014-02-12,2014-03-01,18,,,,,5,ALZHEIMER'S DISEASE,1,,,,,,PRIMARY DIAGNOSIS,2012-06-19,2012-06-19,2013-05-31,2013-05-31,-603,-257,Y,Y,Y,Y,Y,Y,,,1,SCREENING 1,-7,2014-02-01,-11,,BEFORE,,SCREENING,BEFORE,,2014-02-01,-11,,,,,,,,,,,,,,,,Past,Y,Y,Y
174,CDISCPILOT01,01-710-1271,1271,710,USA,MH,2012-09-27,2012-12-02,2012-09-27,2012-11-21,2012-12-09,,,,,,,,,,,,NA,2012-09-04,-23,86,YEARS,>64,F,WHITE,White,NOT HISPANIC OR LATINO,Y,Placebo,Pbo,Placebo,Pbo,Placebo,Placebo,Placebo,Placebo,2012-09-27,2012-09-27T00:00:00Z,H,2012-11-21,2012-11-21T23:59:59Z,H,Screening,1,DISCONTINUED,2012-12-02,,2012-09-27,2012-11-26,56,,,,,5,ALZHEIMER'S DISEASE,1,,,,,,PRIMARY DIAGNOSIS,2011-09-05,2011-09-05,2012-04-06,2012-04-06,-388,-174,Y,Y,Y,Y,Y,Y,,,1,SCREENING 1,-7,2012-09-04,-23,,BEFORE,,SCREENING,BEFORE,,2012-09-04,-23,,,,,,,,,,,,,,,,Past,Y,Y,Y
175,CDISCPILOT01,01-710-1278,1278,710,USA,MH,2012-12-24,2013-03-03,2012-12-24,2013-02-26,2013-03-10,,,,,,,,,,,,NA,2012-12-13,-11,81,YEARS,>64,M,WHITE,White,NOT HISPANIC OR LATINO,Y,Xanomeline High Dose,Xan_Hi,Xanomeline High Dose,Xan_Hi,Xanomeline High Dose,Xanomeline High Dose,Xanomeline High Dose,Xanomeline High Dose,2012-12-24,2012-12-24T00:00:00Z,H,2013-02-26,2013-02-26T23:59:59Z,H,Screening,1,DISCONTINUED,2013-03-03,,2012-12-24,2013-03-07,65,,,,,8,ALZHEIMER'S DISEASE,1,,,,,,PRIMARY DIAGNOSIS,2011-12-08,2011-12-08,2012-04-30,2012-04-30,-382,-238,Y,Y,Y,Y,Y,Y,,,1,SCREENING 1,-7,2012-12-13,-11,,BEFORE,,SCREENING,BEFORE,,2012-12-13,-11,,,,,,,,,,,,,,,,Past,Y,Y,Y
176,CDISCPILOT01,01-710-1300,1300,710,USA,MH,2012-12-15,2013-02-19,2012-12-15,2013-02-15,2013-03-19,,,,,,,,,,,,NA,2012-12-04,-11,78,YEARS,>64,F,WHITE,White,NOT HISPANIC OR LATINO,Y,Xanomeline Low Dose,Xan_Lo,Xanomeline Low Dose,Xan_Lo,Xanomeline Low Dose,Xanomeline Low Dose,Xanomeline Low Dose,Xanomeline Low Dose,2012-12-15,2012-12-15T00:00:00Z,H,2013-02-15,2013-02-15T23:59:59Z,H,Screening,1,DISCONTINUED,2013-02-19,,2012-12-15,2013-02-19,63,,,,,2,ALZHEIMER'S DISEASE,1,,,,,,PRIMARY DIAGNOSIS,2011-11-16,2011-11-16,2012-01-24,2012-01-24,-395,-326,Y,Y,Y,Y,Y,Y,,,1,SCREENING 1,-7,2012-12-04,-11,,BEFORE,,SCREENING,BEFORE,,2012-12-04,-11,,,,,,,,,,,,,,,,Past,Y,Y,Y
177,CDISCPILOT01,01-710-1314,1314,710,USA,MH,2013-04-24,2013-05-25,2013-04-24,2013-05-23,2013-05-25,,,,,,,,,,,,NA,2013-04-21,-3,78,YEARS,>64,F,WHITE,White,NOT HISPANIC OR LATINO,Y,Placebo,Pbo,Placebo,Pbo,Placebo,Placebo,Placebo,Placebo,2013-04-24,2013-04-24T00:00:00Z,H,2013-05-23,2013-05-23T23:59:59Z,H,Screening,1,DISCONTINUED,2013-05-25,,2013-04-24,2013-05-24,30,,,,,1,ALZHEIMER'S DISEASE,1,,,,,,PRIMARY DIAGNOSIS,2011-04-14,2011-04-14,2012-01-05,2012-01-05,-741,-475,Y,Y,Y,Y,Y,Y,,,1,SCREENING 1,-7,2013-04-21,-3,,BEFORE,,SCREENING,BEFORE,,2013-04-21,-3,,,,,,,,,,,,,,,,Past,Y,Y,Y
178,CDISCPILOT01,01-710-1315,1315,710,USA,MH,2013-02-27,2013-07-16,2013-02-27,2013-07-06,2013-09-02,,,,,,,,,,,,NA,2013-02-12,-15,83,YEARS,>64,F,WHITE,White,NOT HISPANIC OR LATINO,Y,Placebo,Pbo,Placebo,Pbo,Placebo,Placebo,Placebo,Placebo,2013-02-27,2013-02-27T00:00:00Z,H,2013-07-06,2013-07-06T23:59:59Z,H,Screening,1,DISCONTINUED,2013-07-16,,2013-02-27,2013-07-16,130,,,,,2,ALZHEIMER'S DISEASE,1,,,,,,PRIMARY DIAGNOSIS,2011-08-20,2011-08-20,2011-12-14,2011-12-14,-557,-441,Y,Y,Y,Y,Y,Y,,,1,SCREENING 1,-7,2013-02-12,-15,,BEFORE,,SCREENING,BEFORE,,2013-02-12,-15,,,,,,,,,,,,,,,,Past,Y,Y,Y
179,CDISCPILOT01,01-710-1354,1354,710,USA,MH,2012-11-11,2013-05-01,2012-11-11,2013-05-01,2013-05-01T14:05,,,,,,,,,,,,NA,2012-10-29,-13,73,YEARS,>64,M,WHITE,White,NOT HISPANIC OR LATINO,Y,Xanomeline High Dose,Xan_Hi,Xanomeline High Dose,Xan_Hi,Xanomeline High Dose,Xanomeline High Dose,Xanomeline High Dose,Xanomeline High Dose,2012-11-11,2012-11-11T00:00:00Z,H,2013-05-01,2013-05-01T23:59:59Z,H,Screening,1,COMPLETED,2013-05-01,,2012-11-11,2013-05-01,172,,,,,14,ALZHEIMER'S DISEASE,1,,,,,,PRIMARY DIAGNOSIS,2011-11-06,2011-11-06,2011-12-23,2011-12-23,-371,-324,Y,Y,Y,Y,Y,Y,,,1,SCREENING 1,-7,2012-10-29,-13,,BEFORE,,SCREENING,BEFORE,,2012-10-29,-13,,,,,,,,,,,,,,,,Past,Y,Y,Y
180,CDISCPILOT01,01-710-1358,1358,710,USA,MH,2012-09-17,2013-03-12,2012-09-17,2013-02-09,2013-03-12,,,,,,,,,,,,NA,2012-09-02,-15,82,YEARS,>64,M,WHITE,White,NOT HISPANIC OR LATINO,Y,Xanomeline Low Dose,Xan_Lo,Xanomeline Low Dose,Xan_Lo,Xanomeline Low Dose,Xanomeline Low Dose,Xanomeline Low Dose,Xanomeline Low Dose,2012-09-17,2012-09-17T00:00:00Z,H,2013-02-09,2013-02-09T23:59:59Z,H,Screening,1,DISCONTINUED,2013-03-12,,2012-09-17,2013-02-09,146,,,,,7,ALZHEIMER'S DISEASE,1,,,,,,PRIMARY DIAGNOSIS,2009-08-29,2009-08-29,2010-04-21,2010-04-21,-1115,-880,Y,Y,Y,Y,Y,Y,,,1,SCREENING 1,-7,2012-09-02,-15,,BEFORE,,SCREENING,BEFORE,,2012-09-02,-15,,,,,,,,,,,,,,,,Past,Y,Y,Y
181,CDISCPILOT01,01-710-1368,1368,710,USA,MH,2013-10-23,2014-04-24,2013-10-23,2014-04-24,2014-04-24T10:10,,,,,,,,,,,,NA,2013-10-21,-2,88,YEARS,>64,F,WHITE,White,NOT HISPANIC OR LATINO,Y,Placebo,Pbo,Placebo,Pbo,Placebo,Placebo,Placebo,Placebo,2013-10-23,2013-10-23T00:00:00Z,H,2014-04-24,2014-04-24T23:59:59Z,H,Screening,1,COMPLETED,2014-04-24,,2013-10-23,2014-04-24,184,,,,,6,ALZHEIMER'S DISEASE,1,,,,,,PRIMARY DIAGNOSIS,2011-10-12,2011-10-12,2012-05-05,2012-05-05,-742,-536,Y,Y,Y,Y,Y,Y,,,1,SCREENING 1,-7,2013-10-21,-2,,BEFORE,,SCREENING,BEFORE,,2013-10-21,-2,,,,,,,,,,,,,,,,Past,Y,Y,Y
182,CDISCPILOT01,01-710-1385,1385,710,USA,MH,2012-10-29,2013-02-18,2012-10-29,2013-02-18,2013-02-24,,,,,,,,,,,,NA,2012-10-21,-8,77,YEARS,>64,M,WHITE,White,NOT HISPANIC OR LATINO,Y,Xanomeline Low Dose,Xan_Lo,Xanomeline Low Dose,Xan_Lo,Xanomeline Low Dose,Xanomeline Low Dose,Xanomeline Low Dose,Xanomeline Low Dose,2012-10-29,2012-10-29T00:00:00Z,H,2013-02-18,2013-02-18T23:59:59Z,H,Screening,1,DISCONTINUED,2013-02-18,,2012-10-29,2013-02-18,113,,,,,10,ALZHEIMER'S DISEASE,1,,,,,,PRIMARY DIAGNOSIS,2011-10-28,2011-10-28,2012-05-15,2012-05-15,-367,-167,Y,Y,Y,Y,Y,Y,,,1,SCREENING 1,-7,2012-10-21,-8,,BEFORE,,SCREENING,BEFORE,,2012-10-21,-8,,,,,,,,,,,,,,,,Past,Y,Y,Y
183,CDISCPILOT01,01-710-1408,1408,710,USA,MH,2013-01-05,2013-07-12,2013-01-05,2013-07-12,2013-07-12T14:35,,,,,,,,,,,,NA,2012-12-26,-10,80,YEARS,>64,M,WHITE,White,NOT HISPANIC OR LATINO,Y,Xanomeline High Dose,Xan_Hi,Xanomeline High Dose,Xan_Hi,Xanomeline High Dose,Xanomeline High Dose,Xanomeline High Dose,Xanomeline High Dose,2013-01-05,2013-01-05T00:00:00Z,H,2013-07-12,2013-07-12T23:59:59Z,H,Screening,1,COMPLETED,2013-07-12,,2013-01-05,2013-07-12,189,,,,,8,ALZHEIMER'S DISEASE,1,,,,,,PRIMARY DIAGNOSIS,2007-12-14,2007-12-14,2008-07-26,2008-07-26,-1849,-1624,Y,Y,Y,Y,Y,Y,,,1,SCREENING 1,-7,2012-12-26,-10,,BEFORE,,SCREENING,BEFORE,,2012-12-26,-10,,,,,,,,,,,,,,,,Past,Y,Y,Y
184,CDISCPILOT01,01-711-1012,1012,711,USA,MH,2013-04-03,2013-05-02,2013-04-03,2013-04-29,2013-09-18,,2013-09-18,,,,,,,,,,NA,2013-03-20,-14,67,YEARS,>64,F,WHITE,White,NOT HISPANIC OR LATINO,Y,Xanomeline High Dose,Xan_Hi,Xanomeline High Dose,Xan_Hi,Xanomeline High Dose,Xanomeline High Dose,Xanomeline High Dose,Xanomeline High Dose,2013-04-03,2013-04-03T00:00:00Z,H,2013-04-29,2013-04-29T23:59:59Z,H,Screening,1,DISCONTINUED,2013-05-02,,2013-04-03,2013-05-02,27,,,,,8,ALZHEIMER'S DISEASE,1,,,,,,PRIMARY DIAGNOSIS,2011-07-25,2011-07-25,2012-03-26,2012-03-26,-618,-373,Y,Y,Y,Y,Y,Y,,,1,SCREENING 1,-7,2013-03-20,-14,,BEFORE,,SCREENING,BEFORE,,2013-03-20,-14,,,,,,,,,,,,,,,,Past,Y,Y,Y
185,CDISCPILOT01,01-711-1036,1036,711,USA,MH,2012-07-29,2013-02-10,2012-07-29,2013-02-10,2013-02-10T10:25,,,,,,,,,,,,NA,2012-07-20,-9,70,YEARS,>64,M,BLACK OR AFRICAN AMERICAN,Non-white,NOT HISPANIC OR LATINO,Y,Placebo,Pbo,Placebo,Pbo,Placebo,Placebo,Placebo,Placebo,2012-07-29,2012-07-29T00:00:00Z,H,2013-02-10,2013-02-10T23:59:59Z,H,Screening,1,COMPLETED,2013-02-10,,2012-07-29,2013-02-10,197,,,,,9,ALZHEIMER'S DISEASE,1,,,,,,PRIMARY DIAGNOSIS,2009-03-05,2009-03-05,2010-03-08,2010-03-08,-1242,-874,Y,Y,Y,,Y,Y,,,1,SCREENING 1,-7,2012-07-20,-9,,BEFORE,,SCREENING,BEFORE,,2012-07-20,-9,,,,,,,,,,,,,,,,Past,,Y,Y
186,CDISCPILOT01,01-711-1143,1143,711,USA,MH,2013-04-03,2013-06-01,2013-04-03,2013-05-30,2013-09-22,,2013-09-22,,,,,,,,,,NA,2013-03-30,-4,76,YEARS,>64,F,WHITE,White,NOT HISPANIC OR LATINO,Y,Xanomeline Low Dose,Xan_Lo,Xanomeline Low Dose,Xan_Lo,Xanomeline Low Dose,Xanomeline Low Dose,Xanomeline Low Dose,Xanomeline Low Dose,2013-04-03,2013-04-03T00:00:00Z,H,2013-05-30,2013-05-30T23:59:59Z,H,Screening,1,DISCONTINUED,2013-06-01,,2013-04-03,2013-06-01,58,,,,,19,ALZHEIMER'S DISEASE,1,,,,,,PRIMARY DIAGNOSIS,2011-04-29,2011-04-29,2011-09-09,2011-09-09,-705,-572,Y,Y,Y,Y,Y,Y,,,1,SCREENING 1,-7,2013-03-30,-4,,BEFORE,,SCREENING,BEFORE,,2013-03-30,-4,,,,,,,,,,,,,,,,Past,Y,Y,Y
187,CDISCPILOT01,01-711-1433,1433,711,USA,MH,2013-01-27,2013-02-06,2013-01-27,2013-02-05,2013-02-06T10:52,,,,,,,,,,,,NA,2013-01-23,-4,84,YEARS,>64,F,WHITE,White,NOT HISPANIC OR LATINO,Y,Xanomeline High Dose,Xan_Hi,Xanomeline Low Dose,Xan_Lo,Xanomeline High Dose,Xanomeline Low Dose,Xanomeline High Dose,Xanomeline Low Dose,2013-01-27,2013-01-27T00:00:00Z,H,2013-02-05,2013-02-05T23:59:59Z,H,Screening,1,DISCONTINUED,2013-02-06,,2013-01-27,2013-02-06,10,,,,,11,ALZHEIMER'S DISEASE,1,,,,,,PRIMARY DIAGNOSIS,2012-02-02,2012-02-02,2013-03-03,2013-03-03,-360,36,Y,Y,Y,Y,Y,Y,,,1,SCREENING 1,-7,2013-01-23,-4,,ONGOING,,SCREENING,AFTER,,2013-01-23,-4,,,,,,,,,,,,,,,,Current,Y,Y,Y
188,CDISCPILOT01,01-713-1043,1043,713,USA,MH,2013-09-15,2014-03-24,2013-09-15,2014-03-24,2014-03-24T14:30,,,,,,,,,,,,NA,2013-08-17,-29,78,YEARS,>64,F,WHITE,White,NOT HISPANIC OR LATINO,Y,Xanomeline Low Dose,Xan_Lo,Xanomeline Low Dose,Xan_Lo,Xanomeline Low Dose,Xanomeline Low Dose,Xanomeline Low Dose,Xanomeline Low Dose,2013-09-15,2013-09-15T00:00:00Z,H,2014-03-24,2014-03-24T23:59:59Z,H,Screening,1,COMPLETED,2014-03-24,,2013-09-15,2014-03-24,191,,,,,4,ALZHEIMER'S DISEASE,1,,,,,,PRIMARY DIAGNOSIS,2011-12-09,2011-12-09,2012-10-31,2012-10-31,-646,-319,Y,Y,Y,Y,Y,Y,,,1,SCREENING 1,-7,2013-08-17,-29,,BEFORE,,SCREENING,BEFORE,,2013-08-17,-29,,,,,,,,,,,,,,,,Past,Y,Y,Y
189,CDISCPILOT01,01-713-1073,1073,713,USA,MH,2014-03-30,2014-10-05,2014-03-30,2014-10-05,2014-10-05T10:30,,,,,,,,,,,,NA,2014-03-15,-15,74,YEARS,>64,F,BLACK OR AFRICAN AMERICAN,Non-white,NOT HISPANIC OR LATINO,Y,Xanomeline Low Dose,Xan_Lo,Xanomeline Low Dose,Xan_Lo,Xanomeline Low Dose,Xanomeline Low Dose,Xanomeline Low Dose,Xanomeline Low Dose,2014-03-30,2014-03-30T00:00:00Z,H,2014-10-05,2014-10-05T23:59:59Z,H,Screening,1,COMPLETED,2014-10-05,,2014-03-30,2014-10-05,190,,,,,3,ALZHEIMER'S DISEASE,1,,,,,,PRIMARY DIAGNOSIS,2013-02-19,2013-02-19,2013-12-03,2013-12-03,-404,-117,Y,Y,Y,Y,Y,Y,,,1,SCREENING 1,-7,2014-03-15,-15,,BEFORE,,SCREENING,BEFORE,,2014-03-15,-15,,,,,,,,,,,,,,,,Past,Y,Y,Y
190,CDISCPILOT01,01-713-1106,1106,713,USA,MH,2012-10-31,2013-05-06,2012-10-31,2013-05-06,2013-05-06T11:25,,,,,,,,,,,,NA,2012-10-03,-28,74,YEARS,>64,M,WHITE,White,NOT HISPANIC OR LATINO,Y,Xanomeline High Dose,Xan_Hi,Xanomeline High Dose,Xan_Hi,Xanomeline High Dose,Xanomeline High Dose,Xanomeline High Dose,Xanomeline High Dose,2012-10-31,2012-10-31T00:00:00Z,H,2013-05-06,2013-05-06T23:59:59Z,H,Screening,1,COMPLETED,2013-05-06,,2012-10-31,2013-05-06,188,,,,,1,ALZHEIMER'S DISEASE,1,,,,,,PRIMARY DIAGNOSIS,2010-01-16,2010-01-16,2010-12-07,2010-12-07,-1019,-694,Y,Y,Y,Y,Y,Y,,,1,SCREENING 1,-7,2012-10-03,-28,,BEFORE,,SCREENING,BEFORE,,2012-10-03,-28,,,,,,,,,,,,,,,,Past,Y,Y,Y
191,CDISCPILOT01,01-713-1141,1141,713,USA,MH,2013-05-31,2013-08-06,2013-05-31,2013-07-01,2013-08-06T12:00,,,,,,,,,,,,NA,2013-05-23,-8,79,YEARS,>64,M,WHITE,White,NOT HISPANIC OR LATINO,Y,Xanomeline High Dose,Xan_Hi,Xanomeline High Dose,Xan_Hi,Xanomeline High Dose,Xanomeline High Dose,Xanomeline High Dose,Xanomeline High Dose,2013-05-31,2013-05-31T00:00:00Z,H,2013-07-01,2013-07-01T23:59:59Z,H,Screening,1,DISCONTINUED,2013-08-06,,2013-05-31,2013-08-06,32,,,,,3,ALZHEIMER'S DISEASE,1,,,,,,PRIMARY DIAGNOSIS,2006-11-24,2006-11-24,2007-12-12,2007-12-12,-2380,-1997,Y,Y,Y,Y,Y,Y,,,1,SCREENING 1,-7,2013-05-23,-8,,BEFORE,,SCREENING,BEFORE,,2013-05-23,-8,,,,,,,,,,,,,,,,Past,Y,Y,Y
192,CDISCPILOT01,01-713-1179,1179,713,USA,MH,2013-08-09,2014-02-05,2013-08-09,2014-02-05,2014-02-05T15:15,,,,,,,,,,,,NA,2013-07-11,-29,64,YEARS,18-64,F,WHITE,White,NOT HISPANIC OR LATINO,Y,Placebo,Pbo,Placebo,Pbo,Placebo,Placebo,Placebo,Placebo,2013-08-09,2013-08-09T00:00:00Z,H,2014-02-05,2014-02-05T23:59:59Z,H,Screening,1,COMPLETED,2014-02-05,,2013-08-09,2014-02-05,181,,,,,1,ALZHEIMER'S DISEASE,1,,,,,,PRIMARY DIAGNOSIS,2011-05-04,2011-05-04,2012-01-06,2012-01-06,-828,-581,Y,Y,Y,Y,Y,Y,,,1,SCREENING 1,-7,2013-07-11,-29,,BEFORE,,SCREENING,BEFORE,,2013-07-11,-29,,,,,,,,,,,,,,,,Past,Y,Y,Y
193,CDISCPILOT01,01-713-1209,1209,713,USA,MH,2013-05-27,2013-11-22,2013-05-27,2013-11-22,2013-11-22T10:05,,,,,,,,,,,,NA,2013-05-16,-11,77,YEARS,>64,F,WHITE,White,NOT HISPANIC OR LATINO,Y,Xanomeline High Dose,Xan_Hi,Xanomeline High Dose,Xan_Hi,Xanomeline High Dose,Xanomeline High Dose,Xanomeline High Dose,Xanomeline High Dose,2013-05-27,2013-05-27T00:00:00Z,H,2013-11-22,2013-11-22T23:59:59Z,H,Screening,1,COMPLETED,2013-11-22,,2013-05-27,2013-11-22,180,,,,,5,ALZHEIMER'S DISEASE,1,,,,,,PRIMARY DIAGNOSIS,2010-07-14,2010-07-14,2011-03-19,2011-03-19,-1048,-800,Y,Y,Y,Y,Y,Y,,,1,SCREENING 1,-7,2013-05-16,-11,,BEFORE,,SCREENING,BEFORE,,2013-05-16,-11,,,,,,,,,,,,,,,,Past,Y,Y,Y
194,CDISCPILOT01,01-713-1256,1256,713,USA,MH,2012-09-19,2013-03-25,2012-09-19,2013-03-25,2013-03-25T10:30,,,,,,,,,,,,NA,2012-09-10,-9,71,YEARS,>64,M,WHITE,White,NOT HISPANIC OR LATINO,Y,Placebo,Pbo,Placebo,Pbo,Placebo,Placebo,Placebo,Placebo,2012-09-19,2012-09-19T00:00:00Z,H,2013-03-25,2013-03-25T23:59:59Z,H,Screening,1,COMPLETED,2013-03-25,,2012-09-19,2013-03-25,188,,,,,3,ALZHEIMER'S DISEASE,1,,,,,,PRIMARY DIAGNOSIS,2009-02-08,2009-02-08,2009-08-19,2009-08-19,-1319,-1127,Y,Y,Y,Y,Y,Y,,,1,SCREENING 1,-7,2012-09-10,-9,,BEFORE,,SCREENING,BEFORE,,2012-09-10,-9,,,,,,,,,,,,,,,,Past,Y,Y,Y
195,CDISCPILOT01,01-713-1269,1269,713,USA,MH,2014-01-27,2014-07-28,2014-01-27,2014-07-28,2014-07-28T14:00,,,,,,,,,,,,NA,2014-01-14,-13,73,YEARS,>64,M,WHITE,White,NOT HISPANIC OR LATINO,Y,Placebo,Pbo,Placebo,Pbo,Placebo,Placebo,Placebo,Placebo,2014-01-27,2014-01-27T00:00:00Z,H,2014-07-28,2014-07-28T23:59:59Z,H,Screening,1,COMPLETED,2014-07-28,,2014-01-27,2014-07-28,183,,,,,1,ALZHEIMER'S DISEASE,1,,,,,,PRIMARY DIAGNOSIS,2012-03-21,2012-03-21,2013-01-31,2013-01-31,-677,-361,Y,Y,Y,Y,Y,Y,,,1,SCREENING 1,-7,2014-01-14,-13,,BEFORE,,SCREENING,BEFORE,,2014-01-14,-13,,,,,,,,,,,,,,,,Past,Y,Y,Y
196,CDISCPILOT01,01-713-1448,1448,713,USA,MH,2014-01-19,2014-05-17,2014-01-19,2014-05-16,2014-07-27,,2014-07-27,,,,,,,,,,NA,2014-01-05,-14,71,YEARS,>64,F,WHITE,White,NOT HISPANIC OR LATINO,Y,Xanomeline Low Dose,Xan_Lo,Xanomeline Low Dose,Xan_Lo,Xanomeline Low Dose,Xanomeline Low Dose,Xanomeline Low Dose,Xanomeline Low Dose,2014-01-19,2014-01-19T00:00:00Z,H,2014-05-16,2014-05-16T23:59:59Z,H,Screening,1,DISCONTINUED,2014-05-17,,2014-01-19,2014-05-23,118,,,,,4,ALZHEIMER'S DISEASE,1,,,,,,PRIMARY DIAGNOSIS,2008-04-09,2008-04-09,2009-03-01,2009-03-01,-2111,-1785,Y,Y,Y,Y,Y,Y,,,1,SCREENING 1,-7,2014-01-05,-14,,BEFORE,,SCREENING,BEFORE,,2014-01-05,-14,,,,,,,,,,,,,,,,Past,,Y,Y
197,CDISCPILOT01,01-714-1035,1035,714,USA,MH,2014-04-17,2014-10-16,2014-04-17,2014-10-16,2014-10-16T12:00,,,,,,,,,,,,NA,2014-04-03,-14,88,YEARS,>64,F,WHITE,White,NOT HISPANIC OR LATINO,Y,Placebo,Pbo,Placebo,Pbo,Placebo,Placebo,Placebo,Placebo,2014-04-17,2014-04-17T00:00:00Z,H,2014-10-16,2014-10-16T23:59:59Z,H,Screening,1,COMPLETED,2014-10-16,,2014-04-17,2014-10-16,183,,,,,5,ALZHEIMER'S DISEASE,1,,,,,,PRIMARY DIAGNOSIS,2011-04-02,2011-04-02,2011-05-13,2011-05-13,-1111,-1070,Y,Y,Y,Y,Y,Y,,,1,SCREENING 1,-7,2014-04-03,-14,,BEFORE,,SCREENING,BEFORE,,2014-04-03,-14,,,,,,,,,,,,,,,,Past,Y,Y,Y
198,CDISCPILOT01,01-714-1068,1068,714,USA,MH,2013-08-08,2013-10-16,2013-08-08,2013-10-08,2013-10-23,,,,,,,,,,,,NA,2013-07-31,-8,79,YEARS,>64,F,WHITE,White,NOT HISPANIC OR LATINO,Y,Xanomeline Low Dose,Xan_Lo,Xanomeline Low Dose,Xan_Lo,Xanomeline Low Dose,Xanomeline Low Dose,Xanomeline Low Dose,Xanomeline Low Dose,2013-08-08,2013-08-08T00:00:00Z,H,2013-10-08,2013-10-08T23:59:59Z,H,Screening,1,DISCONTINUED,2013-10-16,,2013-08-08,2013-10-16,62,,,,,8,ALZHEIMER'S DISEASE,1,,,,,,PRIMARY DIAGNOSIS,2012-07-24,2012-07-24,2013-03-31,2013-03-31,-380,-130,Y,Y,Y,Y,Y,Y,,,1,SCREENING 1,-7,2013-07-31,-8,,BEFORE,,SCREENING,BEFORE,,2013-07-31,-8,,,,,,,,,,,,,,,,Past,Y,Y,Y
199,CDISCPILOT01,01-714-1195,1195,714,USA,MH,2013-04-26,2013-10-23,2013-04-26,2013-10-23,2013-10-23T10:55,,,,,,,,,,,,NA,2013-04-16,-10,75,YEARS,>64,M,WHITE,White,NOT HISPANIC OR LATINO,Y,Xanomeline Low Dose,Xan_Lo,Xanomeline Low Dose,Xan_Lo,Xanomeline Low Dose,Xanomeline Low Dose,Xanomeline Low Dose,Xanomeline Low Dose,2013-04-26,2013-04-26T00:00:00Z,H,2013-10-23,2013-10-23T23:59:59Z,H,Screening,1,COMPLETED,2013-10-23,,2013-04-26,2013-10-23,181,,,,,6,ALZHEIMER'S DISEASE,1,,,,,,PRIMARY DIAGNOSIS,2011-04-30,2011-04-30,2012-04-16,2012-04-16,-727,-375,Y,Y,Y,Y,Y,Y,,,1,SCREENING 1,-7,2013-04-16,-10,,BEFORE,,SCREENING,BEFORE,,2013-04-16,-10,,,,,,,,,,,,,,,,Past,Y,Y,Y
200,CDISCPILOT01,01-714-1288,1288,714,USA,MH,2013-12-04,2014-06-17,2013-12-04,2014-06-17,2014-06-17T13:00,,,,,,,,,,,,NA,2013-11-24,-10,77,YEARS,>64,M,BLACK OR AFRICAN AMERICAN,Non-white,NOT HISPANIC OR LATINO,Y,Xanomeline High Dose,Xan_Hi,Xanomeline High Dose,Xan_Hi,Xanomeline High Dose,Xanomeline High Dose,Xanomeline High Dose,Xanomeline High Dose,2013-12-04,2013-12-04T00:00:00Z,H,2014-06-17,2014-06-17T23:59:59Z,H,Screening,1,COMPLETED,2014-06-17,,2013-12-04,2014-06-17,196,,,,,11,ALZHEIMER'S DISEASE,1,,,,,,PRIMARY DIAGNOSIS,2009-11-11,2009-11-11,2010-03-15,2010-03-15,-1484,-1360,Y,Y,Y,Y,Y,Y,,,1,SCREENING 1,-7,2013-11-24,-10,,BEFORE,,SCREENING,BEFORE,,2013-11-24,-10,,,,,,,,,,,,,,,,Past,Y,Y,Y
201,CDISCPILOT01,01-714-1375,1375,714,USA,MH,2013-02-26,2013-09-07,2013-02-26,2013-09-07,2013-09-07T13:58,,,,,,,,,,,,NA,2013-02-23,-3,78,YEARS,>64,F,WHITE,White,NOT HISPANIC OR LATINO,Y,Placebo,Pbo,Placebo,Pbo,Placebo,Placebo,Placebo,Placebo,2013-02-26,2013-02-26T00:00:00Z,H,2013-09-07,2013-09-07T23:59:59Z,H,Screening,1,COMPLETED,2013-09-07,,2013-02-26,2013-09-07,194,,,,,8,ALZHEIMER'S DISEASE,1,,,,,,PRIMARY DIAGNOSIS,2008-02-10,2008-02-10,2008-02-19,2008-02-19,-1843,-1834,Y,Y,Y,Y,Y,Y,,,1,SCREENING 1,-7,2013-02-23,-3,,BEFORE,,SCREENING,BEFORE,,2013-02-23,-3,,,,,,,,,,,,,,,,Past,Y,Y,Y
202,CDISCPILOT01,01-714-1425,1425,714,USA,MH,2013-08-15,2013-08-22,2013-08-15,2013-08-19,2013-08-22T14:55,,,,,,,,,,,,NA,2013-08-11,-4,81,YEARS,>64,M,WHITE,White,NOT HISPANIC OR LATINO,Y,Xanomeline High Dose,Xan_Hi,Xanomeline Low Dose,Xan_Lo,Xanomeline High Dose,Xanomeline Low Dose,Xanomeline High Dose,Xanomeline Low Dose,2013-08-15,2013-08-15T00:00:00Z,H,2013-08-19,2013-08-19T23:59:59Z,H,Screening,1,DISCONTINUED,2013-08-22,,2013-08-15,2013-08-22,5,,,,,9,ALZHEIMER'S DISEASE,1,,,,,,PRIMARY DIAGNOSIS,2010-07-30,2010-07-30,2010-11-24,2010-11-24,-1112,-995,Y,Y,Y,,Y,Y,,,1,SCREENING 1,-7,2013-08-11,-4,,BEFORE,,SCREENING,BEFORE,,2013-08-11,-4,,,,,,,,,,,,,,,,Past,,Y,Y
203,CDISCPILOT01,01-715-1085,1085,715,USA,MH,2013-02-16,2013-08-18,2013-02-16,2013-08-18,2013-08-18T10:22,,,,,,,,,,,,NA,2013-02-03,-13,77,YEARS,>64,F,WHITE,White,NOT HISPANIC OR LATINO,Y,Xanomeline Low Dose,Xan_Lo,Xanomeline Low Dose,Xan_Lo,Xanomeline Low Dose,Xanomeline Low Dose,Xanomeline Low Dose,Xanomeline Low Dose,2013-02-16,2013-02-16T00:00:00Z,H,2013-08-18,2013-08-18T23:59:59Z,H,Screening,1,COMPLETED,2013-08-18,,2013-02-16,2013-08-18,184,,,,,1,ALZHEIMER'S DISEASE,1,,,,,,PRIMARY DIAGNOSIS,2010-08-02,2010-08-02,2011-02-09,2011-02-09,-929,-738,Y,Y,Y,Y,Y,Y,,,1,SCREENING 1,-7,2013-02-03,-13,,BEFORE,,SCREENING,BEFORE,,2013-02-03,-13,,,,,,,,,,,,,,,,Past,Y,Y,Y
204,CDISCPILOT01,01-715-1107,1107,715,USA,MH,2013-02-26,2013-05-13,2013-02-26,2013-05-07,2013-08-14T09:52,,2013-08-14,,,,,,,,,,NA,2013-02-12,-14,65,YEARS,>64,M,WHITE,White,NOT HISPANIC OR LATINO,Y,Xanomeline Low Dose,Xan_Lo,Xanomeline Low Dose,Xan_Lo,Xanomeline Low Dose,Xanomeline Low Dose,Xanomeline Low Dose,Xanomeline Low Dose,2013-02-26,2013-02-26T00:00:00Z,H,2013-05-07,2013-05-07T23:59:59Z,H,Screening,1,DISCONTINUED,2013-05-13,,2013-02-26,2013-08-14,71,,,,,1,ALZHEIMER'S DISEASE,1,,,,,,PRIMARY DIAGNOSIS,2011-09-22,2011-09-22,2012-08-13,2012-08-13,-523,-197,Y,Y,Y,Y,Y,Y,,,1,SCREENING 1,-7,2013-02-12,-14,,BEFORE,,SCREENING,BEFORE,,2013-02-12,-14,,,,,,,,,,,,,,,,Past,Y,Y,Y
205,CDISCPILOT01,01-715-1155,1155,715,USA,MH,2013-12-13,2014-04-26,2013-12-13,2014-01-25,2014-04-26,,,,,,,,,,,,NA,2013-11-29,-14,59,YEARS,18-64,F,WHITE,White,NOT HISPANIC OR LATINO,Y,Placebo,Pbo,Placebo,Pbo,Placebo,Placebo,Placebo,Placebo,2013-12-13,2013-12-13T00:00:00Z,H,2014-01-25,2014-01-25T23:59:59Z,H,Screening,1,DISCONTINUED,2014-04-26,,2013-12-13,2014-01-25,44,,,,,1,ALZHEIMER'S DISEASE,1,,,,,,PRIMARY DIAGNOSIS,2010-12-09,2010-12-09,2011-10-11,2011-10-11,-1100,-794,Y,Y,Y,Y,Y,Y,,,1,SCREENING 1,-7,2013-11-29,-14,,BEFORE,,SCREENING,BEFORE,,2013-11-29,-14,,,,,,,,,,,,,,,,Past,Y,Y,Y
206,CDISCPILOT01,01-715-1207,1207,715,USA,MH,2012-11-18,2013-06-01,2012-11-18,2013-05-27,2013-06-01T09:30,,,,,,,,,,,,NA,2012-11-12,-6,78,YEARS,>64,F,WHITE,White,NOT HISPANIC OR LATINO,Y,Placebo,Pbo,Placebo,Pbo,Placebo,Placebo,Placebo,Placebo,2012-11-18,2012-11-18T00:00:00Z,H,2013-05-27,2013-05-27T23:59:59Z,H,Screening,1,COMPLETED,2013-06-01,,2012-11-18,2013-06-01,191,,,,,1,ALZHEIMER'S DISEASE,1,,,,,,PRIMARY DIAGNOSIS,2010-04-06,2010-04-06,2010-11-19,2010-11-19,-957,-730,Y,Y,Y,Y,Y,Y,,,1,SCREENING 1,-7,2012-11-12,-6,,BEFORE,,SCREENING,BEFORE,,2012-11-12,-6,,,,,,,,,,,,,,,,Past,Y,Y,Y
207,CDISCPILOT01,01-715-1319,1319,715,USA,MH,2013-02-17,2013-03-18,2013-02-17,2013-03-05,2013-03-18T10:28,,,,,,,,,,,,NA,2013-02-03,-14,65,YEARS,>64,M,WHITE,White,NOT HISPANIC OR LATINO,Y,Xanomeline High Dose,Xan_Hi,Xanomeline High Dose,Xan_Hi,Xanomeline High Dose,Xanomeline High Dose,Xanomeline High Dose,Xanomeline High Dose,2013-02-17,2013-02-17T00:00:00Z,H,2013-03-05,2013-03-05T23:59:59Z,H,Screening,1,DISCONTINUED,2013-03-18,,2013-02-17,2013-03-18,17,,,,,4,ALZHEIMER'S DISEASE,1,,,,,,PRIMARY DIAGNOSIS,2007-08-12,2007-08-12,2008-07-24,2008-07-24,-2016,-1669,Y,Y,Y,,Y,Y,,,1,SCREENING 1,-7,2013-02-03,-14,,BEFORE,,SCREENING,BEFORE,,2013-02-03,-14,,,,,,,,,,,,,,,,Past,,Y,Y
208,CDISCPILOT01,01-715-1321,1321,715,USA,MH,2014-02-11,2014-04-22,2014-02-11,2014-04-21,2014-04-22T11:12,,,,,,,,,,,,NA,2014-02-06,-5,75,YEARS,>64,F,WHITE,White,NOT HISPANIC OR LATINO,Y,Xanomeline High Dose,Xan_Hi,Xanomeline High Dose,Xan_Hi,Xanomeline High Dose,Xanomeline High Dose,Xanomeline High Dose,Xanomeline High Dose,2014-02-11,2014-02-11T00:00:00Z,H,2014-04-21,2014-04-21T23:59:59Z,H,Screening,1,DISCONTINUED,2014-04-22,,2014-02-11,2014-04-22,70,,,,,2,ALZHEIMER'S DISEASE,1,,,,,,PRIMARY DIAGNOSIS,2010-11-30,2010-11-30,2011-02-20,2011-02-20,-1169,-1087,Y,Y,Y,Y,Y,Y,,,1,SCREENING 1,-7,2014-02-06,-5,,BEFORE,,SCREENING,BEFORE,,2014-02-06,-5,,,,,,,,,,,,,,,,Past,Y,Y,Y
209,CDISCPILOT01,01-715-1397,1397,715,USA,MH,2013-04-03,2013-10-03,2013-04-03,2013-10-02,2013-10-03T10:50,,,,,,,,,,,,NA,2013-03-20,-14,76,YEARS,>64,F,WHITE,White,NOT HISPANIC OR LATINO,Y,Placebo,Pbo,Placebo,Pbo,Placebo,Placebo,Placebo,Placebo,2013-04-03,2013-04-03T00:00:00Z,H,2013-10-02,2013-10-02T23:59:59Z,H,Screening,1,COMPLETED,2013-10-03,,2013-04-03,2013-10-03,183,,,,,6,ALZHEIMER'S DISEASE,1,,,,,,PRIMARY DIAGNOSIS,2012-05-16,2012-05-16,2013-01-29,2013-01-29,-322,-64,Y,Y,Y,Y,Y,Y,,,1,SCREENING 1,-7,2013-03-20,-14,,BEFORE,,SCREENING,BEFORE,,2013-03-20,-14,,,,,,,,,,,,,,,,Past,Y,Y,Y
210,CDISCPILOT01,01-715-1405,1405,715,USA,MH,2013-07-06,2013-07-13,2013-07-06,2013-07-07,2014-01-11,,2014-01-11,,,,,,,,,,NA,2013-06-27,-9,69,YEARS,>64,M,WHITE,White,NOT HISPANIC OR LATINO,Y,Xanomeline Low Dose,Xan_Lo,Xanomeline Low Dose,Xan_Lo,Xanomeline Low Dose,Xanomeline Low Dose,Xanomeline Low Dose,Xanomeline Low Dose,2013-07-06,2013-07-06T00:00:00Z,H,2013-07-07,2013-07-07T23:59:59Z,H,Screening,1,DISCONTINUED,2013-07-13,,2013-07-06,2013-07-13,2,,,,,1,ALZHEIMER'S DISEASE,1,,,,,,PRIMARY DIAGNOSIS,2004-02-21,2004-02-21,2004-05-26,2004-05-26,-3423,-3328,Y,Y,Y,Y,Y,Y,,,1,SCREENING 1,-7,2013-06-27,-9,,BEFORE,,SCREENING,BEFORE,,2013-06-27,-9,,,,,,,,,,,,,,,,Past,Y,Y,Y
211,CDISCPILOT01,01-716-1024,1024,716,USA,MH,2012-07-09,2013-01-20,2012-07-09,2013-01-20,2013-01-20T11:10,,,,,,,,,,,,NA,2012-07-06,-3,87,YEARS,>64,F,WHITE,White,NOT HISPANIC OR LATINO,Y,Placebo,Pbo,Placebo,Pbo,Placebo,Placebo,Placebo,Placebo,2012-07-09,2012-07-09T00:00:00Z,H,2013-01-20,2013-01-20T23:59:59Z,H,Screening,1,COMPLETED,2013-01-20,,2012-07-09,2013-01-20,196,,,,,14,ALZHEIMER'S DISEASE,1,,,,,,PRIMARY DIAGNOSIS,2011-12-01,2011-12-01,2012-09-15,2012-09-15,-221,69,Y,Y,Y,Y,Y,Y,,,1,SCREENING 1,-7,2012-07-06,-3,,ONGOING,,SCREENING,DURING,,2012-07-06,-3,,,,,,,,,,,,,,,,Current,Y,Y,Y
212,CDISCPILOT01,01-716-1026,1026,716,USA,MH,2014-04-02,2014-10-16,2014-04-02,2014-10-16,2014-10-16T13:35,,,,,,,,,,,,NA,2014-03-23,-10,73,YEARS,>64,F,WHITE,White,NOT HISPANIC OR LATINO,Y,Placebo,Pbo,Placebo,Pbo,Placebo,Placebo,Placebo,Placebo,2014-04-02,2014-04-02T00:00:00Z,H,2014-10-16,2014-10-16T23:59:59Z,H,Screening,1,COMPLETED,2014-10-16,,2014-04-02,2014-10-16,198,,,,,5,ALZHEIMER'S DISEASE,1,,,,,,PRIMARY DIAGNOSIS,2010-09-02,2010-09-02,2011-01-18,2011-01-18,-1308,-1170,Y,Y,Y,Y,Y,Y,,,1,SCREENING 1,-7,2014-03-23,-10,,BEFORE,,SCREENING,BEFORE,,2014-03-23,-10,,,,,,,,,,,,,,,,Past,Y,Y,Y
213,CDISCPILOT01,01-716-1030,1030,716,USA,MH,2013-12-28,2014-01-10,2013-12-28,2014-01-02,2014-01-10T12:30,,,,,,,,,,,,NA,2013-12-25,-3,83,YEARS,>64,F,WHITE,White,NOT HISPANIC OR LATINO,Y,Xanomeline High Dose,Xan_Hi,Xanomeline Low Dose,Xan_Lo,Xanomeline High Dose,Xanomeline Low Dose,Xanomeline High Dose,Xanomeline Low Dose,2013-12-28,2013-12-28T00:00:00Z,H,2014-01-02,2014-01-02T23:59:59Z,H,Screening,1,DISCONTINUED,2014-01-10,,2013-12-28,2014-01-10,6,,,,,10,ALZHEIMER'S DISEASE,1,,,,,,PRIMARY DIAGNOSIS,2011-09-06,2011-09-06,2012-09-12,2012-09-12,-844,-472,Y,Y,Y,Y,Y,Y,,,1,SCREENING 1,-7,2013-12-25,-3,,BEFORE,,SCREENING,BEFORE,,2013-12-25,-3,,,,,,,,,,,,,,,,Past,Y,Y,Y
214,CDISCPILOT01,01-716-1044,1044,716,USA,MH,2013-04-27,2013-11-03,2013-04-27,2013-11-03,2013-11-03T13:10,,,,,,,,,,,,NA,2013-04-20,-7,74,YEARS,>64,M,WHITE,White,NOT HISPANIC OR LATINO,Y,Placebo,Pbo,Placebo,Pbo,Placebo,Placebo,Placebo,Placebo,2013-04-27,2013-04-27T00:00:00Z,H,2013-11-03,2013-11-03T23:59:59Z,H,Screening,1,COMPLETED,2013-11-03,,2013-04-27,2013-11-03,191,,,,,5,ALZHEIMER'S DISEASE,1,,,,,,PRIMARY DIAGNOSIS,2011-03-21,2011-03-21,2012-03-15,2012-03-15,-768,-408,Y,Y,Y,Y,Y,Y,,,1,SCREENING 1,-7,2013-04-20,-7,,BEFORE,,SCREENING,BEFORE,,2013-04-20,-7,,,,,,,,,,,,,,,,Past,Y,Y,Y
215,CDISCPILOT01,01-716-1063,1063,716,USA,MH,2013-05-09,2013-08-28,2013-05-09,2013-08-25,2013-11-17,,2013-11-17,,,,,,,,,,NA,2013-05-06,-3,80,YEARS,>64,M,WHITE,White,NOT HISPANIC OR LATINO,Y,Xanomeline Low Dose,Xan_Lo,Xanomeline Low Dose,Xan_Lo,Xanomeline Low Dose,Xanomeline Low Dose,Xanomeline Low Dose,Xanomeline Low Dose,2013-05-09,2013-05-09T00:00:00Z,H,2013-08-25,2013-08-25T23:59:59Z,H,Screening,1,DISCONTINUED,2013-08-28,,2013-05-09,2013-08-28,109,,,,,10,ALZHEIMER'S DISEASE,1,,,,,,PRIMARY DIAGNOSIS,2003-04-01,2003-04-01,2004-01-02,2004-01-02,-3691,-3415,Y,Y,Y,Y,Y,Y,,,1,SCREENING 1,-7,2013-05-06,-3,,BEFORE,,SCREENING,BEFORE,,2013-05-06,-3,,,,,,,,,,,,,,,,Past,Y,Y,Y
216,CDISCPILOT01,01-716-1071,1071,716,USA,MH,2013-06-08,2013-08-01,2013-06-08,2013-08-01,2013-12-16,,2013-12-16,,,,,,,,,,NA,2013-06-03,-5,78,YEARS,>64,F,WHITE,White,NOT HISPANIC OR LATINO,Y,Xanomeline High Dose,Xan_Hi,Xanomeline High Dose,Xan_Hi,Xanomeline High Dose,Xanomeline High Dose,Xanomeline High Dose,Xanomeline High Dose,2013-06-08,2013-06-08T00:00:00Z,H,2013-08-01,2013-08-01T23:59:59Z,H,Screening,1,DISCONTINUED,2013-08-01,,2013-06-08,2013-08-01,55,,,,,9,ALZHEIMER'S DISEASE,1,,,,,,PRIMARY DIAGNOSIS,2010-12-01,2010-12-01,2011-02-05,2011-02-05,-920,-854,Y,Y,Y,Y,Y,Y,,,1,SCREENING 1,-7,2013-06-03,-5,,BEFORE,,SCREENING,BEFORE,,2013-06-03,-5,,,,,,,,,,,,,,,,Past,Y,Y,Y
217,CDISCPILOT01,01-716-1094,1094,716,USA,MH,2012-12-19,2013-01-26,2012-12-19,2013-01-24,2013-06-22,,2013-06-22,,,,,,,,,,NA,2012-12-16,-3,82,YEARS,>64,M,WHITE,White,NOT HISPANIC OR LATINO,Y,Xanomeline Low Dose,Xan_Lo,Xanomeline Low Dose,Xan_Lo,Xanomeline Low Dose,Xanomeline Low Dose,Xanomeline Low Dose,Xanomeline Low Dose,2012-12-19,2012-12-19T00:00:00Z,H,2013-01-24,2013-01-24T23:59:59Z,H,Screening,1,DISCONTINUED,2013-01-26,,2012-12-19,2013-01-26,37,,,,,11,ALZHEIMER'S DISEASE,1,,,,,,PRIMARY DIAGNOSIS,2007-12-28,2007-12-28,2008-04-19,2008-04-19,-1818,-1705,Y,Y,Y,Y,Y,Y,,,1,SCREENING 1,-7,2012-12-16,-3,,BEFORE,,SCREENING,BEFORE,,2012-12-16,-3,,,,,,,,,,,,,,,,Past,Y,Y,Y
218,CDISCPILOT01,01-716-1103,1103,716,USA,MH,2014-03-20,2014-09-20,2014-03-20,2014-09-20,2014-09-20T12:10,,,,,,,,,,,,NA,2014-03-18,-2,79,YEARS,>64,M,WHITE,White,NOT HISPANIC OR LATINO,Y,Xanomeline Low Dose,Xan_Lo,Xanomeline Low Dose,Xan_Lo,Xanomeline Low Dose,Xanomeline Low Dose,Xanomeline Low Dose,Xanomeline Low Dose,2014-03-20,2014-03-20T00:00:00Z,H,2014-09-20,2014-09-20T23:59:59Z,H,Screening,1,COMPLETED,2014-09-20,,2014-03-20,2014-09-20,185,,,,,8,ALZHEIMER'S DISEASE,1,,,,,,PRIMARY DIAGNOSIS,2011-07-07,2011-07-07,2012-06-19,2012-06-19,-987,-639,Y,Y,Y,Y,Y,Y,,,1,SCREENING 1,-7,2014-03-18,-2,,BEFORE,,SCREENING,BEFORE,,2014-03-18,-2,,,,,,,,,,,,,,,,Past,Y,Y,Y
219,CDISCPILOT01,01-716-1108,1108,716,USA,MH,2013-02-12,2013-08-10,2013-02-12,2013-08-10,2013-08-10T09:55,,,,,,,,,,,,NA,2013-02-04,-8,86,YEARS,>64,F,WHITE,White,NOT HISPANIC OR LATINO,Y,Placebo,Pbo,Placebo,Pbo,Placebo,Placebo,Placebo,Placebo,2013-02-12,2013-02-12T00:00:00Z,H,2013-08-10,2013-08-10T23:59:59Z,H,Screening,1,COMPLETED,2013-08-10,,2013-02-12,2013-08-10,180,,,,,6,ALZHEIMER'S DISEASE,1,,,,,,PRIMARY DIAGNOSIS,2012-02-14,2012-02-14,2012-11-14,2012-11-14,-364,-90,Y,Y,Y,Y,Y,Y,,,1,SCREENING 1,-7,2013-02-04,-8,,BEFORE,,SCREENING,BEFORE,,2013-02-04,-8,,,,,,,,,,,,,,,,Past,Y,Y,Y
220,CDISCPILOT01,01-716-1151,1151,716,USA,MH,2013-02-01,2013-06-07,2013-02-01,2013-05-11,2013-08-13,,2013-08-13,,,,,,,,,,NA,2013-01-23,-9,83,YEARS,>64,F,WHITE,White,NOT HISPANIC OR LATINO,Y,Xanomeline Low Dose,Xan_Lo,Xanomeline Low Dose,Xan_Lo,Xanomeline Low Dose,Xanomeline Low Dose,Xanomeline Low Dose,Xanomeline Low Dose,2013-02-01,2013-02-01T00:00:00Z,H,2013-05-11,2013-05-11T23:59:59Z,H,Screening,1,DISCONTINUED,2013-06-07,,2013-02-01,2013-06-07,100,,,,,5,ALZHEIMER'S DISEASE,1,,,,,,PRIMARY DIAGNOSIS,2010-03-17,2010-03-17,2010-05-08,2010-05-08,-1052,-1000,Y,Y,Y,Y,Y,Y,,,1,SCREENING 1,-7,2013-01-23,-9,,BEFORE,,SCREENING,BEFORE,,2013-01-23,-9,,,,,,,,,,,,,,,,Past,Y,Y,Y
221,CDISCPILOT01,01-716-1157,1157,716,USA,MH,2013-10-02,2014-04-05,2013-10-02,2014-04-04,2014-04-05T11:10,,,,,,,,,,,,NA,2013-09-23,-9,85,YEARS,>64,M,WHITE,White,NOT HISPANIC OR LATINO,Y,Xanomeline Low Dose,Xan_Lo,Xanomeline Low Dose,Xan_Lo,Xanomeline Low Dose,Xanomeline Low Dose,Xanomeline Low Dose,Xanomeline Low Dose,2013-10-02,2013-10-02T00:00:00Z,H,2014-04-04,2014-04-04T23:59:59Z,H,Screening,1,COMPLETED,2014-04-05,,2013-10-02,2014-04-05,185,,,,,7,ALZHEIMER'S DISEASE,1,,,,,,PRIMARY DIAGNOSIS,2008-04-10,2008-04-10,2009-02-11,2009-02-11,-2001,-1694,Y,Y,Y,Y,Y,Y,,,1,SCREENING 1,-7,2013-09-23,-9,,BEFORE,,SCREENING,BEFORE,,2013-09-23,-9,,,,,,,,,,,,,,,,Past,Y,Y,Y
222,CDISCPILOT01,01-716-1160,1160,716,USA,MH,2013-04-05,2013-10-11,2013-04-05,2013-10-11,2013-10-11T13:30,,,,,,,,,,,,NA,2013-03-23,-13,83,YEARS,>64,F,WHITE,White,NOT HISPANIC OR LATINO,Y,Placebo,Pbo,Placebo,Pbo,Placebo,Placebo,Placebo,Placebo,2013-04-05,2013-04-05T00:00:00Z,H,2013-10-11,2013-10-11T23:59:59Z,H,Screening,1,COMPLETED,2013-10-11,,2013-04-05,2013-10-11,190,,,,,2,ALZHEIMER'S DISEASE,1,,,,,,PRIMARY DIAGNOSIS,2011-06-04,2011-06-04,2011-11-06,2011-11-06,-671,-516,Y,Y,Y,Y,Y,Y,,,1,SCREENING 1,-7,2013-03-23,-13,,BEFORE,,SCREENING,BEFORE,,2013-03-23,-13,,,,,,,,,,,,,,,,Past,Y,Y,Y
223,CDISCPILOT01,01-716-1167,1167,716,USA,MH,2012-10-08,2013-04-13,2012-10-08,2013-04-12,2013-04-13T11:10,,,,,,,,,,,,NA,2012-09-30,-8,68,YEARS,>64,M,WHITE,White,NOT HISPANIC OR LATINO,Y,Xanomeline Low Dose,Xan_Lo,Xanomeline Low Dose,Xan_Lo,Xanomeline Low Dose,Xanomeline Low Dose,Xanomeline Low Dose,Xanomeline Low Dose,2012-10-08,2012-10-08T00:00:00Z,H,2013-04-12,2013-04-12T23:59:59Z,H,Screening,1,COMPLETED,2013-04-13,,2012-10-08,2013-04-13,187,,,,,10,ALZHEIMER'S DISEASE,1,,,,,,PRIMARY DIAGNOSIS,2012-01-04,2012-01-04,2012-09-10,2012-09-10,-278,-28,Y,Y,Y,Y,Y,Y,,,1,SCREENING 1,-7,2012-09-30,-8,,BEFORE,,SCREENING,BEFORE,,2012-09-30,-8,,,,,,,,,,,,,,,,Past,Y,Y,Y
224,CDISCPILOT01,01-716-1177,1177,716,USA,MH,2014-09-02,2015-03-05,2014-09-02,2015-03-05,2015-03-05T14:40,,,,,,,,,,,,NA,2014-08-29,-4,72,YEARS,>64,M,WHITE,White,NOT HISPANIC OR LATINO,Y,Placebo,Pbo,Placebo,Pbo,Placebo,Placebo,Placebo,Placebo,2014-09-02,2014-09-02T00:00:00Z,H,2015-03-05,2015-03-05T23:59:59Z,H,Screening,1,COMPLETED,2015-03-05,,2014-09-02,2015-03-05,185,,,,,6,ALZHEIMER'S DISEASE,1,,,,,,PRIMARY DIAGNOSIS,2013-04-08,2013-04-08,2013-06-05,2013-06-05,-512,-454,Y,Y,Y,Y,Y,Y,,,1,SCREENING 1,-7,2014-08-29,-4,,BEFORE,,SCREENING,BEFORE,,2014-08-29,-4,,,,,,,,,,,,,,,,Past,Y,Y,Y
225,CDISCPILOT01,01-716-1189,1189,716,USA,MH,2012-10-09,2013-03-03,2012-10-09,2013-02-27,2013-04-08,,2013-04-08,,,,,,,,,,NA,2012-10-07,-2,81,YEARS,>64,M,WHITE,White,NOT HISPANIC OR LATINO,Y,Xanomeline High Dose,Xan_Hi,Xanomeline High Dose,Xan_Hi,Xanomeline High Dose,Xanomeline High Dose,Xanomeline High Dose,Xanomeline High Dose,2012-10-09,2012-10-09T00:00:00Z,H,2013-02-27,2013-02-27T23:59:59Z,H,Screening,1,DISCONTINUED,2013-03-03,,2012-10-09,2013-03-03,142,,,,,6,ALZHEIMER'S DISEASE,1,,,,,,PRIMARY DIAGNOSIS,2008-08-19,2008-08-19,2008-12-27,2008-12-27,-1512,-1382,Y,Y,Y,Y,Y,Y,,,1,SCREENING 1,-7,2012-10-07,-2,,BEFORE,,SCREENING,BEFORE,,2012-10-07,-2,,,,,,,,,,,,,,,,Past,Y,Y,Y
226,CDISCPILOT01,01-716-1229,1229,716,USA,MH,2013-02-20,2013-04-02,2013-02-20,2013-03-31,2013-04-02T11:15,,,,,,,,,,,,NA,2013-02-14,-6,73,YEARS,>64,F,WHITE,White,NOT HISPANIC OR LATINO,Y,Xanomeline High Dose,Xan_Hi,Xanomeline High Dose,Xan_Hi,Xanomeline High Dose,Xanomeline High Dose,Xanomeline High Dose,Xanomeline High Dose,2013-02-20,2013-02-20T00:00:00Z,H,2013-03-31,2013-03-31T23:59:59Z,H,Screening,1,DISCONTINUED,2013-04-02,,2013-02-20,2013-04-02,40,,,,,3,ALZHEIMER'S DISEASE,1,,,,,,PRIMARY DIAGNOSIS,2011-08-09,2011-08-09,2011-11-24,2011-11-24,-561,-454,Y,Y,Y,Y,Y,Y,,,1,SCREENING 1,-7,2013-02-14,-6,,BEFORE,,SCREENING,BEFORE,,2013-02-14,-6,,,,,,,,,,,,,,,,Past,Y,Y,Y
227,CDISCPILOT01,01-716-1298,1298,716,USA,MH,2013-04-08,2013-07-06,2013-04-08,2013-06-28,2013-10-07,,2013-10-07,,,,,,,,,,NA,2013-04-04,-4,76,YEARS,>64,F,WHITE,White,NOT HISPANIC OR LATINO,Y,Xanomeline Low Dose,Xan_Lo,Xanomeline Low Dose,Xan_Lo,Xanomeline Low Dose,Xanomeline Low Dose,Xanomeline Low Dose,Xanomeline Low Dose,2013-04-08,2013-04-08T00:00:00Z,H,2013-06-28,2013-06-28T23:59:59Z,H,Screening,1,DISCONTINUED,2013-07-06,,2013-04-08,2013-07-06,82,,,,,10,ALZHEIMER'S DISEASE,1,,,,,,PRIMARY DIAGNOSIS,2008-05-15,2008-05-15,2008-08-17,2008-08-17,-1789,-1695,Y,Y,Y,Y,Y,Y,,,1,SCREENING 1,-7,2013-04-04,-4,,BEFORE,,SCREENING,BEFORE,,2013-04-04,-4,,,,,,,,,,,,,,,,Past,Y,Y,Y
228,CDISCPILOT01,01-716-1308,1308,716,USA,MH,2013-08-28,2013-10-07,2013-08-28,2013-10-07,2013-10-07T15:50,,,,,,,,,,,,NA,2013-08-23,-5,76,YEARS,>64,F,WHITE,White,NOT HISPANIC OR LATINO,Y,Placebo,Pbo,Placebo,Pbo,Placebo,Placebo,Placebo,Placebo,2013-08-28,2013-08-28T00:00:00Z,H,2013-10-07,2013-10-07T23:59:59Z,H,Screening,1,DISCONTINUED,2013-10-07,,2013-08-28,2013-10-07,41,,,,,1,ALZHEIMER'S DISEASE,1,,,,,,PRIMARY DIAGNOSIS,2009-11-17,2009-11-17,2010-03-18,2010-03-18,-1380,-1259,Y,Y,Y,Y,Y,Y,,,1,SCREENING 1,-7,2013-08-23,-5,,BEFORE,,SCREENING,BEFORE,,2013-08-23,-5,,,,,,,,,,,,,,,,Past,Y,Y,Y
229,CDISCPILOT01,01-716-1311,1311,716,USA,MH,2014-05-14,2014-09-30,2014-05-14,2014-09-21,2014-11-15,,2014-11-15,,,,,,,,,,NA,2014-05-08,-6,78,YEARS,>64,M,WHITE,White,NOT HISPANIC OR LATINO,Y,Xanomeline Low Dose,Xan_Lo,Xanomeline Low Dose,Xan_Lo,Xanomeline Low Dose,Xanomeline Low Dose,Xanomeline Low Dose,Xanomeline Low Dose,2014-05-14,2014-05-14T00:00:00Z,H,2014-09-21,2014-09-21T23:59:59Z,H,Screening,1,DISCONTINUED,2014-09-30,,2014-05-14,2014-09-30,131,,,,,2,ALZHEIMER'S DISEASE,1,,,,,,PRIMARY DIAGNOSIS,2003-06-16,2003-06-16,2004-06-04,2004-06-04,-3985,-3631,Y,Y,Y,Y,Y,Y,,,1,SCREENING 1,-7,2014-05-08,-6,,BEFORE,,SCREENING,BEFORE,,2014-05-08,-6,,,,,,,,,,,,,,,,Past,Y,Y,Y
230,CDISCPILOT01,01-716-1364,1364,716,USA,MH,2013-07-04,2014-01-09,2013-07-04,2014-01-09,2014-01-09T15:30,,,,,,,,,,,,NA,2013-06-27,-7,84,YEARS,>64,F,WHITE,White,NOT HISPANIC OR LATINO,Y,Xanomeline High Dose,Xan_Hi,Xanomeline High Dose,Xan_Hi,Xanomeline High Dose,Xanomeline High Dose,Xanomeline High Dose,Xanomeline High Dose,2013-07-04,2013-07-04T00:00:00Z,H,2014-01-09,2014-01-09T23:59:59Z,H,Screening,1,COMPLETED,2014-01-09,,2013-07-04,2014-01-09,190,,,,,10,ALZHEIMER'S DISEASE,1,,,,,,PRIMARY DIAGNOSIS,2010-08-10,2010-08-10,2010-09-08,2010-09-08,-1059,-1030,Y,Y,Y,Y,Y,Y,,,1,SCREENING 1,-7,2013-06-27,-7,,BEFORE,,SCREENING,BEFORE,,2013-06-27,-7,,,,,,,,,,,,,,,,Past,Y,Y,Y
231,CDISCPILOT01,01-716-1373,1373,716,USA,MH,2012-12-14,2013-02-28,2012-12-14,2013-02-27,2013-02-28T10:23,,,,,,,,,,,,NA,2012-11-24,-20,74,YEARS,>64,M,WHITE,White,NOT HISPANIC OR LATINO,Y,Xanomeline High Dose,Xan_Hi,Xanomeline High Dose,Xan_Hi,Xanomeline High Dose,Xanomeline High Dose,Xanomeline High Dose,Xanomeline High Dose,2012-12-14,2012-12-14T00:00:00Z,H,2013-02-27,2013-02-27T23:59:59Z,H,Screening,1,DISCONTINUED,2013-02-28,,2012-12-14,2013-02-28,76,,,,,5,ALZHEIMER'S DISEASE,1,,,,,,PRIMARY DIAGNOSIS,2009-05-21,2009-05-21,2010-02-06,2010-02-06,-1303,-1042,Y,Y,Y,Y,Y,Y,,,1,SCREENING 1,-7,2012-11-24,-20,,BEFORE,,SCREENING,BEFORE,,2012-11-24,-20,,,,,,,,,,,,,,,,Past,Y,Y,Y
232,CDISCPILOT01,01-716-1418,1418,716,USA,MH,2013-05-05,2013-11-20,2013-05-05,2013-11-20,2013-11-20T11:44,,,,,,,,,,,,NA,2013-04-27,-8,80,YEARS,>64,F,WHITE,White,NOT HISPANIC OR LATINO,Y,Xanomeline High Dose,Xan_Hi,Xanomeline High Dose,Xan_Hi,Xanomeline High Dose,Xanomeline High Dose,Xanomeline High Dose,Xanomeline High Dose,2013-05-05,2013-05-05T00:00:00Z,H,2013-11-20,2013-11-20T23:59:59Z,H,Screening,1,COMPLETED,2013-11-20,,2013-05-05,2013-11-20,200,,,,,5,ALZHEIMER'S DISEASE,1,,,,,,PRIMARY DIAGNOSIS,2010-05-02,2010-05-02,2010-07-15,2010-07-15,-1099,-1025,Y,Y,Y,Y,Y,Y,,,1,SCREENING 1,-7,2013-04-27,-8,,BEFORE,,SCREENING,BEFORE,,2013-04-27,-8,,,,,,,,,,,,,,,,Past,Y,Y,Y
233,CDISCPILOT01,01-716-1441,1441,716,USA,MH,2014-01-22,2014-07-22,2014-01-22,2014-07-22,2014-07-22T10:00,,,,,,,,,,,,NA,2014-01-13,-9,85,YEARS,>64,M,WHITE,White,NOT HISPANIC OR LATINO,Y,Placebo,Pbo,Placebo,Pbo,Placebo,Placebo,Placebo,Placebo,2014-01-22,2014-01-22T00:00:00Z,H,2014-07-22,2014-07-22T23:59:59Z,H,Screening,1,COMPLETED,2014-07-22,,2014-01-22,2014-07-22,182,,,,,8,ALZHEIMER'S DISEASE,1,,,,,,PRIMARY DIAGNOSIS,2010-05-25,2010-05-25,2011-06-03,2011-06-03,-1338,-964,Y,Y,Y,,Y,Y,,,1,SCREENING 1,-7,2014-01-13,-9,,BEFORE,,SCREENING,BEFORE,,2014-01-13,-9,,,,,,,,,,,,,,,,Past,,Y,Y
234,CDISCPILOT01,01-716-1447,1447,716,USA,MH,2013-12-16,2014-06-17,2013-12-16,2014-06-17,2014-06-17T12:00,,,,,,,,,,,,NA,2013-12-10,-6,72,YEARS,>64,F,WHITE,White,NOT HISPANIC OR LATINO,Y,Xanomeline High Dose,Xan_Hi,Xanomeline High Dose,Xan_Hi,Xanomeline High Dose,Xanomeline High Dose,Xanomeline High Dose,Xanomeline High Dose,2013-12-16,2013-12-16T00:00:00Z,H,2014-06-17,2014-06-17T23:59:59Z,H,Screening,1,COMPLETED,2014-06-17,,2013-12-16,2014-06-17,184,,,,,8,ALZHEIMER'S DISEASE,1,,,,,,PRIMARY DIAGNOSIS,2010-05-15,2010-05-15,2011-01-07,2011-01-07,-1311,-1074,Y,Y,Y,Y,Y,Y,,,1,SCREENING 1,-7,2013-12-10,-6,,BEFORE,,SCREENING,BEFORE,,2013-12-10,-6,,,,,,,,,,,,,,,,Past,Y,Y,Y
235,CDISCPILOT01,01-717-1004,1004,717,USA,MH,2014-01-14,2014-07-16,2014-01-14,2014-07-16,2014-07-16T13:21,,,,,,,,,,,,NA,2014-01-01,-13,80,YEARS,>64,F,WHITE,White,NOT HISPANIC OR LATINO,Y,Xanomeline Low Dose,Xan_Lo,Xanomeline Low Dose,Xan_Lo,Xanomeline Low Dose,Xanomeline Low Dose,Xanomeline Low Dose,Xanomeline Low Dose,2014-01-14,2014-01-14T00:00:00Z,H,2014-07-16,2014-07-16T23:59:59Z,H,Screening,1,COMPLETED,2014-07-16,,2014-01-14,2014-07-16,184,,,,,11,ALZHEIMER'S DISEASE,1,,,,,,PRIMARY DIAGNOSIS,2010-05-08,2010-05-08,2010-08-16,2010-08-16,-1347,-1247,Y,Y,Y,Y,Y,Y,,,1,SCREENING 1,-7,2014-01-01,-13,,BEFORE,,SCREENING,BEFORE,,2014-01-01,-13,,,,,,,,,,,,,,,,Past,Y,Y,Y
236,CDISCPILOT01,01-717-1109,1109,717,USA,MH,2014-01-27,2014-07-28,2014-01-27,2014-07-28,2014-07-28T10:53,,,,,,,,,,,,NA,2014-01-20,-7,84,YEARS,>64,M,WHITE,White,NOT HISPANIC OR LATINO,Y,Xanomeline High Dose,Xan_Hi,Xanomeline High Dose,Xan_Hi,Xanomeline High Dose,Xanomeline High Dose,Xanomeline High Dose,Xanomeline High Dose,2014-01-27,2014-01-27T00:00:00Z,H,2014-07-28,2014-07-28T23:59:59Z,H,Screening,1,COMPLETED,2014-07-28,,2014-01-27,2014-07-28,183,,,,,7,ALZHEIMER'S DISEASE,1,,,,,,PRIMARY DIAGNOSIS,2012-03-11,2012-03-11,2012-12-03,2012-12-03,-687,-420,Y,Y,Y,,Y,Y,,,1,SCREENING 1,-7,2014-01-20,-7,,BEFORE,,SCREENING,BEFORE,,2014-01-20,-7,,,,,,,,,,,,,,,,Past,,Y,Y
237,CDISCPILOT01,01-717-1174,1174,717,USA,MH,2013-01-22,2013-07-24,2013-01-22,2013-07-24,2013-07-24T15:15,,,,,,,,,,,,NA,2013-01-16,-6,73,YEARS,>64,M,WHITE,White,NOT HISPANIC OR LATINO,Y,Xanomeline High Dose,Xan_Hi,Xanomeline High Dose,Xan_Hi,Xanomeline High Dose,Xanomeline High Dose,Xanomeline High Dose,Xanomeline High Dose,2013-01-22,2013-01-22T00:00:00Z,H,2013-07-24,2013-07-24T23:59:59Z,H,Screening,1,COMPLETED,2013-07-24,,2013-01-22,2013-07-24,184,,,,,4,ALZHEIMER'S DISEASE,1,,,,,,PRIMARY DIAGNOSIS,2010-09-02,2010-09-02,2011-07-08,2011-07-08,-873,-564,Y,Y,Y,Y,Y,Y,,,1,SCREENING 1,-7,2013-01-16,-6,,BEFORE,,SCREENING,BEFORE,,2013-01-16,-6,,,,,,,,,,,,,,,,Past,Y,Y,Y
238,CDISCPILOT01,01-717-1201,1201,717,USA,MH,2013-12-19,2014-02-21,2013-12-19,2014-02-21,2014-02-21T11:14,,,,,,,,,,,,NA,2013-12-12,-7,85,YEARS,>64,F,WHITE,White,NOT HISPANIC OR LATINO,Y,Placebo,Pbo,Placebo,Pbo,Placebo,Placebo,Placebo,Placebo,2013-12-19,2013-12-19T00:00:00Z,H,2014-02-21,2014-02-21T23:59:59Z,H,Screening,1,DISCONTINUED,2014-02-21,,2013-12-19,2014-02-21,65,,,,,7,ALZHEIMER'S DISEASE,1,,,,,,PRIMARY DIAGNOSIS,2011-03-23,2011-03-23,2012-01-27,2012-01-27,-1002,-692,Y,Y,Y,Y,Y,Y,,,1,SCREENING 1,-7,2013-12-12,-7,,BEFORE,,SCREENING,BEFORE,,2013-12-12,-7,,,,,,,,,,,,,,,,Past,Y,Y,Y
239,CDISCPILOT01,01-717-1344,1344,717,USA,MH,2014-01-11,2014-03-14,2014-01-11,2014-03-14,2014-03-14T14:14,,,,,,,,,,,,NA,2014-01-01,-10,64,YEARS,18-64,F,WHITE,White,NOT HISPANIC OR LATINO,Y,Placebo,Pbo,Placebo,Pbo,Placebo,Placebo,Placebo,Placebo,2014-01-11,2014-01-11T00:00:00Z,H,2014-03-14,2014-03-14T23:59:59Z,H,Screening,1,DISCONTINUED,2014-03-14,,2014-01-11,2014-03-14,63,,,,,3,ALZHEIMER'S DISEASE,1,,,,,,PRIMARY DIAGNOSIS,2008-09-10,2008-09-10,2009-02-20,2009-02-20,-1949,-1786,Y,Y,Y,Y,Y,Y,,,1,SCREENING 1,-7,2014-01-01,-10,,BEFORE,,SCREENING,BEFORE,,2014-01-01,-10,,,,,,,,,,,,,,,,Past,Y,Y,Y
240,CDISCPILOT01,01-717-1357,1357,717,USA,MH,2013-05-01,2013-10-20,2013-05-01,2013-10-14,2013-10-20T10:52,,,,,,,,,,,,NA,2013-04-21,-10,77,YEARS,>64,M,WHITE,White,NOT HISPANIC OR LATINO,Y,Xanomeline High Dose,Xan_Hi,Xanomeline High Dose,Xan_Hi,Xanomeline High Dose,Xanomeline High Dose,Xanomeline High Dose,Xanomeline High Dose,2013-05-01,2013-05-01T00:00:00Z,H,2013-10-14,2013-10-14T23:59:59Z,H,Screening,1,DISCONTINUED,2013-10-20,,2013-05-01,2013-10-20,167,,,,,8,ALZHEIMER'S DISEASE,1,,,,,,PRIMARY DIAGNOSIS,2010-02-20,2010-02-20,2010-08-29,2010-08-29,-1166,-976,Y,Y,Y,,Y,Y,,,1,SCREENING 1,-7,2013-04-21,-10,,BEFORE,,SCREENING,BEFORE,,2013-04-21,-10,,,,,,,,,,,,,,,,Past,,Y,Y
241,CDISCPILOT01,01-717-1446,1446,717,USA,MH,2013-09-01,2014-03-04,2013-09-01,2014-03-03,2014-03-17T09:52,,,,,,,,,,,,NA,2013-08-20,-12,75,YEARS,>64,F,WHITE,White,NOT HISPANIC OR LATINO,Y,Xanomeline Low Dose,Xan_Lo,Xanomeline Low Dose,Xan_Lo,Xanomeline Low Dose,Xanomeline Low Dose,Xanomeline Low Dose,Xanomeline Low Dose,2013-09-01,2013-09-01T00:00:00Z,H,2014-03-03,2014-03-03T23:59:59Z,H,Screening,1,COMPLETED,2014-03-04,,2013-09-01,2014-03-17,184,,,,,3,ALZHEIMER'S DISEASE,1,,,,,,PRIMARY DIAGNOSIS,2010-02-10,2010-02-10,2010-11-19,2010-11-19,-1299,-1017,Y,Y,Y,Y,Y,Y,,,1,SCREENING 1,-7,2013-08-20,-12,,BEFORE,,SCREENING,BEFORE,,2013-08-20,-12,,,,,,,,,,,,,,,,Past,Y,Y,Y
242,CDISCPILOT01,01-718-1066,1066,718,USA,MH,2013-07-07,2013-07-30,2013-07-07,2013-07-16,2014-01-13,,,,,,,,,,,,NA,2013-06-28,-9,79,YEARS,>64,F,WHITE,White,NOT HISPANIC OR LATINO,Y,Xanomeline Low Dose,Xan_Lo,Xanomeline Low Dose,Xan_Lo,Xanomeline Low Dose,Xanomeline Low Dose,Xanomeline Low Dose,Xanomeline Low Dose,2013-07-07,2013-07-07T00:00:00Z,H,2013-07-16,2013-07-16T23:59:59Z,H,Screening,1,DISCONTINUED,2013-07-30,,2013-07-07,2013-07-30,10,,,,,9,ALZHEIMER'S DISEASE,1,,,,,,PRIMARY DIAGNOSIS,2011-06-02,2011-06-02,2011-11-23,2011-11-23,-766,-592,Y,Y,Y,Y,Y,Y,,,1,SCREENING 1,-7,2013-06-28,-9,,BEFORE,,SCREENING,BEFORE,,2013-06-28,-9,,,,,,,,,,,,,,,,Past,Y,Y,Y
243,CDISCPILOT01,01-718-1079,1079,718,USA,MH,2012-09-19,2012-11-06,2012-09-19,2012-10-31,2013-03-05,,2013-03-05,,,,,,,,,,NA,2012-09-11,-8,67,YEARS,>64,F,WHITE,White,NOT HISPANIC OR LATINO,Y,Xanomeline Low Dose,Xan_Lo,Xanomeline Low Dose,Xan_Lo,Xanomeline Low Dose,Xanomeline Low Dose,Xanomeline Low Dose,Xanomeline Low Dose,2012-09-19,2012-09-19T00:00:00Z,H,2012-10-31,2012-10-31T23:59:59Z,H,Screening,1,DISCONTINUED,2012-11-06,,2012-09-19,2012-10-31,43,,,,,5,ALZHEIMER'S DISEASE,1,,,,,,PRIMARY DIAGNOSIS,2005-06-27,2005-06-27,2005-10-25,2005-10-25,-2641,-2521,Y,Y,Y,Y,Y,Y,,,1,SCREENING 1,-7,2012-09-11,-8,,BEFORE,,SCREENING,BEFORE,,2012-09-11,-8,,,,,,,,,,,,,,,,Past,Y,Y,Y
244,CDISCPILOT01,01-718-1101,1101,718,USA,MH,2013-02-17,2013-08-02,2013-02-17,2013-07-31,2013-08-02T11:30,,,,,,,,,,,,NA,2013-02-01,-16,82,YEARS,>64,M,BLACK OR AFRICAN AMERICAN,Non-white,NOT HISPANIC OR LATINO,Y,Xanomeline High Dose,Xan_Hi,Xanomeline High Dose,Xan_Hi,Xanomeline High Dose,Xanomeline High Dose,Xanomeline High Dose,Xanomeline High Dose,2013-02-17,2013-02-17T00:00:00Z,H,2013-07-31,2013-07-31T23:59:59Z,H,Screening,1,DISCONTINUED,2013-08-02,,2013-02-17,2013-08-02,165,,,,,4,ALZHEIMER'S DISEASE,1,,,,,,PRIMARY DIAGNOSIS,2008-04-14,2008-04-14,2008-06-17,2008-06-17,-1770,-1706,Y,Y,Y,Y,Y,Y,,,1,SCREENING 1,-7,2013-02-01,-16,,BEFORE,,SCREENING,BEFORE,,2013-02-01,-16,,,,,,,,,,,,,,,,Past,Y,Y,Y
245,CDISCPILOT01,01-718-1139,1139,718,USA,MH,2013-05-19,2013-11-17,2013-05-19,2013-11-17,2013-11-17T10:30,,,,,,,,,,,,NA,2013-05-03,-16,77,YEARS,>64,M,WHITE,White,NOT HISPANIC OR LATINO,Y,Placebo,Pbo,Placebo,Pbo,Placebo,Placebo,Placebo,Placebo,2013-05-19,2013-05-19T00:00:00Z,H,2013-11-17,2013-11-17T23:59:59Z,H,Screening,1,COMPLETED,2013-11-17,,2013-05-19,2013-11-17,183,,,,,7,ALZHEIMER'S DISEASE,1,,,,,,PRIMARY DIAGNOSIS,2008-03-29,2008-03-29,2008-12-22,2008-12-22,-1877,-1609,Y,Y,Y,Y,Y,Y,,,1,SCREENING 1,-7,2013-05-03,-16,,BEFORE,,SCREENING,BEFORE,,2013-05-03,-16,,,,,,,,,,,,,,,,Past,Y,Y,Y
246,CDISCPILOT01,01-718-1150,1150,718,USA,MH,2013-01-19,2013-07-31,2013-01-19,2013-07-29,2013-07-31T14:05,,,,,,,,,,,,NA,2013-01-12,-7,73,YEARS,>64,F,WHITE,White,NOT HISPANIC OR LATINO,Y,Placebo,Pbo,Placebo,Pbo,Placebo,Placebo,Placebo,Placebo,2013-01-19,2013-01-19T00:00:00Z,H,2013-07-29,2013-07-29T23:59:59Z,H,Screening,1,COMPLETED,2013-07-31,,2013-01-19,2013-07-31,192,,,,,5,ALZHEIMER'S DISEASE,1,,,,,,PRIMARY DIAGNOSIS,2012-03-11,2012-03-11,2012-05-04,2012-05-04,-314,-260,Y,Y,Y,Y,Y,Y,,,1,SCREENING 1,-7,2013-01-12,-7,,BEFORE,,SCREENING,BEFORE,,2013-01-12,-7,,,,,,,,,,,,,,,,Past,Y,Y,Y
247,CDISCPILOT01,01-718-1170,1170,718,USA,MH,2013-09-16,2013-11-03,2013-09-16,2013-10-12,2014-03-15,,2014-03-15,,,,,,,,,,NA,2013-08-25,-22,80,YEARS,>64,F,WHITE,White,NOT HISPANIC OR LATINO,Y,Xanomeline Low Dose,Xan_Lo,Xanomeline Low Dose,Xan_Lo,Xanomeline Low Dose,Xanomeline Low Dose,Xanomeline Low Dose,Xanomeline Low Dose,2013-09-16,2013-09-16T00:00:00Z,H,2013-10-12,2013-10-12T23:59:59Z,H,Screening,1,DISCONTINUED,2013-11-03,,2013-09-16,2013-11-03,27,,,,,6,ALZHEIMER'S DISEASE,1,,,,,,PRIMARY DIAGNOSIS,2012-08-25,2012-08-25,2013-07-27,2013-07-27,-387,-51,Y,Y,Y,Y,Y,Y,,,1,SCREENING 1,-7,2013-08-25,-22,,BEFORE,,SCREENING,BEFORE,,2013-08-25,-22,,,,,,,,,,,,,,,,Past,,Y,Y
248,CDISCPILOT01,01-718-1172,1172,718,USA,MH,2013-09-21,2013-11-29,2013-09-21,2013-11-29,2014-03-21,,2014-03-21,,,,,,,,,,NA,2013-09-15,-6,74,YEARS,>64,M,WHITE,White,NOT HISPANIC OR LATINO,Y,Placebo,Pbo,Placebo,Pbo,Placebo,Placebo,Placebo,Placebo,2013-09-21,2013-09-21T00:00:00Z,H,2013-11-29,2013-11-29T23:59:59Z,H,Screening,1,DISCONTINUED,2013-11-29,,2013-09-21,2013-11-29,70,,,,,5,ALZHEIMER'S DISEASE,1,,,,,,PRIMARY DIAGNOSIS,2011-10-01,2011-10-01,2012-04-12,2012-04-12,-721,-527,Y,Y,Y,Y,Y,Y,,,1,SCREENING 1,-7,2013-09-15,-6,,BEFORE,,SCREENING,BEFORE,,2013-09-15,-6,,,,,,,,,,,,,,,,Past,Y,Y,Y
249,CDISCPILOT01,01-718-1250,1250,718,USA,MH,2013-09-21,2014-02-08,2013-09-21,2014-01-31,2014-03-08,,2014-03-08,,,,,,,,,,NA,2013-08-21,-31,82,YEARS,>64,F,WHITE,White,HISPANIC OR LATINO,Y,Xanomeline Low Dose,Xan_Lo,Xanomeline Low Dose,Xan_Lo,Xanomeline Low Dose,Xanomeline Low Dose,Xanomeline Low Dose,Xanomeline Low Dose,2013-09-21,2013-09-21T00:00:00Z,H,2014-01-31,2014-01-31T23:59:59Z,H,Screening,1,DISCONTINUED,2014-02-08,,2013-09-21,2014-02-19,133,,,,,4,ALZHEIMER'S DISEASE,1,,,,,,PRIMARY DIAGNOSIS,2008-08-20,2008-08-20,2009-01-17,2009-01-17,-1858,-1708,Y,Y,Y,Y,Y,Y,,,1,SCREENING 1,-7,2013-08-21,-31,,BEFORE,,SCREENING,BEFORE,,2013-08-21,-31,,,,,,,,,,,,,,,,Past,Y,Y,Y
250,CDISCPILOT01,01-718-1254,1254,718,USA,MH,2013-07-10,2014-01-09,2013-07-10,2014-01-09,2014-01-09T11:10,,,,,,,,,,,,NA,2013-06-28,-12,78,YEARS,>64,M,WHITE,White,HISPANIC OR LATINO,Y,Xanomeline Low Dose,Xan_Lo,Xanomeline Low Dose,Xan_Lo,Xanomeline Low Dose,Xanomeline Low Dose,Xanomeline Low Dose,Xanomeline Low Dose,2013-07-10,2013-07-10T00:00:00Z,H,2014-01-09,2014-01-09T23:59:59Z,H,Screening,1,COMPLETED,2014-01-09,,2013-07-10,2014-01-09,184,,,,,3,ALZHEIMER'S DISEASE,1,,,,,,PRIMARY DIAGNOSIS,2011-09-12,2011-09-12,2012-03-04,2012-03-04,-667,-493,Y,Y,Y,Y,Y,Y,,,1,SCREENING 1,-7,2013-06-28,-12,,BEFORE,,SCREENING,BEFORE,,2013-06-28,-12,,,,,,,,,,,,,,,,Past,Y,Y,Y
251,CDISCPILOT01,01-718-1328,1328,718,USA,MH,2013-02-01,2013-05-01,2013-02-01,2013-04-18,2013-07-24,,2013-07-24,,,,,,,,,,NA,2013-01-28,-4,86,YEARS,>64,M,WHITE,White,NOT HISPANIC OR LATINO,Y,Xanomeline High Dose,Xan_Hi,Xanomeline High Dose,Xan_Hi,Xanomeline High Dose,Xanomeline High Dose,Xanomeline High Dose,Xanomeline High Dose,2013-02-01,2013-02-01T00:00:00Z,H,2013-04-18,2013-04-18T23:59:59Z,H,Screening,1,DISCONTINUED,2013-05-01,,2013-02-01,2013-05-01,77,,,,,9,ALZHEIMER'S DISEASE,1,,,,,,PRIMARY DIAGNOSIS,2010-01-11,2010-01-11,2010-04-13,2010-04-13,-1117,-1025,Y,Y,Y,Y,Y,Y,,,1,SCREENING 1,-7,2013-01-28,-4,,BEFORE,,SCREENING,BEFORE,,2013-01-28,-4,,,,,,,,,,,,,,,,Past,Y,Y,Y
252,CDISCPILOT01,01-718-1355,1355,718,USA,MH,2013-02-28,2013-08-29,2013-02-28,2013-08-29,2013-08-29T14:00,,,,,,,,,,,,NA,2013-02-12,-16,79,YEARS,>64,M,WHITE,White,NOT HISPANIC OR LATINO,Y,Placebo,Pbo,Placebo,Pbo,Placebo,Placebo,Placebo,Placebo,2013-02-28,2013-02-28T00:00:00Z,H,2013-08-29,2013-08-29T23:59:59Z,H,Screening,1,COMPLETED,2013-08-29,,2013-02-28,2013-08-29,183,,,,,7,ALZHEIMER'S DISEASE,1,,,,,,PRIMARY DIAGNOSIS,2008-12-05,2008-12-05,2010-01-01,2010-01-01,-1546,-1154,Y,Y,Y,Y,Y,Y,,,1,SCREENING 1,-7,2013-02-12,-16,,BEFORE,,SCREENING,BEFORE,,2013-02-12,-16,,,,,,,,,,,,,,,,Past,Y,Y,Y
253,CDISCPILOT01,01-718-1371,1371,718,USA,MH,2013-04-26,2013-08-08,2013-04-26,2013-08-01,2013-08-08,,,,,,,,,,,,NA,2013-04-11,-15,69,YEARS,>64,F,WHITE,White,NOT HISPANIC OR LATINO,Y,Xanomeline High Dose,Xan_Hi,Xanomeline High Dose,Xan_Hi,Xanomeline High Dose,Xanomeline High Dose,Xanomeline High Dose,Xanomeline High Dose,2013-04-26,2013-04-26T00:00:00Z,H,2013-08-01,2013-08-01T23:59:59Z,H,Screening,1,DISCONTINUED,2013-08-08,,2013-04-26,2013-08-01,98,,,,,8,ALZHEIMER'S DISEASE,1,,,,,,PRIMARY DIAGNOSIS,2013-02-04,2013-02-04,2013-09-21,2013-09-21,-81,149,Y,Y,Y,Y,Y,Y,,,1,SCREENING 1,-7,2013-04-11,-15,,ONGOING,,SCREENING,AFTER,,2013-04-11,-15,,,,,,,,,,,,,,,,Current,Y,Y,Y
254,CDISCPILOT01,01-718-1427,1427,718,USA,MH,2012-12-17,2013-02-18,2012-12-17,2013-02-11,2013-06-03,,2013-06-03,,,,,,,,,,NA,2012-12-13,-4,74,YEARS,>64,F,BLACK OR AFRICAN AMERICAN,Non-white,NOT HISPANIC OR LATINO,Y,Xanomeline High Dose,Xan_Hi,Xanomeline High Dose,Xan_Hi,Xanomeline High Dose,Xanomeline High Dose,Xanomeline High Dose,Xanomeline High Dose,2012-12-17,2012-12-17T00:00:00Z,H,2013-02-11,2013-02-11T23:59:59Z,H,Screening,1,DISCONTINUED,2013-02-18,,2012-12-17,2013-02-25,57,,,,,5,ALZHEIMER'S DISEASE,1,,,,,,PRIMARY DIAGNOSIS,2010-05-03,2010-05-03,2011-04-29,2011-04-29,-959,-598,Y,Y,Y,Y,Y,Y,,,1,SCREENING 1,-7,2012-12-13,-4,,BEFORE,,SCREENING,BEFORE,,2012-12-13,-4,,,,,,,,,,,,,,,,Past,Y,Y,Y
255,CDISCPILOT01,01-701-1015,1015,701,USA,MH,2014-01-02,2014-07-02,2014-01-02,2014-07-02,2014-07-02T11:45,,,,,,,,,,,,NA,2013-12-26,-7,63,YEARS,18-64,F,WHITE,White,HISPANIC OR LATINO,Y,Placebo,Pbo,Placebo,Pbo,Placebo,Placebo,Placebo,Placebo,2014-01-02,2014-01-02T00:00:00Z,H,2014-07-02,2014-07-02T23:59:59Z,H,Screening,1,COMPLETED,2014-07-02,,2014-01-02,2014-07-02,182,,,,,10,VERBATIM_0539,,CHOLELITHIASIS,HEPATOBILIARY DISORDERS,GALLBLADDER STONES,HLT_0084,HLGT_0177,HISTORICAL DIAGNOSIS,2012,,,,,,,,,,Y,Y,,,1,SCREENING 1,-7,2013-12-26,-7,BEFORE,,SCREENING,FIRST DOSE OF STUDY DRUG,,,2013-12-26,-7,,,,,,,,,,,,,,,,,,Y,Y
256,CDISCPILOT01,01-701-1015,1015,701,USA,MH,2014-01-02,2014-07-02,2014-01-02,2014-07-02,2014-07-02T11:45,,,,,,,,,,,,NA,2013-12-26,-7,63,YEARS,18-64,F,WHITE,White,HISPANIC OR LATINO,Y,Placebo,Pbo,Placebo,Pbo,Placebo,Placebo,Placebo,Placebo,2014-01-02,2014-01-02T00:00:00Z,H,2014-07-02,2014-07-02T23:59:59Z,H,Screening,1,COMPLETED,2014-07-02,,2014-01-02,2014-07-02,182,,,,,4,VERBATIM_0841,,DYSPEPSIA,GASTROINTESTINAL DISORDERS,HEARTBURN,HLT_0244,HLGT_0716,SIGNIFICANT PRE-EXISTING CONDITION,,,,,,,,,,,Y,Y,E02,MILD,1,SCREENING 1,-7,2013-12-26,-7,BEFORE,,SCREENING,FIRST DOSE OF STUDY DRUG,,,2013-12-26,-7,,,,,,,,,,,,,,,,,,Y,Y
257,CDISCPILOT01,01-701-1015,1015,701,USA,MH,2014-01-02,2014-07-02,2014-01-02,2014-07-02,2014-07-02T11:45,,,,,,,,,,,,NA,2013-12-26,-7,63,YEARS,18-64,F,WHITE,White,HISPANIC OR LATINO,Y,Placebo,Pbo,Placebo,Pbo,Placebo,Placebo,Placebo,Placebo,2014-01-02,2014-01-02T00:00:00Z,H,2014-07-02,2014-07-02T23:59:59Z,H,Screening,1,COMPLETED,2014-07-02,,2014-01-02,2014-07-02,182,,,,,2,VERBATIM_0301,,HEADACHE,NERVOUS SYSTEM DISORDERS,HEADACHE,HLT_0064,HLGT_0344,SIGNIFICANT PRE-EXISTING CONDITION,,,,,,,,,,,Y,Y,E03,MILD,1,SCREENING 1,-7,2013-12-26,-7,BEFORE,,SCREENING,FIRST DOSE OF STUDY DRUG,,,2013-12-26,-7,,,,,,,,,,,,,,,,,,Y,Y
258,CDISCPILOT01,01-701-1015,1015,701,USA,MH,2014-01-02,2014-07-02,2014-01-02,2014-07-02,2014-07-02T11:45,,,,,,,,,,,,NA,2013-12-26,-7,63,YEARS,18-64,F,WHITE,White,HISPANIC OR LATINO,Y,Placebo,Pbo,Placebo,Pbo,Placebo,Placebo,Placebo,Placebo,2014-01-02,2014-01-02T00:00:00Z,H,2014-07-02,2014-07-02T23:59:59Z,H,Screening,1,COMPLETED,2014-07-02,,2014-01-02,2014-07-02,182,,,,,5,VERBATIM_1779,,HYPOAESTHESIA,NERVOUS SYSTEM DISORDERS,NUMBNESS IN LEG,HLT_0014,HLGT_0528,SIGNIFICANT PRE-EXISTING CONDITION,,,,,,,,,,,Y,,E04,MILD,1,SCREENING 1,-7,2013-12-26,-7,BEFORE,,SCREENING,FIRST DOSE OF STUDY DRUG,,,2013-12-26,-7,,,,,,,,,,,,,,,,,,,Y
259,CDISCPILOT01,01-701-1015,1015,701,USA,MH,2014-01-02,2014-07-02,2014-01-02,2014-07-02,2014-07-02T11:45,,,,,,,,,,,,NA,2013-12-26,-7,63,YEARS,18-64,F,WHITE,White,HISPANIC OR LATINO,Y,Placebo,Pbo,Placebo,Pbo,Placebo,Placebo,Placebo,Placebo,2014-01-02,2014-01-02T00:00:00Z,H,2014-07-02,2014-07-02T23:59:59Z,H,Screening,1,COMPLETED,2014-07-02,,2014-01-02,2014-07-02,182,,,,,8,VERBATIM_0140,,HYSTERECTOMY,SURGICAL AND MEDICAL PROCEDURES,SUBTOTAL HYSTERECTOMY,HLT_0675,HLGT_0657,HISTORICAL DIAGNOSIS,1986,,,,,,,,,,Y,Y,,,1,SCREENING 1,-7,2013-12-26,-7,BEFORE,,SCREENING,FIRST DOSE OF STUDY DRUG,,,2013-12-26,-7,,,,,,,,,,,,,,,,,,,Y
260,CDISCPILOT01,01-701-1015,1015,701,USA,MH,2014-01-02,2014-07-02,2014-01-02,2014-07-02,2014-07-02T11:45,,,,,,,,,,,,NA,2013-12-26,-7,63,YEARS,18-64,F,WHITE,White,HISPANIC OR LATINO,Y,Placebo,Pbo,Placebo,Pbo,Placebo,Placebo,Placebo,Placebo,2014-01-02,2014-01-02T00:00:00Z,H,2014-07-02,2014-07-02T23:59:59Z,H,Screening,1,COMPLETED,2014-07-02,,2014-01-02,2014-07-02,182,,,,,1,VERBATIM_0135,,PALPITATIONS,CARDIAC DISORDERS,PALPITATIONS,HLT_0493,HLGT_0593,SIGNIFICANT PRE-EXISTING CONDITION,,,,,,,,,,,Y,Y,E01,MILD,1,SCREENING 1,-7,2013-12-26,-7,BEFORE,,SCREENING,FIRST DOSE OF STUDY DRUG,,,2013-12-26,-7,,,,,,,,,,,,,,,,,,Y,Y
261,CDISCPILOT01,01-701-1015,1015,701,USA,MH,2014-01-02,2014-07-02,2014-01-02,2014-07-02,2014-07-02T11:45,,,,,,,,,,,,NA,2013-12-26,-7,63,YEARS,18-64,F,WHITE,White,HISPANIC OR LATINO,Y,Placebo,Pbo,Placebo,Pbo,Placebo,Placebo,Placebo,Placebo,2014-01-02,2014-01-02T00:00:00Z,H,2014-07-02,2014-07-02T23:59:59Z,H,Screening,1,COMPLETED,2014-07-02,,2014-01-02,2014-07-02,182,,,,,11,VERBATIM_1230,,PHARYNGOLARYNGEAL PAIN,"RESPIRATORY, THORACIC AND MEDIASTINAL DISORDERS",SORE THROAT,HLT_0130,HLGT_0402,HISTORICAL DIAGNOSIS,2013-12,,,,,,,,,,Y,Y,,,1,SCREENING 1,-7,2013-12-26,-7,BEFORE,,SCREENING,FIRST DOSE OF STUDY DRUG,,,2013-12-26,-7,,,,,,,,,,,,,,,,,,Y,Y
262,CDISCPILOT01,01-701-1015,1015,701,USA,MH,2014-01-02,2014-07-02,2014-01-02,2014-07-02,2014-07-02T11:45,,,,,,,,,,,,NA,2013-12-26,-7,63,YEARS,18-64,F,WHITE,White,HISPANIC OR LATINO,Y,Placebo,Pbo,Placebo,Pbo,Placebo,Placebo,Placebo,Placebo,2014-01-02,2014-01-02T00:00:00Z,H,2014-07-02,2014-07-02T23:59:59Z,H,Screening,1,COMPLETED,2014-07-02,,2014-01-02,2014-07-02,182,,,,,6,VERBATIM_1004,,THYROIDECTOMY PARTIAL,SURGICAL AND MEDICAL PROCEDURES,THYROIDECTOMY PARTIAL,HLT_0243,HLGT_0016,HISTORICAL DIAGNOSIS,1973,,,,,,,,,,Y,,,,1,SCREENING 1,-7,2013-12-26,-7,BEFORE,,SCREENING,FIRST DOSE OF STUDY DRUG,,,2013-12-26,-7,,,,,,,,,,,,,,,,,,Y,Y
263,CDISCPILOT01,01-701-1015,1015,701,USA,MH,2014-01-02,2014-07-02,2014-01-02,2014-07-02,2014-07-02T11:45,,,,,,,,,,,,NA,2013-12-26,-7,63,YEARS,18-64,F,WHITE,White,HISPANIC OR LATINO,Y,Placebo,Pbo,Placebo,Pbo,Placebo,Placebo,Placebo,Placebo,2014-01-02,2014-01-02T00:00:00Z,H,2014-07-02,2014-07-02T23:59:59Z,H,Screening,1,COMPLETED,2014-07-02,,2014-01-02,2014-07-02,182,,,,,3,VERBATIM_0825,,TINNITUS,EAR AND LABYRINTH DISORDERS,TINNITUS,HLT_0570,HLGT_0180,SIGNIFICANT PRE-EXISTING CONDITION,,,,,,,,,,,Y,Y,E05,MILD,1,SCREENING 1,-7,2013-12-26,-7,BEFORE,,SCREENING,FIRST DOSE OF STUDY DRUG,,,2013-12-26,-7,,,,,,,,,,,,,,,,,,Y,Y
264,CDISCPILOT01,01-701-1015,1015,701,USA,MH,2014-01-02,2014-07-02,2014-01-02,2014-07-02,2014-07-02T11:45,,,,,,,,,,,,NA,2013-12-26,-7,63,YEARS,18-64,F,WHITE,White,HISPANIC OR LATINO,Y,Placebo,Pbo,Placebo,Pbo,Placebo,Placebo,Placebo,Placebo,2014-01-02,2014-01-02T00:00:00Z,H,2014-07-02,2014-07-02T23:59:59Z,H,Screening,1,COMPLETED,2014-07-02,,2014-01-02,2014-07-02,182,,,,,7,VERBATIM_1716,,TONSILLECTOMY,SURGICAL AND MEDICAL PROCEDURES,TONSILLECTOMY,HLT_0202,HLGT_0199,HISTORICAL DIAGNOSIS,1973,,,,,,,,,,Y,,,,1,SCREENING 1,-7,2013-12-26,-7,BEFORE,,SCREENING,FIRST DOSE OF STUDY DRUG,,,2013-12-26,-7,,,,,,,,,,,,,,,,,,,Y
265,CDISCPILOT01,01-701-1023,1023,701,USA,MH,2012-08-05,2012-09-02,2012-08-05,2012-09-01,2013-02-18,,2013-02-18,,,,,,,,,,NA,2012-07-22,-14,64,YEARS,18-64,M,WHITE,White,HISPANIC OR LATINO,Y,Placebo,Pbo,Placebo,Pbo,Placebo,Placebo,Placebo,Placebo,2012-08-05,2012-08-05T00:00:00Z,H,2012-09-01,2012-09-01T23:59:59Z,H,Screening,1,DISCONTINUED,2012-09-02,,2012-08-05,2012-09-02,28,,,,,9,VERBATIM_1775,,APPENDICECTOMY,SURGICAL AND MEDICAL PROCEDURES,APPENDECTOMY,HLT_0707,HLGT_0363,HISTORICAL DIAGNOSIS,1956,,,,,,,,,,Y,Y,,,1,SCREENING 1,-7,2012-07-22,-14,BEFORE,,SCREENING,FIRST DOSE OF STUDY DRUG,,,2012-07-22,-14,,,,,,,,,,,,,,,,,,Y,Y
266,CDISCPILOT01,01-701-1023,1023,701,USA,MH,2012-08-05,2012-09-02,2012-08-05,2012-09-01,2013-02-18,,2013-02-18,,,,,,,,,,NA,2012-07-22,-14,64,YEARS,18-64,M,WHITE,White,HISPANIC OR LATINO,Y,Placebo,Pbo,Placebo,Pbo,Placebo,Placebo,Placebo,Placebo,2012-08-05,2012-08-05T00:00:00Z,H,2012-09-01,2012-09-01T23:59:59Z,H,Screening,1,DISCONTINUED,2012-09-02,,2012-08-05,2012-09-02,28,,,,,8,VERBATIM_0788,,APPENDICITIS,INFECTIONS AND INFESTATIONS,APPENDICITIS,HLT_0703,HLGT_0283,HISTORICAL DIAGNOSIS,1956,,,,,,,,,,Y,Y,,,1,SCREENING 1,-7,2012-07-22,-14,BEFORE,,SCREENING,FIRST DOSE OF STUDY DRUG,,,2012-07-22,-14,,,,,,,,,,,,,,,,,,Y,Y
267,CDISCPILOT01,01-701-1023,1023,701,USA,MH,2012-08-05,2012-09-02,2012-08-05,2012-09-01,2013-02-18,,2013-02-18,,,,,,,,,,NA,2012-07-22,-14,64,YEARS,18-64,M,WHITE,White,HISPANIC OR LATINO,Y,Placebo,Pbo,Placebo,Pbo,Placebo,Placebo,Placebo,Placebo,2012-08-05,2012-08-05T00:00:00Z,H,2012-09-01,2012-09-01T23:59:59Z,H,Screening,1,DISCONTINUED,2012-09-02,,2012-08-05,2012-09-02,28,,,,,19,VERBATIM_0291,,BACK PAIN,MUSCULOSKELETAL AND CONNECTIVE TISSUE DISORDERS,LOW BACK PAIN,HLT_0115,HLGT_0508,HISTORICAL DIAGNOSIS,2007,,,,,,,,,,Y,Y,,,1,SCREENING 1,-7,2012-07-22,-14,BEFORE,,SCREENING,FIRST DOSE OF STUDY DRUG,,,2012-07-22,-14,,,,,,,,,,,,,,,,,,Y,Y
268,CDISCPILOT01,01-701-1023,1023,701,USA,MH,2012-08-05,2012-09-02,2012-08-05,2012-09-01,2013-02-18,,2013-02-18,,,,,,,,,,NA,2012-07-22,-14,64,YEARS,18-64,M,WHITE,White,HISPANIC OR LATINO,Y,Placebo,Pbo,Placebo,Pbo,Placebo,Placebo,Placebo,Placebo,2012-08-05,2012-08-05T00:00:00Z,H,2012-09-01,2012-09-01T23:59:59Z,H,Screening,1,DISCONTINUED,2012-09-02,,2012-08-05,2012-09-02,28,,,,,21,VERBATIM_0073,,CELLULITIS,INFECTIONS AND INFESTATIONS,CELLULITIS OF FOOT,HLT_0613,HLGT_0066,HISTORICAL DIAGNOSIS,2009,,,,,,,,,,Y,,,,1,SCREENING 1,-7,2012-07-22,-14,BEFORE,,SCREENING,FIRST DOSE OF STUDY DRUG,,,2012-07-22,-14,,,,,,,,,,,,,,,,,,,Y
269,CDISCPILOT01,01-701-1023,1023,701,USA,MH,2012-08-05,2012-09-02,2012-08-05,2012-09-01,2013-02-18,,2013-02-18,,,,,,,,,,NA,2012-07-22,-14,64,YEARS,18-64,M,WHITE,White,HISPANIC OR LATINO,Y,Placebo,Pbo,Placebo,Pbo,Placebo,Placebo,Placebo,Placebo,2012-08-05,2012-08-05T00:00:00Z,H,2012-09-01,2012-09-01T23:59:59Z,H,Screening,1,DISCONTINUED,2012-09-02,,2012-08-05,2012-09-02,28,,,,,4,VERBATIM_0800,,DYSPEPSIA,GASTROINTESTINAL DISORDERS,INDIGESTION,HLT_0244,HLGT_0716,SIGNIFICANT PRE-EXISTING CONDITION,,,,,,,,,,,Y,Y,E04,MILD,1,SCREENING 1,-7,2012-07-22,-14,BEFORE,,SCREENING,FIRST DOSE OF STUDY DRUG,,,2012-07-22,-14,,,,,,,,,,,,,,,,,,,Y
270,CDISCPILOT01,01-701-1023,1023,701,USA,MH,2012-08-05,2012-09-02,2012-08-05,2012-09-01,2013-02-18,,2013-02-18,,,,,,,,,,NA,2012-07-22,-14,64,YEARS,18-64,M,WHITE,White,HISPANIC OR LATINO,Y,Placebo,Pbo,Placebo,Pbo,Placebo,Placebo,Placebo,Placebo,2012-08-05,2012-08-05T00:00:00Z,H,2012-09-01,2012-09-01T23:59:59Z,H,Screening,1,DISCONTINUED,2012-09-02,,2012-08-05,2012-09-02,28,,,,,6,VERBATIM_1042,,DYSPNOEA EXERTIONAL,"RESPIRATORY, THORACIC AND MEDIASTINAL DISORDERS",DYSPNEA EXERTIONAL,HLT_0465,HLGT_0475,SIGNIFICANT PRE-EXISTING CONDITION,,,,,,,,,,,Y,Y,E01,MILD,1,SCREENING 1,-7,2012-07-22,-14,BEFORE,,SCREENING,FIRST DOSE OF STUDY DRUG,,,2012-07-22,-14,,,,,,,,,,,,,,,,,,Y,Y
271,CDISCPILOT01,01-701-1023,1023,701,USA,MH,2012-08-05,2012-09-02,2012-08-05,2012-09-01,2013-02-18,,2013-02-18,,,,,,,,,,NA,2012-07-22,-14,64,YEARS,18-64,M,WHITE,White,HISPANIC OR LATINO,Y,Placebo,Pbo,Placebo,Pbo,Placebo,Placebo,Placebo,Placebo,2012-08-05,2012-08-05T00:00:00Z,H,2012-09-01,2012-09-01T23:59:59Z,H,Screening,1,DISCONTINUED,2012-09-02,,2012-08-05,2012-09-02,28,,,,,20,VERBATIM_1154,,ECZEMA,SKIN AND SUBCUTANEOUS TISSUE DISORDERS,ECZEMA,HLT_0747,HLGT_0748,HISTORICAL DIAGNOSIS,2007,,,,,,,,,,Y,Y,,,1,SCREENING 1,-7,2012-07-22,-14,BEFORE,,SCREENING,FIRST DOSE OF STUDY DRUG,,,2012-07-22,-14,,,,,,,,,,,,,,,,,,Y,Y
272,CDISCPILOT01,01-701-1023,1023,701,USA,MH,2012-08-05,2012-09-02,2012-08-05,2012-09-01,2013-02-18,,2013-02-18,,,,,,,,,,NA,2012-07-22,-14,64,YEARS,18-64,M,WHITE,White,HISPANIC OR LATINO,Y,Placebo,Pbo,Placebo,Pbo,Placebo,Placebo,Placebo,Placebo,2012-08-05,2012-08-05T00:00:00Z,H,2012-09-01,2012-09-01T23:59:59Z,H,Screening,1,DISCONTINUED,2012-09-02,,2012-08-05,2012-09-02,28,,,,,1,VERBATIM_0249,,GASTROOESOPHAGEAL REFLUX DISEASE,GASTROINTESTINAL DISORDERS,GASTROESOPHAGEAL REFLUX,HLT_0407,HLGT_0304,SIGNIFICANT PRE-EXISTING CONDITION,,,,,,,,,,,Y,,E02,MILD,1,SCREENING 1,-7,2012-07-22,-14,BEFORE,,SCREENING,FIRST DOSE OF STUDY DRUG,,,2012-07-22,-14,,,,,,,,,,,,,,,,,,Y,Y
273,CDISCPILOT01,01-701-1023,1023,701,USA,MH,2012-08-05,2012-09-02,2012-08-05,2012-09-01,2013-02-18,,2013-02-18,,,,,,,,,,NA,2012-07-22,-14,64,YEARS,18-64,M,WHITE,White,HISPANIC OR LATINO,Y,Placebo,Pbo,Placebo,Pbo,Placebo,Placebo,Placebo,Placebo,2012-08-05,2012-08-05T00:00:00Z,H,2012-09-01,2012-09-01T23:59:59Z,H,Screening,1,DISCONTINUED,2012-09-02,,2012-08-05,2012-09-02,28,,,,,5,VERBATIM_0929,,HEADACHE,NERVOUS SYSTEM DISORDERS,HEADACHE,HLT_0064,HLGT_0344,SIGNIFICANT PRE-EXISTING CONDITION,,,,,,,,,,,Y,,E05,MILD,1,SCREENING 1,-7,2012-07-22,-14,BEFORE,,SCREENING,FIRST DOSE OF STUDY DRUG,,,2012-07-22,-14,,,,,,,,,,,,,,,,,,,Y
274,CDISCPILOT01,01-701-1023,1023,701,USA,MH,2012-08-05,2012-09-02,2012-08-05,2012-09-01,2013-02-18,,2013-02-18,,,,,,,,,,NA,2012-07-22,-14,64,YEARS,18-64,M,WHITE,White,HISPANIC OR LATINO,Y,Placebo,Pbo,Placebo,Pbo,Placebo,Placebo,Placebo,Placebo,2012-08-05,2012-08-05T00:00:00Z,H,2012-09-01,2012-09-01T23:59:59Z,H,Screening,1,DISCONTINUED,2012-09-02,,2012-08-05,2012-09-02,28,,,,,3,VERBATIM_0699,,HIATUS HERNIA,GASTROINTESTINAL DISORDERS,HIATAL HERNIA,HLT_0159,HLGT_0109,SIGNIFICANT PRE-EXISTING CONDITION,,,,,,,,,,,Y,,E03,MILD,1,SCREENING 1,-7,2012-07-22,-14,BEFORE,,SCREENING,FIRST DOSE OF STUDY DRUG,,,2012-07-22,-14,,,,,,,,,,,,,,,,,,,Y
275,CDISCPILOT01,01-701-1023,1023,701,USA,MH,2012-08-05,2012-09-02,2012-08-05,2012-09-01,2013-02-18,,2013-02-18,,,,,,,,,,NA,2012-07-22,-14,64,YEARS,18-64,M,WHITE,White,HISPANIC OR LATINO,Y,Placebo,Pbo,Placebo,Pbo,Placebo,Placebo,Placebo,Placebo,2012-08-05,2012-08-05T00:00:00Z,H,2012-09-01,2012-09-01T23:59:59Z,H,Screening,1,DISCONTINUED,2012-09-02,,2012-08-05,2012-09-02,28,,,,,15,VERBATIM_0342,,HYPERTENSION,VASCULAR DISORDERS,HYPERTENSION,HLT_0228,HLGT_0476,HISTORICAL DIAGNOSIS,2005-10,,,,,,,,,,Y,Y,,,1,SCREENING 1,-7,2012-07-22,-14,BEFORE,,SCREENING,FIRST DOSE OF STUDY DRUG,,,2012-07-22,-14,,,,,,,,,,,,,,,,,,Y,Y
276,CDISCPILOT01,01-701-1023,1023,701,USA,MH,2012-08-05,2012-09-02,2012-08-05,2012-09-01,2013-02-18,,2013-02-18,,,,,,,,,,NA,2012-07-22,-14,64,YEARS,18-64,M,WHITE,White,HISPANIC OR LATINO,Y,Placebo,Pbo,Placebo,Pbo,Placebo,Placebo,Placebo,Placebo,2012-08-05,2012-08-05T00:00:00Z,H,2012-09-01,2012-09-01T23:59:59Z,H,Screening,1,DISCONTINUED,2012-09-02,,2012-08-05,2012-09-02,28,,,,,12,VERBATIM_0596,,HYPOAESTHESIA,NERVOUS SYSTEM DISORDERS,NUMBNESS OF UPPER ARM,HLT_0014,HLGT_0528,HISTORICAL DIAGNOSIS,1982,,,,,,,,,,Y,Y,,,1,SCREENING 1,-7,2012-07-22,-14,BEFORE,,SCREENING,FIRST DOSE OF STUDY DRUG,,,2012-07-22,-14,,,,,,,,,,,,,,,,,,Y,Y
277,CDISCPILOT01,01-701-1023,1023,701,USA,MH,2012-08-05,2012-09-02,2012-08-05,2012-09-01,2013-02-18,,2013-02-18,,,,,,,,,,NA,2012-07-22,-14,64,YEARS,18-64,M,WHITE,White,HISPANIC OR LATINO,Y,Placebo,Pbo,Placebo,Pbo,Placebo,Placebo,Placebo,Placebo,2012-08-05,2012-08-05T00:00:00Z,H,2012-09-01,2012-09-01T23:59:59Z,H,Screening,1,DISCONTINUED,2012-09-02,,2012-08-05,2012-09-02,28,,,,,13,VERBATIM_1554,,INGUINAL HERNIA REPAIR,SURGICAL AND MEDICAL PROCEDURES,INGUINAL HERNIA REPAIR,HLT_0320,HLGT_0772,HISTORICAL DIAGNOSIS,1999,,,,,,,,,,Y,,,,1,SCREENING 1,-7,2012-07-22,-14,BEFORE,,SCREENING,FIRST DOSE OF STUDY DRUG,,,2012-07-22,-14,,,,,,,,,,,,,,,,,,,Y
278,CDISCPILOT01,01-701-1023,1023,701,USA,MH,2012-08-05,2012-09-02,2012-08-05,2012-09-01,2013-02-18,,2013-02-18,,,,,,,,,,NA,2012-07-22,-14,64,YEARS,18-64,M,WHITE,White,HISPANIC OR LATINO,Y,Placebo,Pbo,Placebo,Pbo,Placebo,Placebo,Placebo,Placebo,2012-08-05,2012-08-05T00:00:00Z,H,2012-09-01,2012-09-01T23:59:59Z,H,Screening,1,DISCONTINUED,2012-09-02,,2012-08-05,2012-09-02,28,,,,,2,VERBATIM_0461,,MYALGIA,MUSCULOSKELETAL AND CONNECTIVE TISSUE DISORDERS,MUSCULAR PAIN,HLT_0700,HLGT_0121,SIGNIFICANT PRE-EXISTING CONDITION,,,,,,,,,,,Y,,E06,MILD,1,SCREENING 1,-7,2012-07-22,-14,BEFORE,,SCREENING,FIRST DOSE OF STUDY DRUG,,,2012-07-22,-14,,,,,,,,,,,,,,,,,,,Y
279,CDISCPILOT01,01-701-1023,1023,701,USA,MH,2012-08-05,2012-09-02,2012-08-05,2012-09-01,2013-02-18,,2013-02-18,,,,,,,,,,NA,2012-07-22,-14,64,YEARS,18-64,M,WHITE,White,HISPANIC OR LATINO,Y,Placebo,Pbo,Placebo,Pbo,Placebo,Placebo,Placebo,Placebo,2012-08-05,2012-08-05T00:00:00Z,H,2012-09-01,2012-09-01T23:59:59Z,H,Screening,1,DISCONTINUED,2012-09-02,,2012-08-05,2012-09-02,28,,,,,7,VERBATIM_1532,,MYOPIA,EYE DISORDERS,MYOPIA,HLT_0282,HLGT_0271,SIGNIFICANT PRE-EXISTING CONDITION,,,,,,,,,,,Y,Y,E07,MILD,1,SCREENING 1,-7,2012-07-22,-14,BEFORE,,SCREENING,FIRST DOSE OF STUDY DRUG,,,2012-07-22,-14,,,,,,,,,,,,,,,,,,Y,Y
280,CDISCPILOT01,01-701-1023,1023,701,USA,MH,2012-08-05,2012-09-02,2012-08-05,2012-09-01,2013-02-18,,2013-02-18,,,,,,,,,,NA,2012-07-22,-14,64,YEARS,18-64,M,WHITE,White,HISPANIC OR LATINO,Y,Placebo,Pbo,Placebo,Pbo,Placebo,Placebo,Placebo,Placebo,2012-08-05,2012-08-05T00:00:00Z,H,2012-09-01,2012-09-01T23:59:59Z,H,Screening,1,DISCONTINUED,2012-09-02,,2012-08-05,2012-09-02,28,,,,,18,VERBATIM_1617,,PAIN TRAUMA ACTIVATED,"INJURY, POISONING AND PROCEDURAL COMPLICATIONS",PAIN TRAUMA ACTIVATED,HLT_0579,HLGT_0732,HISTORICAL DIAGNOSIS,2006-04,,,,,,,,,,Y,Y,,,1,SCREENING 1,-7,2012-07-22,-14,BEFORE,,SCREENING,FIRST DOSE OF STUDY DRUG,,,2012-07-22,-14,,,,,,,,,,,,,,,,,,,Y
281,CDISCPILOT01,01-701-1023,1023,701,USA,MH,2012-08-05,2012-09-02,2012-08-05,2012-09-01,2013-02-18,,2013-02-18,,,,,,,,,,NA,2012-07-22,-14,64,YEARS,18-64,M,WHITE,White,HISPANIC OR LATINO,Y,Placebo,Pbo,Placebo,Pbo,Placebo,Placebo,Placebo,Placebo,2012-08-05,2012-08-05T00:00:00Z,H,2012-09-01,2012-09-01T23:59:59Z,H,Screening,1,DISCONTINUED,2012-09-02,,2012-08-05,2012-09-02,28,,,,,17,VERBATIM_0388,,PENILE PROSTHESIS INSERTION,SURGICAL AND MEDICAL PROCEDURES,PENILE PROSTHESIS INSERTION,HLT_0448,HLGT_0303,HISTORICAL DIAGNOSIS,2006-04,,,,,,,,,,Y,,,,1,SCREENING 1,-7,2012-07-22,-14,BEFORE,,SCREENING,FIRST DOSE OF STUDY DRUG,,,2012-07-22,-14,,,,,,,,,,,,,,,,,,,Y
282,CDISCPILOT01,01-701-1023,1023,701,USA,MH,2012-08-05,2012-09-02,2012-08-05,2012-09-01,2013-02-18,,2013-02-18,,,,,,,,,,NA,2012-07-22,-14,64,YEARS,18-64,M,WHITE,White,HISPANIC OR LATINO,Y,Placebo,Pbo,Placebo,Pbo,Placebo,Placebo,Placebo,Placebo,2012-08-05,2012-08-05T00:00:00Z,H,2012-09-01,2012-09-01T23:59:59Z,H,Screening,1,DISCONTINUED,2012-09-02,,2012-08-05,2012-09-02,28,,,,,22,VERBATIM_1364,,PRURITUS,SKIN AND SUBCUTANEOUS TISSUE DISORDERS,ITCHY SKIN,HLT_0778,HLGT_0695,HISTORICAL DIAGNOSIS,2009,,,,,,,,,,Y,,,,1,SCREENING 1,-7,2012-07-22,-14,BEFORE,,SCREENING,FIRST DOSE OF STUDY DRUG,,,2012-07-22,-14,,,,,,,,,,,,,,,,,,,Y
283,CDISCPILOT01,01-701-1023,1023,701,USA,MH,2012-08-05,2012-09-02,2012-08-05,2012-09-01,2013-02-18,,2013-02-18,,,,,,,,,,NA,2012-07-22,-14,64,YEARS,18-64,M,WHITE,White,HISPANIC OR LATINO,Y,Placebo,Pbo,Placebo,Pbo,Placebo,Placebo,Placebo,Placebo,2012-08-05,2012-08-05T00:00:00Z,H,2012-09-01,2012-09-01T23:59:59Z,H,Screening,1,DISCONTINUED,2012-09-02,,2012-08-05,2012-09-02,28,,,,,14,VERBATIM_1200,,SCIATICA,NERVOUS SYSTEM DISORDERS,SCIATICA,HLT_0242,HLGT_0293,HISTORICAL DIAGNOSIS,2005,,,,,,,,,,Y,,,,1,SCREENING 1,-7,2012-07-22,-14,BEFORE,,SCREENING,FIRST DOSE OF STUDY DRUG,,,2012-07-22,-14,,,,,,,,,,,,,,,,,,,Y
284,CDISCPILOT01,01-701-1023,1023,701,USA,MH,2012-08-05,2012-09-02,2012-08-05,2012-09-01,2013-02-18,,2013-02-18,,,,,,,,,,NA,2012-07-22,-14,64,YEARS,18-64,M,WHITE,White,HISPANIC OR LATINO,Y,Placebo,Pbo,Placebo,Pbo,Placebo,Placebo,Placebo,Placebo,2012-08-05,2012-08-05T00:00:00Z,H,2012-09-01,2012-09-01T23:59:59Z,H,Screening,1,DISCONTINUED,2012-09-02,,2012-08-05,2012-09-02,28,,,,,11,VERBATIM_1769,,SINUSITIS,INFECTIONS AND INFESTATIONS,SINUSITIS,HLT_0262,HLGT_0249,HISTORICAL DIAGNOSIS,1978,,,,,,,,,,Y,,,,1,SCREENING 1,-7,2012-07-22,-14,BEFORE,,SCREENING,FIRST DOSE OF STUDY DRUG,,,2012-07-22,-14,,,,,,,,,,,,,,,,,,,Y
285,CDISCPILOT01,01-701-1023,1023,701,USA,MH,2012-08-05,2012-09-02,2012-08-05,2012-09-01,2013-02-18,,2013-02-18,,,,,,,,,,NA,2012-07-22,-14,64,YEARS,18-64,M,WHITE,White,HISPANIC OR LATINO,Y,Placebo,Pbo,Placebo,Pbo,Placebo,Placebo,Placebo,Placebo,2012-08-05,2012-08-05T00:00:00Z,H,2012-09-01,2012-09-01T23:59:59Z,H,Screening,1,DISCONTINUED,2012-09-02,,2012-08-05,2012-09-02,28,,,,,10,VERBATIM_1002,,UPPER LIMB FRACTURE,"INJURY, POISONING AND PROCEDURAL COMPLICATIONS",ELBOW FRACTURE,HLT_0472,HLGT_0247,HISTORICAL DIAGNOSIS,1963,,,,,,,,,,Y,,,,1,SCREENING 1,-7,2012-07-22,-14,BEFORE,,SCREENING,FIRST DOSE OF STUDY DRUG,,,2012-07-22,-14,,,,,,,,,,,,,,,,,,Y,Y
286,CDISCPILOT01,01-701-1028,1028,701,USA,MH,2013-07-19,2014-01-14,2013-07-19,2014-01-14,2014-01-14T11:10,,,,,,,,,,,,NA,2013-07-11,-8,71,YEARS,>64,M,WHITE,White,NOT HISPANIC OR LATINO,Y,Xanomeline High Dose,Xan_Hi,Xanomeline High Dose,Xan_Hi,Xanomeline High Dose,Xanomeline High Dose,Xanomeline High Dose,Xanomeline High Dose,2013-07-19,2013-07-19T00:00:00Z,H,2014-01-14,2014-01-14T23:59:59Z,H,Screening,1,COMPLETED,2014-01-14,,2013-07-19,2014-01-14,180,,,,,4,VERBATIM_1775,,APPENDICECTOMY,SURGICAL AND MEDICAL PROCEDURES,APPENDECTOMY,HLT_0707,HLGT_0363,HISTORICAL DIAGNOSIS,1968,,,,,,,,,,Y,Y,,,1,SCREENING 1,-7,2013-07-11,-8,BEFORE,,SCREENING,FIRST DOSE OF STUDY DRUG,,,2013-07-11,-8,,,,,,,,,,,,,,,,,,Y,Y
287,CDISCPILOT01,01-701-1028,1028,701,USA,MH,2013-07-19,2014-01-14,2013-07-19,2014-01-14,2014-01-14T11:10,,,,,,,,,,,,NA,2013-07-11,-8,71,YEARS,>64,M,WHITE,White,NOT HISPANIC OR LATINO,Y,Xanomeline High Dose,Xan_Hi,Xanomeline High Dose,Xan_Hi,Xanomeline High Dose,Xanomeline High Dose,Xanomeline High Dose,Xanomeline High Dose,2013-07-19,2013-07-19T00:00:00Z,H,2014-01-14,2014-01-14T23:59:59Z,H,Screening,1,COMPLETED,2014-01-14,,2013-07-19,2014-01-14,180,,,,,3,VERBATIM_1686,,ARTHRITIS,MUSCULOSKELETAL AND CONNECTIVE TISSUE DISORDERS,ARTHRITIS,HLT_0019,HLGT_0587,SIGNIFICANT PRE-EXISTING CONDITION,,,,,,,,,,,Y,Y,E02,MODERATE,1,SCREENING 1,-7,2013-07-11,-8,BEFORE,,SCREENING,FIRST DOSE OF STUDY DRUG,,,2013-07-11,-8,,,,,,,,,,,,,,,,,,Y,Y
288,CDISCPILOT01,01-701-1028,1028,701,USA,MH,2013-07-19,2014-01-14,2013-07-19,2014-01-14,2014-01-14T11:10,,,,,,,,,,,,NA,2013-07-11,-8,71,YEARS,>64,M,WHITE,White,NOT HISPANIC OR LATINO,Y,Xanomeline High Dose,Xan_Hi,Xanomeline High Dose,Xan_Hi,Xanomeline High Dose,Xanomeline High Dose,Xanomeline High Dose,Xanomeline High Dose,2013-07-19,2013-07-19T00:00:00Z,H,2014-01-14,2014-01-14T23:59:59Z,H,Screening,1,COMPLETED,2014-01-14,,2013-07-19,2014-01-14,180,,,,,5,VERBATIM_1006,,LIPECTOMY,SURGICAL AND MEDICAL PROCEDURES,LIPECTOMY,HLT_0233,HLGT_0786,HISTORICAL DIAGNOSIS,1981,,,,,,,,,,Y,,,,1,SCREENING 1,-7,2013-07-11,-8,BEFORE,,SCREENING,FIRST DOSE OF STUDY DRUG,,,2013-07-11,-8,,,,,,,,,,,,,,,,,,,Y
289,CDISCPILOT01,01-701-1028,1028,701,USA,MH,2013-07-19,2014-01-14,2013-07-19,2014-01-14,2014-01-14T11:10,,,,,,,,,,,,NA,2013-07-11,-8,71,YEARS,>64,M,WHITE,White,NOT HISPANIC OR LATINO,Y,Xanomeline High Dose,Xan_Hi,Xanomeline High Dose,Xan_Hi,Xanomeline High Dose,Xanomeline High Dose,Xanomeline High Dose,Xanomeline High Dose,2013-07-19,2013-07-19T00:00:00Z,H,2014-01-14,2014-01-14T23:59:59Z,H,Screening,1,COMPLETED,2014-01-14,,2013-07-19,2014-01-14,180,,,,,1,VERBATIM_0428,,LIPOMA,"NEOPLASMS BENIGN, MALIGNANT AND UNSPECIFIED (INCL CYSTS AND POLYPS)",LIPOMA,HLT_0487,HLGT_0591,SIGNIFICANT PRE-EXISTING CONDITION,,,,,,,,,,,Y,Y,E01,MODERATE,1,SCREENING 1,-7,2013-07-11,-8,BEFORE,,SCREENING,FIRST DOSE OF STUDY DRUG,,,2013-07-11,-8,,,,,,,,,,,,,,,,,,Y,Y
290,CDISCPILOT01,01-701-1028,1028,701,USA,MH,2013-07-19,2014-01-14,2013-07-19,2014-01-14,2014-01-14T11:10,,,,,,,,,,,,NA,2013-07-11,-8,71,YEARS,>64,M,WHITE,White,NOT HISPANIC OR LATINO,Y,Xanomeline High Dose,Xan_Hi,Xanomeline High Dose,Xan_Hi,Xanomeline High Dose,Xanomeline High Dose,Xanomeline High Dose,Xanomeline High Dose,2013-07-19,2013-07-19T00:00:00Z,H,2014-01-14,2014-01-14T23:59:59Z,H,Screening,1,COMPLETED,2014-01-14,,2013-07-19,2014-01-14,180,,,,,2,VERBATIM_0507,,PRESBYOPIA,EYE DISORDERS,PRESBYOPIA,HLT_0230,HLGT_0759,SIGNIFICANT PRE-EXISTING CONDITION,,,,,,,,,,,Y,Y,E03,MILD,1,SCREENING 1,-7,2013-07-11,-8,BEFORE,,SCREENING,FIRST DOSE OF STUDY DRUG,,,2013-07-11,-8,,,,,,,,,,,,,,,,,,Y,Y
291,CDISCPILOT01,01-701-1033,1033,701,USA,MH,2014-03-18,2014-04-14,2014-03-18,2014-03-31,2014-09-15,,2014-09-15,,,,,,,,,,NA,2014-03-10,-8,74,YEARS,>64,M,WHITE,White,NOT HISPANIC OR LATINO,Y,Xanomeline Low Dose,Xan_Lo,Xanomeline Low Dose,Xan_Lo,Xanomeline Low Dose,Xanomeline Low Dose,Xanomeline Low Dose,Xanomeline Low Dose,2014-03-18,2014-03-18T00:00:00Z,H,2014-03-31,2014-03-31T23:59:59Z,H,Screening,1,DISCONTINUED,2014-04-14,,2014-03-18,2014-04-14,14,,,,,4,VERBATIM_0746,,ANGINA PECTORIS,CARDIAC DISORDERS,ANGINA PECTORIS,HLT_0033,HLGT_0063,SIGNIFICANT PRE-EXISTING CONDITION,,,,,,,,,,,Y,Y,E09,MILD,1,SCREENING 1,-7,2014-03-10,-8,BEFORE,,SCREENING,FIRST DOSE OF STUDY DRUG,,,2014-03-10,-8,,,,,,,,,,,,,,,,,,Y,Y
292,CDISCPILOT01,01-701-1033,1033,701,USA,MH,2014-03-18,2014-04-14,2014-03-18,2014-03-31,2014-09-15,,2014-09-15,,,,,,,,,,NA,2014-03-10,-8,74,YEARS,>64,M,WHITE,White,NOT HISPANIC OR LATINO,Y,Xanomeline Low Dose,Xan_Lo,Xanomeline Low Dose,Xan_Lo,Xanomeline Low Dose,Xanomeline Low Dose,Xanomeline Low Dose,Xanomeline Low Dose,2014-03-18,2014-03-18T00:00:00Z,H,2014-03-31,2014-03-31T23:59:59Z,H,Screening,1,DISCONTINUED,2014-04-14,,2014-03-18,2014-04-14,14,,,,,3,VERBATIM_0672,,ARTHRALGIA,MUSCULOSKELETAL AND CONNECTIVE TISSUE DISORDERS,KNEE PAIN,HLT_0375,HLGT_0610,SIGNIFICANT PRE-EXISTING CONDITION,,,,,,,,,,,Y,Y,E05,MILD,1,SCREENING 1,-7,2014-03-10,-8,BEFORE,,SCREENING,FIRST DOSE OF STUDY DRUG,,,2014-03-10,-8,,,,,,,,,,,,,,,,,,Y,Y
293,CDISCPILOT01,01-701-1033,1033,701,USA,MH,2014-03-18,2014-04-14,2014-03-18,2014-03-31,2014-09-15,,2014-09-15,,,,,,,,,,NA,2014-03-10,-8,74,YEARS,>64,M,WHITE,White,NOT HISPANIC OR LATINO,Y,Xanomeline Low Dose,Xan_Lo,Xanomeline Low Dose,Xan_Lo,Xanomeline Low Dose,Xanomeline Low Dose,Xanomeline Low Dose,Xanomeline Low Dose,2014-03-18,2014-03-18T00:00:00Z,H,2014-03-31,2014-03-31T23:59:59Z,H,Screening,1,DISCONTINUED,2014-04-14,,2014-03-18,2014-04-14,14,,,,,2,VERBATIM_0165,,BALANCE DISORDER,NERVOUS SYSTEM DISORDERS,BALANCE DIFFICULTY,HLT_0541,HLGT_0101,SIGNIFICANT PRE-EXISTING CONDITION,,,,,,,,,,,Y,,E03,MILD,1,SCREENING 1,-7,2014-03-10,-8,BEFORE,,SCREENING,FIRST DOSE OF STUDY DRUG,,,2014-03-10,-8,,,,,,,,,,,,,,,,,,,Y
294,CDISCPILOT01,01-701-1033,1033,701,USA,MH,2014-03-18,2014-04-14,2014-03-18,2014-03-31,2014-09-15,,2014-09-15,,,,,,,,,,NA,2014-03-10,-8,74,YEARS,>64,M,WHITE,White,NOT HISPANIC OR LATINO,Y,Xanomeline Low Dose,Xan_Lo,Xanomeline Low Dose,Xan_Lo,Xanomeline Low Dose,Xanomeline Low Dose,Xanomeline Low Dose,Xanomeline Low Dose,2014-03-18,2014-03-18T00:00:00Z,H,2014-03-31,2014-03-31T23:59:59Z,H,Screening,1,DISCONTINUED,2014-04-14,,2014-03-18,2014-04-14,14,,,,,1,VERBATIM_0138,,BENIGN PROSTATIC HYPERPLASIA,REPRODUCTIVE SYSTEM AND BREAST DISORDERS,BENIGN PROSTATIC HYPERTROPHY,HLT_0215,HLGT_0568,SIGNIFICANT PRE-EXISTING CONDITION,,,,,,,,,,,Y,Y,E02,MILD,1,SCREENING 1,-7,2014-03-10,-8,BEFORE,,SCREENING,FIRST DOSE OF STUDY DRUG,,,2014-03-10,-8,,,,,,,,,,,,,,,,,,Y,Y
295,CDISCPILOT01,01-701-1033,1033,701,USA,MH,2014-03-18,2014-04-14,2014-03-18,2014-03-31,2014-09-15,,2014-09-15,,,,,,,,,,NA,2014-03-10,-8,74,YEARS,>64,M,WHITE,White,NOT HISPANIC OR LATINO,Y,Xanomeline Low Dose,Xan_Lo,Xanomeline Low Dose,Xan_Lo,Xanomeline Low Dose,Xanomeline Low Dose,Xanomeline Low Dose,Xanomeline Low Dose,2014-03-18,2014-03-18T00:00:00Z,H,2014-03-31,2014-03-31T23:59:59Z,H,Screening,1,DISCONTINUED,2014-04-14,,2014-03-18,2014-04-14,14,,,,,6,VERBATIM_1421,,COUGH,"RESPIRATORY, THORACIC AND MEDIASTINAL DISORDERS",COUGH,HLT_0701,HLGT_0280,SIGNIFICANT PRE-EXISTING CONDITION,,,,,,,,,,,Y,,E08,MILD,1,SCREENING 1,-7,2014-03-10,-8,BEFORE,,SCREENING,FIRST DOSE OF STUDY DRUG,,,2014-03-10,-8,,,,,,,,,,,,,,,,,,,Y
296,CDISCPILOT01,01-701-1033,1033,701,USA,MH,2014-03-18,2014-04-14,2014-03-18,2014-03-31,2014-09-15,,2014-09-15,,,,,,,,,,NA,2014-03-10,-8,74,YEARS,>64,M,WHITE,White,NOT HISPANIC OR LATINO,Y,Xanomeline Low Dose,Xan_Lo,Xanomeline Low Dose,Xan_Lo,Xanomeline Low Dose,Xanomeline Low Dose,Xanomeline Low Dose,Xanomeline Low Dose,2014-03-18,2014-03-18T00:00:00Z,H,2014-03-31,2014-03-31T23:59:59Z,H,Screening,1,DISCONTINUED,2014-04-14,,2014-03-18,2014-04-14,14,,,,,24,VERBATIM_0816,,EOSINOPHILIC PNEUMONIA,"RESPIRATORY, THORACIC AND MEDIASTINAL DISORDERS",EOSINOPHILIC PNEUMONIA,HLT_0207,HLGT_0529,HISTORICAL DIAGNOSIS,2008,,,,,,,,,,Y,Y,,,1,SCREENING 1,-7,2014-03-10,-8,BEFORE,,SCREENING,FIRST DOSE OF STUDY DRUG,,,2014-03-10,-8,,,,,,,,,,,,,,,,,,,Y
297,CDISCPILOT01,01-701-1033,1033,701,USA,MH,2014-03-18,2014-04-14,2014-03-18,2014-03-31,2014-09-15,,2014-09-15,,,,,,,,,,NA,2014-03-10,-8,74,YEARS,>64,M,WHITE,White,NOT HISPANIC OR LATINO,Y,Xanomeline Low Dose,Xan_Lo,Xanomeline Low Dose,Xan_Lo,Xanomeline Low Dose,Xanomeline Low Dose,Xanomeline Low Dose,Xanomeline Low Dose,2014-03-18,2014-03-18T00:00:00Z,H,2014-03-31,2014-03-31T23:59:59Z,H,Screening,1,DISCONTINUED,2014-04-14,,2014-03-18,2014-04-14,14,,,,,18,VERBATIM_0991,,HAND REPAIR OPERATION,SURGICAL AND MEDICAL PROCEDURES,HAND REPAIR OPERATION,HLT_0581,HLGT_0276,HISTORICAL DIAGNOSIS,1982,,,,,,,,,,Y,Y,,,1,SCREENING 1,-7,2014-03-10,-8,BEFORE,,SCREENING,FIRST DOSE OF STUDY DRUG,,,2014-03-10,-8,,,,,,,,,,,,,,,,,,,Y
298,CDISCPILOT01,01-701-1033,1033,701,USA,MH,2014-03-18,2014-04-14,2014-03-18,2014-03-31,2014-09-15,,2014-09-15,,,,,,,,,,NA,2014-03-10,-8,74,YEARS,>64,M,WHITE,White,NOT HISPANIC OR LATINO,Y,Xanomeline Low Dose,Xan_Lo,Xanomeline Low Dose,Xan_Lo,Xanomeline Low Dose,Xanomeline Low Dose,Xanomeline Low Dose,Xanomeline Low Dose,2014-03-18,2014-03-18T00:00:00Z,H,2014-03-31,2014-03-31T23:59:59Z,H,Screening,1,DISCONTINUED,2014-04-14,,2014-03-18,2014-04-14,14,,,,,14,VERBATIM_0201,,IRON DEFICIENCY ANAEMIA,BLOOD AND LYMPHATIC SYSTEM DISORDERS,IRON DEFICIENCY ANEMIA,HLT_0331,HLGT_0739,HISTORICAL DIAGNOSIS,1972,,,,,,,,,,Y,Y,,,1,SCREENING 1,-7,2014-03-10,-8,BEFORE,,SCREENING,FIRST DOSE OF STUDY DRUG,,,2014-03-10,-8,,,,,,,,,,,,,,,,,,Y,Y
299,CDISCPILOT01,01-701-1033,1033,701,USA,MH,2014-03-18,2014-04-14,2014-03-18,2014-03-31,2014-09-15,,2014-09-15,,,,,,,,,,NA,2014-03-10,-8,74,YEARS,>64,M,WHITE,White,NOT HISPANIC OR LATINO,Y,Xanomeline Low Dose,Xan_Lo,Xanomeline Low Dose,Xan_Lo,Xanomeline Low Dose,Xanomeline Low Dose,Xanomeline Low Dose,Xanomeline Low Dose,2014-03-18,2014-03-18T00:00:00Z,H,2014-03-31,2014-03-31T23:59:59Z,H,Screening,1,DISCONTINUED,2014-04-14,,2014-03-18,2014-04-14,14,,,,,23,VERBATIM_1457,,JAW FRACTURE,"INJURY, POISONING AND PROCEDURAL COMPLICATIONS",FRACTURED JAW,HLT_0488,HLGT_0420,HISTORICAL DIAGNOSIS,2007,,,,,,,,,,Y,Y,,,1,SCREENING 1,-7,2014-03-10,-8,BEFORE,,SCREENING,FIRST DOSE OF STUDY DRUG,,,2014-03-10,-8,,,,,,,,,,,,,,,,,,,Y
300,CDISCPILOT01,01-701-1033,1033,701,USA,MH,2014-03-18,2014-04-14,2014-03-18,2014-03-31,2014-09-15,,2014-09-15,,,,,,,,,,NA,2014-03-10,-8,74,YEARS,>64,M,WHITE,White,NOT HISPANIC OR LATINO,Y,Xanomeline Low Dose,Xan_Lo,Xanomeline Low Dose,Xan_Lo,Xanomeline Low Dose,Xanomeline Low Dose,Xanomeline Low Dose,Xanomeline Low Dose,2014-03-18,2014-03-18T00:00:00Z,H,2014-03-31,2014-03-31T23:59:59Z,H,Screening,1,DISCONTINUED,2014-04-14,,2014-03-18,2014-04-14,14,,,,,25,VERBATIM_1209,,JOINT ARTHROPLASTY,SURGICAL AND MEDICAL PROCEDURES,JOINT PROSTHESIS INSERTION,HLT_0416,HLGT_0120,HISTORICAL DIAGNOSIS,2008,,,,,,,,,,Y,,,,1,SCREENING 1,-7,2014-03-10,-8,BEFORE,,SCREENING,FIRST DOSE OF STUDY DRUG,,,2014-03-10,-8,,,,,,,,,,,,,,,,,,,Y
301,CDISCPILOT01,01-701-1033,1033,701,USA,MH,2014-03-18,2014-04-14,2014-03-18,2014-03-31,2014-09-15,,2014-09-15,,,,,,,,,,NA,2014-03-10,-8,74,YEARS,>64,M,WHITE,White,NOT HISPANIC OR LATINO,Y,Xanomeline Low Dose,Xan_Lo,Xanomeline Low Dose,Xan_Lo,Xanomeline Low Dose,Xanomeline Low Dose,Xanomeline Low Dose,Xanomeline Low Dose,2014-03-18,2014-03-18T00:00:00Z,H,2014-03-31,2014-03-31T23:59:59Z,H,Screening,1,DISCONTINUED,2014-04-14,,2014-03-18,2014-04-14,14,,,,,15,VERBATIM_0429,,LACERATION,"INJURY, POISONING AND PROCEDURAL COMPLICATIONS",LACERATION,HLT_0668,HLGT_0567,HISTORICAL DIAGNOSIS,1982,,,,,,,,,,Y,,,,1,SCREENING 1,-7,2014-03-10,-8,BEFORE,,SCREENING,FIRST DOSE OF STUDY DRUG,,,2014-03-10,-8,,,,,,,,,,,,,,,,,,Y,Y
302,CDISCPILOT01,01-701-1033,1033,701,USA,MH,2014-03-18,2014-04-14,2014-03-18,2014-03-31,2014-09-15,,2014-09-15,,,,,,,,,,NA,2014-03-10,-8,74,YEARS,>64,M,WHITE,White,NOT HISPANIC OR LATINO,Y,Xanomeline Low Dose,Xan_Lo,Xanomeline Low Dose,Xan_Lo,Xanomeline Low Dose,Xanomeline Low Dose,Xanomeline Low Dose,Xanomeline Low Dose,2014-03-18,2014-03-18T00:00:00Z,H,2014-03-31,2014-03-31T23:59:59Z,H,Screening,1,DISCONTINUED,2014-04-14,,2014-03-18,2014-04-14,14,,,,,13,VERBATIM_1425,,LOCALISED OEDEMA,GENERAL DISORDERS AND ADMINISTRATION SITE CONDITIONS,LOCALIZED EDEMA,HLT_0410,HLGT_0372,HISTORICAL DIAGNOSIS,1964,,,,,,,,,,Y,Y,,,1,SCREENING 1,-7,2014-03-10,-8,BEFORE,,SCREENING,FIRST DOSE OF STUDY DRUG,,,2014-03-10,-8,,,,,,,,,,,,,,,,,,Y,Y
303,CDISCPILOT01,01-701-1033,1033,701,USA,MH,2014-03-18,2014-04-14,2014-03-18,2014-03-31,2014-09-15,,2014-09-15,,,,,,,,,,NA,2014-03-10,-8,74,YEARS,>64,M,WHITE,White,NOT HISPANIC OR LATINO,Y,Xanomeline Low Dose,Xan_Lo,Xanomeline Low Dose,Xan_Lo,Xanomeline Low Dose,Xanomeline Low Dose,Xanomeline Low Dose,Xanomeline Low Dose,2014-03-18,2014-03-18T00:00:00Z,H,2014-03-31,2014-03-31T23:59:59Z,H,Screening,1,DISCONTINUED,2014-04-14,,2014-03-18,2014-04-14,14,,,,,5,VERBATIM_0858,,MONARTHRITIS,MUSCULOSKELETAL AND CONNECTIVE TISSUE DISORDERS,GONARTHRITIS,HLT_0592,HLGT_0196,SIGNIFICANT PRE-EXISTING CONDITION,,,,,,,,,,,Y,,E04,MILD,1,SCREENING 1,-7,2014-03-10,-8,BEFORE,,SCREENING,FIRST DOSE OF STUDY DRUG,,,2014-03-10,-8,,,,,,,,,,,,,,,,,,,Y
304,CDISCPILOT01,01-701-1033,1033,701,USA,MH,2014-03-18,2014-04-14,2014-03-18,2014-03-31,2014-09-15,,2014-09-15,,,,,,,,,,NA,2014-03-10,-8,74,YEARS,>64,M,WHITE,White,NOT HISPANIC OR LATINO,Y,Xanomeline Low Dose,Xan_Lo,Xanomeline Low Dose,Xan_Lo,Xanomeline Low Dose,Xanomeline Low Dose,Xanomeline Low Dose,Xanomeline Low Dose,2014-03-18,2014-03-18T00:00:00Z,H,2014-03-31,2014-03-31T23:59:59Z,H,Screening,1,DISCONTINUED,2014-04-14,,2014-03-18,2014-04-14,14,,,,,7,VERBATIM_1532,,MYOPIA,EYE DISORDERS,MYOPIA,HLT_0282,HLGT_0271,SIGNIFICANT PRE-EXISTING CONDITION,,,,,,,,,,,Y,Y,E06,MILD,1,SCREENING 1,-7,2014-03-10,-8,BEFORE,,SCREENING,FIRST DOSE OF STUDY DRUG,,,2014-03-10,-8,,,,,,,,,,,,,,,,,,Y,Y
305,CDISCPILOT01,01-701-1033,1033,701,USA,MH,2014-03-18,2014-04-14,2014-03-18,2014-03-31,2014-09-15,,2014-09-15,,,,,,,,,,NA,2014-03-10,-8,74,YEARS,>64,M,WHITE,White,NOT HISPANIC OR LATINO,Y,Xanomeline Low Dose,Xan_Lo,Xanomeline Low Dose,Xan_Lo,Xanomeline Low Dose,Xanomeline Low Dose,Xanomeline Low Dose,Xanomeline Low Dose,2014-03-18,2014-03-18T00:00:00Z,H,2014-03-31,2014-03-31T23:59:59Z,H,Screening,1,DISCONTINUED,2014-04-14,,2014-03-18,2014-04-14,14,,,,,8,VERBATIM_1612,,NASAL CONGESTION,"RESPIRATORY, THORACIC AND MEDIASTINAL DISORDERS",NASAL CONGESTION,HLT_0118,HLGT_0549,SIGNIFICANT PRE-EXISTING CONDITION,,,,,,,,,,,Y,,E07,MILD,1,SCREENING 1,-7,2014-03-10,-8,BEFORE,,SCREENING,FIRST DOSE OF STUDY DRUG,,,2014-03-10,-8,,,,,,,,,,,,,,,,,,,Y
306,CDISCPILOT01,01-701-1033,1033,701,USA,MH,2014-03-18,2014-04-14,2014-03-18,2014-03-31,2014-09-15,,2014-09-15,,,,,,,,,,NA,2014-03-10,-8,74,YEARS,>64,M,WHITE,White,NOT HISPANIC OR LATINO,Y,Xanomeline Low Dose,Xan_Lo,Xanomeline Low Dose,Xan_Lo,Xanomeline Low Dose,Xanomeline Low Dose,Xanomeline Low Dose,Xanomeline Low Dose,2014-03-18,2014-03-18T00:00:00Z,H,2014-03-31,2014-03-31T23:59:59Z,H,Screening,1,DISCONTINUED,2014-04-14,,2014-03-18,2014-04-14,14,,,,,11,VERBATIM_0868,,NERVE COMPRESSION,NERVOUS SYSTEM DISORDERS,NERVE COMPRESSION,HLT_0463,HLGT_0502,HISTORICAL DIAGNOSIS,1955,,,,,,,,,,Y,Y,,,1,SCREENING 1,-7,2014-03-10,-8,BEFORE,,SCREENING,FIRST DOSE OF STUDY DRUG,,,2014-03-10,-8,,,,,,,,,,,,,,,,,,Y,Y
