rownames,STUDYID,USUBJID,SUBJID,SITEID,COUNTRY,RFSTDTC,RFENDTC,RFXSTDTC,RFXENDTC,RFPENDTC,SCRFDT,FRVDT,DTHDTC,DTHADY,DTHFL,LDDTHELD,LDDTHGR1,DTH30FL,DTHA30FL,DTHDOM,DTHB30FL,ASEQ,REGION1,DMDTC,DMDY,AGE,AGEU,AGEGR1,SEX,RACE,RACEGR1,ETHNIC,SAFFL,ARM,ARMCD,ACTARM,ACTARMCD,TRT01P,TRT01A,TRTSDT,TRTSDTM,TRTSTMF,TRTEDT,TRTEDTM,TRTETMF,EOSSTT,EOSDT,RFICDTC,RANDDT,LSTALVDT,TRTDURD,DTHDT,DTHDTF,DTHCAUS,DTHCGR1,DOSEP,DOSEA,DOSEU,ADT,ATM,ADTM,ADY,ATMF,ASTDT,ASTTM,ASTDTM,AENDT,AENTM,AENDTM,AVISIT,AVISITN,ATPT,ATPTN,ATPTREF,PARAM,PARAMCD,PARAMN,PARCAT1,AVAL,AVALU,AVALCAT1,BASE,BASETYPE,CHG,DTYPE,ABLFL,ANL01FL,ANL02FL,SRCDOM,SRCVAR,SRCSEQ,NFRLT,PCTESTCD,PCTEST,PCORRES,PCORRESU,PCSTRESC,PCSTRESN,PCSTRESU,PCNAM,PCSPEC,PCLLOQ,VISIT,VISITNUM,VISITDY,PCDTC,PCDY,PCTPT,PCTPTNUM,FANLDTM,AFRLT,ARRLT,PCRFTDTM,FANLDT,FANLTM,PCRFTDT,PCRFTTM,NRRLT,FRLTU,RRLTU,ALLOQ,MRRLT,HTBL,HTBLU,WTBL,WTBLU,BMIBL,BMIBLU
1,CDISCPILOT01,01-701-1028,1028,701,USA,2013-07-19,2014-01-14,2013-07-19,2014-01-14,2014-01-14T11:10,,,,,,,,,,,,1,NA,2013-07-11,-8,71,YEARS,>64,M,WHITE,White,NOT HISPANIC OR LATINO,Y,Xanomeline High Dose,Xan_Hi,Xanomeline High Dose,Xan_Hi,Xanomeline High Dose,Xanomeline High Dose,2013-07-19,2013-07-19T00:00:00Z,H,2014-01-14,2014-01-14T23:59:59Z,H,COMPLETED,2014-01-14,,2013-07-19,2014-01-14,180,,,,,81,54,mg,2013-07-18,23:30:00,2013-07-18T23:30:00Z,-1,,,,,,,,Day 1,1,Pre-dose,-0.5,Day 1,Pharmacokinetic concentration of Xanomeline,XAN,1,PLASMA,0,ug/ml,<BLQ,0,Day 1 Baseline,0,,Y,Y,Y,PC,SEQ,1,0,XAN,XANOMELINE,<BLQ,ug/ml,<BLQ,0,ug/ml,Imaginary Labs,PLASMA,0.01,BASELINE,3,1,2013-07-18T23:30:00,-1,Pre-dose,-0.5,2013-07-19T00:00:00Z,-0.5,-0.5,2013-07-19T00:00:00Z,2013-07-19,00:00:00,2013-07-19,00:00:00,0,HOURS,,0.01,0,177.8,cm,99.34,kg,31.423940398901205,kg/m^2
2,CDISCPILOT01,01-701-1028,1028,701,USA,2013-07-19,2014-01-14,2013-07-19,2014-01-14,2014-01-14T11:10,,,,,,,,,,,,2,NA,2013-07-11,-8,71,YEARS,>64,M,WHITE,White,NOT HISPANIC OR LATINO,Y,Xanomeline High Dose,Xan_Hi,Xanomeline High Dose,Xan_Hi,Xanomeline High Dose,Xanomeline High Dose,2013-07-19,2013-07-19T00:00:00Z,H,2014-01-14,2014-01-14T23:59:59Z,H,COMPLETED,2014-01-14,,2013-07-19,2014-01-14,180,,,,,81,54,mg,2013-07-19,00:00:00,2013-07-19T00:00:00Z,1,,2013-07-19,00:00:00,2013-07-19T00:00:00Z,2013-07-19,00:00:00,2013-07-19T00:00:00Z,Day 1,1,Dose,0,Day 1,Xanomeline Patch Dose,DOSE,2,,54,mg,,,Day 1 Baseline,,,,Y,Y,EX,SEQ,1,0,,,,,,,,,,,BASELINE,3,1,,,,,2013-07-19T00:00:00Z,0,0,2013-07-19T00:00:00Z,2013-07-19,00:00:00,2013-07-19,00:00:00,0,,,,0,177.8,cm,99.34,kg,31.423940398901205,kg/m^2
3,CDISCPILOT01,01-701-1028,1028,701,USA,2013-07-19,2014-01-14,2013-07-19,2014-01-14,2014-01-14T11:10,,,,,,,,,,,,3,NA,2013-07-11,-8,71,YEARS,>64,M,WHITE,White,NOT HISPANIC OR LATINO,Y,Xanomeline High Dose,Xan_Hi,Xanomeline High Dose,Xan_Hi,Xanomeline High Dose,Xanomeline High Dose,2013-07-19,2013-07-19T00:00:00Z,H,2014-01-14,2014-01-14T23:59:59Z,H,COMPLETED,2014-01-14,,2013-07-19,2014-01-14,180,,,,,81,54,mg,2013-07-19,00:05:00,2013-07-19T00:05:00Z,1,,,,,,,,Day 1,1,5 Min Post-dose,0.08,Day 1,Pharmacokinetic concentration of Xanomeline,XAN,1,PLASMA,0.10156622488224114,ug/ml,0.102,0,Day 1 Baseline,0.10156622488224114,,,Y,Y,PC,SEQ,2,0.08333333333333333,XAN,XANOMELINE,0.101566224882241,ug/ml,0.101566224882241,0.10156622488224114,ug/ml,Imaginary Labs,PLASMA,0.01,BASELINE,3,1,2013-07-19T00:05:00,1,5 Min Post-dose,0.08,2013-07-19T00:00:00Z,0.08333333333333333,0.08333333333333333,2013-07-19T00:00:00Z,2013-07-19,00:00:00,2013-07-19,00:00:00,0.08333333333333333,HOURS,HOURS,0.01,0.08333333333333333,177.8,cm,99.34,kg,31.423940398901205,kg/m^2
4,CDISCPILOT01,01-701-1028,1028,701,USA,2013-07-19,2014-01-14,2013-07-19,2014-01-14,2014-01-14T11:10,,,,,,,,,,,,4,NA,2013-07-11,-8,71,YEARS,>64,M,WHITE,White,NOT HISPANIC OR LATINO,Y,Xanomeline High Dose,Xan_Hi,Xanomeline High Dose,Xan_Hi,Xanomeline High Dose,Xanomeline High Dose,2013-07-19,2013-07-19T00:00:00Z,H,2014-01-14,2014-01-14T23:59:59Z,H,COMPLETED,2014-01-14,,2013-07-19,2014-01-14,180,,,,,81,54,mg,2013-07-19,00:30:00,2013-07-19T00:30:00Z,1,,,,,,,,Day 1,1,30 Min Post-dose,0.5,Day 1,Pharmacokinetic concentration of Xanomeline,XAN,1,PLASMA,0.5469017737088481,ug/ml,0.547,0,Day 1 Baseline,0.5469017737088481,,,Y,Y,PC,SEQ,3,0.5,XAN,XANOMELINE,0.546901773708848,ug/ml,0.546901773708848,0.5469017737088481,ug/ml,Imaginary Labs,PLASMA,0.01,BASELINE,3,1,2013-07-19T00:30:00,1,30 Min Post-dose,0.5,2013-07-19T00:00:00Z,0.5,0.5,2013-07-19T00:00:00Z,2013-07-19,00:00:00,2013-07-19,00:00:00,0.5,HOURS,HOURS,0.01,0.5,177.8,cm,99.34,kg,31.423940398901205,kg/m^2
5,CDISCPILOT01,01-701-1028,1028,701,USA,2013-07-19,2014-01-14,2013-07-19,2014-01-14,2014-01-14T11:10,,,,,,,,,,,,5,NA,2013-07-11,-8,71,YEARS,>64,M,WHITE,White,NOT HISPANIC OR LATINO,Y,Xanomeline High Dose,Xan_Hi,Xanomeline High Dose,Xan_Hi,Xanomeline High Dose,Xanomeline High Dose,2013-07-19,2013-07-19T00:00:00Z,H,2014-01-14,2014-01-14T23:59:59Z,H,COMPLETED,2014-01-14,,2013-07-19,2014-01-14,180,,,,,81,54,mg,2013-07-19,01:00:00,2013-07-19T01:00:00Z,1,,,,,,,,Day 1,1,1h Post-dose,1,Day 1,Pharmacokinetic concentration of Xanomeline,XAN,1,PLASMA,0.9254653871452886,ug/ml,0.925,0,Day 1 Baseline,0.9254653871452886,,,Y,Y,PC,SEQ,4,1,XAN,XANOMELINE,0.925465387145289,ug/ml,0.925465387145289,0.9254653871452886,ug/ml,Imaginary Labs,PLASMA,0.01,BASELINE,3,1,2013-07-19T01:00:00,1,1h Post-dose,1,2013-07-19T00:00:00Z,1,1,2013-07-19T00:00:00Z,2013-07-19,00:00:00,2013-07-19,00:00:00,1,HOURS,HOURS,0.01,1,177.8,cm,99.34,kg,31.423940398901205,kg/m^2
6,CDISCPILOT01,01-701-1028,1028,701,USA,2013-07-19,2014-01-14,2013-07-19,2014-01-14,2014-01-14T11:10,,,,,,,,,,,,6,NA,2013-07-11,-8,71,YEARS,>64,M,WHITE,White,NOT HISPANIC OR LATINO,Y,Xanomeline High Dose,Xan_Hi,Xanomeline High Dose,Xan_Hi,Xanomeline High Dose,Xanomeline High Dose,2013-07-19,2013-07-19T00:00:00Z,H,2014-01-14,2014-01-14T23:59:59Z,H,COMPLETED,2014-01-14,,2013-07-19,2014-01-14,180,,,,,81,54,mg,2013-07-19,01:30:00,2013-07-19T01:30:00Z,1,,,,,,,,Day 1,1,1.5h Post-dose,1.5,Day 1,Pharmacokinetic concentration of Xanomeline,XAN,1,PLASMA,1.1875058783402361,ug/ml,1.19,0,Day 1 Baseline,1.1875058783402361,,,Y,Y,PC,SEQ,5,1.5,XAN,XANOMELINE,1.18750587834024,ug/ml,1.18750587834024,1.1875058783402361,ug/ml,Imaginary Labs,PLASMA,0.01,BASELINE,3,1,2013-07-19T01:30:00,1,1.5h Post-dose,1.5,2013-07-19T00:00:00Z,1.5,1.5,2013-07-19T00:00:00Z,2013-07-19,00:00:00,2013-07-19,00:00:00,1.5,HOURS,HOURS,0.01,1.5,177.8,cm,99.34,kg,31.423940398901205,kg/m^2
7,CDISCPILOT01,01-701-1028,1028,701,USA,2013-07-19,2014-01-14,2013-07-19,2014-01-14,2014-01-14T11:10,,,,,,,,,,,,7,NA,2013-07-11,-8,71,YEARS,>64,M,WHITE,White,NOT HISPANIC OR LATINO,Y,Xanomeline High Dose,Xan_Hi,Xanomeline High Dose,Xan_Hi,Xanomeline High Dose,Xanomeline High Dose,2013-07-19,2013-07-19T00:00:00Z,H,2014-01-14,2014-01-14T23:59:59Z,H,COMPLETED,2014-01-14,,2013-07-19,2014-01-14,180,,,,,81,54,mg,2013-07-19,02:00:00,2013-07-19T02:00:00Z,1,,,,,,,,Day 1,1,2h Post-dose,2,Day 1,Pharmacokinetic concentration of Xanomeline,XAN,1,PLASMA,1.3688894466192254,ug/ml,1.37,0,Day 1 Baseline,1.3688894466192254,,,Y,Y,PC,SEQ,6,2,XAN,XANOMELINE,1.36888944661923,ug/ml,1.36888944661923,1.3688894466192254,ug/ml,Imaginary Labs,PLASMA,0.01,BASELINE,3,1,2013-07-19T02:00:00,1,2h Post-dose,2,2013-07-19T00:00:00Z,2,2,2013-07-19T00:00:00Z,2013-07-19,00:00:00,2013-07-19,00:00:00,2,HOURS,HOURS,0.01,2,177.8,cm,99.34,kg,31.423940398901205,kg/m^2
8,CDISCPILOT01,01-701-1028,1028,701,USA,2013-07-19,2014-01-14,2013-07-19,2014-01-14,2014-01-14T11:10,,,,,,,,,,,,8,NA,2013-07-11,-8,71,YEARS,>64,M,WHITE,White,NOT HISPANIC OR LATINO,Y,Xanomeline High Dose,Xan_Hi,Xanomeline High Dose,Xan_Hi,Xanomeline High Dose,Xanomeline High Dose,2013-07-19,2013-07-19T00:00:00Z,H,2014-01-14,2014-01-14T23:59:59Z,H,COMPLETED,2014-01-14,,2013-07-19,2014-01-14,180,,,,,81,54,mg,2013-07-19,04:00:00,2013-07-19T04:00:00Z,1,,,,,,,,Day 1,1,4h Post-dose,4,Day 1,Pharmacokinetic concentration of Xanomeline,XAN,1,PLASMA,1.6831475761644397,ug/ml,1.68,0,Day 1 Baseline,1.6831475761644397,,,Y,Y,PC,SEQ,7,4,XAN,XANOMELINE,1.68314757616444,ug/ml,1.68314757616444,1.6831475761644397,ug/ml,Imaginary Labs,PLASMA,0.01,BASELINE,3,1,2013-07-19T04:00:00,1,4h Post-dose,4,2013-07-19T00:00:00Z,4,4,2013-07-19T00:00:00Z,2013-07-19,00:00:00,2013-07-19,00:00:00,4,HOURS,HOURS,0.01,4,177.8,cm,99.34,kg,31.423940398901205,kg/m^2
9,CDISCPILOT01,01-701-1028,1028,701,USA,2013-07-19,2014-01-14,2013-07-19,2014-01-14,2014-01-14T11:10,,,,,,,,,,,,9,NA,2013-07-11,-8,71,YEARS,>64,M,WHITE,White,NOT HISPANIC OR LATINO,Y,Xanomeline High Dose,Xan_Hi,Xanomeline High Dose,Xan_Hi,Xanomeline High Dose,Xanomeline High Dose,2013-07-19,2013-07-19T00:00:00Z,H,2014-01-14,2014-01-14T23:59:59Z,H,COMPLETED,2014-01-14,,2013-07-19,2014-01-14,180,,,,,81,54,mg,2013-07-19,06:00:00,2013-07-19T06:00:00Z,1,,,,,,,,Day 1,1,0-6h Post-dose,3,Day 1,Pharmacokinetic concentration of Xanomeline,XAN,1,URINE,24.94237210847847,ug/ml,24.9,,Day 1 Baseline,,,,Y,Y,PC,SEQ,15,3,XAN,XANOMELINE,24.9423721084785,ug/ml,24.9423721084785,24.94237210847847,ug/ml,Imaginary Labs,URINE,0.01,BASELINE,3,1,2013-07-19T06:00:00,1,0-6h Post-dose,3,2013-07-19T00:00:00Z,6,6,2013-07-19T00:00:00Z,2013-07-19,00:00:00,2013-07-19,00:00:00,3,HOURS,HOURS,0.01,6,177.8,cm,99.34,kg,31.423940398901205,kg/m^2
10,CDISCPILOT01,01-701-1028,1028,701,USA,2013-07-19,2014-01-14,2013-07-19,2014-01-14,2014-01-14T11:10,,,,,,,,,,,,10,NA,2013-07-11,-8,71,YEARS,>64,M,WHITE,White,NOT HISPANIC OR LATINO,Y,Xanomeline High Dose,Xan_Hi,Xanomeline High Dose,Xan_Hi,Xanomeline High Dose,Xanomeline High Dose,2013-07-19,2013-07-19T00:00:00Z,H,2014-01-14,2014-01-14T23:59:59Z,H,COMPLETED,2014-01-14,,2013-07-19,2014-01-14,180,,,,,81,54,mg,2013-07-19,06:00:00,2013-07-19T06:00:00Z,1,,,,,,,,Day 1,1,6h Post-dose,6,Day 1,Pharmacokinetic concentration of Xanomeline,XAN,1,PLASMA,1.755292315266024,ug/ml,1.76,0,Day 1 Baseline,1.755292315266024,,,Y,Y,PC,SEQ,8,6,XAN,XANOMELINE,1.75529231526602,ug/ml,1.75529231526602,1.755292315266024,ug/ml,Imaginary Labs,PLASMA,0.01,BASELINE,3,1,2013-07-19T06:00:00,1,6h Post-dose,6,2013-07-19T00:00:00Z,6,6,2013-07-19T00:00:00Z,2013-07-19,00:00:00,2013-07-19,00:00:00,6,HOURS,HOURS,0.01,6,177.8,cm,99.34,kg,31.423940398901205,kg/m^2
11,CDISCPILOT01,01-701-1028,1028,701,USA,2013-07-19,2014-01-14,2013-07-19,2014-01-14,2014-01-14T11:10,,,,,,,,,,,,11,NA,2013-07-11,-8,71,YEARS,>64,M,WHITE,White,NOT HISPANIC OR LATINO,Y,Xanomeline High Dose,Xan_Hi,Xanomeline High Dose,Xan_Hi,Xanomeline High Dose,Xanomeline High Dose,2013-07-19,2013-07-19T00:00:00Z,H,2014-01-14,2014-01-14T23:59:59Z,H,COMPLETED,2014-01-14,,2013-07-19,2014-01-14,180,,,,,81,54,mg,2013-07-19,08:00:00,2013-07-19T08:00:00Z,1,,,,,,,,Day 1,1,8h Post-dose,8,Day 1,Pharmacokinetic concentration of Xanomeline,XAN,1,PLASMA,1.7718546978766763,ug/ml,1.77,0,Day 1 Baseline,1.7718546978766763,,,Y,Y,PC,SEQ,9,8,XAN,XANOMELINE,1.77185469787668,ug/ml,1.77185469787668,1.7718546978766763,ug/ml,Imaginary Labs,PLASMA,0.01,BASELINE,3,1,2013-07-19T08:00:00,1,8h Post-dose,8,2013-07-19T00:00:00Z,8,8,2013-07-19T00:00:00Z,2013-07-19,00:00:00,2013-07-19,00:00:00,8,HOURS,HOURS,0.01,8,177.8,cm,99.34,kg,31.423940398901205,kg/m^2
12,CDISCPILOT01,01-701-1028,1028,701,USA,2013-07-19,2014-01-14,2013-07-19,2014-01-14,2014-01-14T11:10,,,,,,,,,,,,12,NA,2013-07-11,-8,71,YEARS,>64,M,WHITE,White,NOT HISPANIC OR LATINO,Y,Xanomeline High Dose,Xan_Hi,Xanomeline High Dose,Xan_Hi,Xanomeline High Dose,Xanomeline High Dose,2013-07-19,2013-07-19T00:00:00Z,H,2014-01-14,2014-01-14T23:59:59Z,H,COMPLETED,2014-01-14,,2013-07-19,2014-01-14,180,,,,,81,54,mg,2013-07-19,12:00:00,2013-07-19T12:00:00Z,1,,,,,,,,Day 1,1,6-12h Post-dose,9,Day 1,Pharmacokinetic concentration of Xanomeline,XAN,1,URINE,20.527751057356966,ug/ml,20.5,,Day 1 Baseline,,,,Y,Y,PC,SEQ,16,9,XAN,XANOMELINE,20.527751057357,ug/ml,20.527751057357,20.527751057356966,ug/ml,Imaginary Labs,URINE,0.01,BASELINE,3,1,2013-07-19T12:00:00,1,6-12h Post-dose,9,2013-07-19T00:00:00Z,12,12,2013-07-19T00:00:00Z,2013-07-19,00:00:00,2013-07-19,00:00:00,9,HOURS,HOURS,0.01,12,177.8,cm,99.34,kg,31.423940398901205,kg/m^2
13,CDISCPILOT01,01-701-1028,1028,701,USA,2013-07-19,2014-01-14,2013-07-19,2014-01-14,2014-01-14T11:10,,,,,,,,,,,,13,NA,2013-07-11,-8,71,YEARS,>64,M,WHITE,White,NOT HISPANIC OR LATINO,Y,Xanomeline High Dose,Xan_Hi,Xanomeline High Dose,Xan_Hi,Xanomeline High Dose,Xanomeline High Dose,2013-07-19,2013-07-19T00:00:00Z,H,2014-01-14,2014-01-14T23:59:59Z,H,COMPLETED,2014-01-14,,2013-07-19,2014-01-14,180,,,,,81,54,mg,2013-07-19,12:00:00,2013-07-19T12:00:00Z,1,,,,,,,,Day 1,1,12h Post-dose,12,Day 1,Pharmacokinetic concentration of Xanomeline,XAN,1,PLASMA,0.49503584646525783,ug/ml,0.495,0,Day 1 Baseline,0.49503584646525783,,,Y,Y,PC,SEQ,10,12,XAN,XANOMELINE,0.495035846465258,ug/ml,0.495035846465258,0.49503584646525783,ug/ml,Imaginary Labs,PLASMA,0.01,BASELINE,3,1,2013-07-19T12:00:00,1,12h Post-dose,12,2013-07-19T00:00:00Z,12,12,2013-07-19T00:00:00Z,2013-07-19,00:00:00,2013-07-19,00:00:00,12,HOURS,HOURS,0.01,12,177.8,cm,99.34,kg,31.423940398901205,kg/m^2
14,CDISCPILOT01,01-701-1028,1028,701,USA,2013-07-19,2014-01-14,2013-07-19,2014-01-14,2014-01-14T11:10,,,,,,,,,,,,14,NA,2013-07-11,-8,71,YEARS,>64,M,WHITE,White,NOT HISPANIC OR LATINO,Y,Xanomeline High Dose,Xan_Hi,Xanomeline High Dose,Xan_Hi,Xanomeline High Dose,Xanomeline High Dose,2013-07-19,2013-07-19T00:00:00Z,H,2014-01-14,2014-01-14T23:59:59Z,H,COMPLETED,2014-01-14,,2013-07-19,2014-01-14,180,,,,,81,54,mg,2013-07-19,16:00:00,2013-07-19T16:00:00Z,1,,,,,,,,Day 1,1,16h Post-dose,16,Day 1,Pharmacokinetic concentration of Xanomeline,XAN,1,PLASMA,0.13792316325323037,ug/ml,0.138,0,Day 1 Baseline,0.13792316325323037,,,Y,Y,PC,SEQ,11,16,XAN,XANOMELINE,0.13792316325323,ug/ml,0.13792316325323,0.13792316325323037,ug/ml,Imaginary Labs,PLASMA,0.01,BASELINE,3,1,2013-07-19T16:00:00,1,16h Post-dose,16,2013-07-19T00:00:00Z,16,16,2013-07-19T00:00:00Z,2013-07-19,00:00:00,2013-07-19,00:00:00,16,HOURS,HOURS,0.01,16,177.8,cm,99.34,kg,31.423940398901205,kg/m^2
15,CDISCPILOT01,01-701-1028,1028,701,USA,2013-07-19,2014-01-14,2013-07-19,2014-01-14,2014-01-14T11:10,,,,,,,,,,,,15,NA,2013-07-11,-8,71,YEARS,>64,M,WHITE,White,NOT HISPANIC OR LATINO,Y,Xanomeline High Dose,Xan_Hi,Xanomeline High Dose,Xan_Hi,Xanomeline High Dose,Xanomeline High Dose,2013-07-19,2013-07-19T00:00:00Z,H,2014-01-14,2014-01-14T23:59:59Z,H,COMPLETED,2014-01-14,,2013-07-19,2014-01-14,180,,,,,81,54,mg,2013-07-20,00:00:00,2013-07-20T00:00:00Z,2,,,,,,,,Day 1,1,12-24h Post-dose,18,Day 1,Pharmacokinetic concentration of Xanomeline,XAN,1,URINE,11.698508955113962,ug/ml,11.7,,Day 1 Baseline,,,,Y,Y,PC,SEQ,17,18,XAN,XANOMELINE,11.698508955114,ug/ml,11.698508955114,11.698508955113962,ug/ml,Imaginary Labs,URINE,0.01,BASELINE,3,1,2013-07-20T00:00:00,2,12-24h Post-dose,18,2013-07-19T00:00:00Z,24,24,2013-07-19T00:00:00Z,2013-07-19,00:00:00,2013-07-19,00:00:00,18,HOURS,HOURS,0.01,24,177.8,cm,99.34,kg,31.423940398901205,kg/m^2
16,CDISCPILOT01,01-701-1028,1028,701,USA,2013-07-19,2014-01-14,2013-07-19,2014-01-14,2014-01-14T11:10,,,,,,,,,,,,16,NA,2013-07-11,-8,71,YEARS,>64,M,WHITE,White,NOT HISPANIC OR LATINO,Y,Xanomeline High Dose,Xan_Hi,Xanomeline High Dose,Xan_Hi,Xanomeline High Dose,Xanomeline High Dose,2013-07-19,2013-07-19T00:00:00Z,H,2014-01-14,2014-01-14T23:59:59Z,H,COMPLETED,2014-01-14,,2013-07-19,2014-01-14,180,,,,,81,54,mg,2013-07-20,00:00:00,2013-07-20T00:00:00Z,2,,,,,,,,Day 2,2,24h Post-dose,24,Day 1,Pharmacokinetic concentration of Xanomeline,XAN,1,PLASMA,0.010706273436356134,ug/ml,0.0107,0,Day 1 Baseline,0.010706273436356134,,,Y,Y,PC,SEQ,12,24,XAN,XANOMELINE,0.0107062734363561,ug/ml,0.0107062734363561,0.010706273436356134,ug/ml,Imaginary Labs,PLASMA,0.01,BASELINE,3,1,2013-07-20T00:00:00,2,24h Post-dose,24,2013-07-19T00:00:00Z,24,24,2013-07-19T00:00:00Z,2013-07-19,00:00:00,2013-07-19,00:00:00,24,HOURS,HOURS,0.01,24,177.8,cm,99.34,kg,31.423940398901205,kg/m^2
17,CDISCPILOT01,01-701-1028,1028,701,USA,2013-07-19,2014-01-14,2013-07-19,2014-01-14,2014-01-14T11:10,,,,,,,,,,,,17,NA,2013-07-11,-8,71,YEARS,>64,M,WHITE,White,NOT HISPANIC OR LATINO,Y,Xanomeline High Dose,Xan_Hi,Xanomeline High Dose,Xan_Hi,Xanomeline High Dose,Xanomeline High Dose,2013-07-19,2013-07-19T00:00:00Z,H,2014-01-14,2014-01-14T23:59:59Z,H,COMPLETED,2014-01-14,,2013-07-19,2014-01-14,180,,,,,81,54,mg,2013-07-20,00:00:00,2013-07-20T00:00:00Z,2,,,,,,,,Day 2,2,Pre-dose,-0.5,Day 2,Pharmacokinetic concentration of Xanomeline,XAN,1,PLASMA,0.010706273436356134,ug/ml,0.0107,0.010706273436356134,Day 2 Baseline,0,COPY,Y,Y,,PC,SEQ,12,24,XAN,XANOMELINE,0.0107062734363561,ug/ml,0.0107062734363561,0.010706273436356134,ug/ml,Imaginary Labs,PLASMA,0.01,BASELINE,3,1,2013-07-20T00:00:00,2,24h Post-dose,24,2013-07-19T00:00:00Z,24,0,2013-07-20T00:00:00Z,2013-07-19,00:00:00,2013-07-20,00:00:00,0,HOURS,HOURS,0.01,0,177.8,cm,99.34,kg,31.423940398901205,kg/m^2
18,CDISCPILOT01,01-701-1028,1028,701,USA,2013-07-19,2014-01-14,2013-07-19,2014-01-14,2014-01-14T11:10,,,,,,,,,,,,18,NA,2013-07-11,-8,71,YEARS,>64,M,WHITE,White,NOT HISPANIC OR LATINO,Y,Xanomeline High Dose,Xan_Hi,Xanomeline High Dose,Xan_Hi,Xanomeline High Dose,Xanomeline High Dose,2013-07-19,2013-07-19T00:00:00Z,H,2014-01-14,2014-01-14T23:59:59Z,H,COMPLETED,2014-01-14,,2013-07-19,2014-01-14,180,,,,,81,54,mg,2013-07-20,00:00:00,2013-07-20T00:00:00Z,2,,2013-07-20,00:00:00,2013-07-20T00:00:00Z,2013-07-20,00:00:00,2013-07-20T00:00:00Z,Day 2,2,Dose,0,Day 2,Xanomeline Patch Dose,DOSE,2,,54,mg,,,Day 2 Baseline,,,,Y,Y,EX,SEQ,1,24,,,,,,,,,,,BASELINE,3,1,,,,,2013-07-19T00:00:00Z,24,0,2013-07-20T00:00:00Z,2013-07-19,00:00:00,2013-07-20,00:00:00,0,,,,0,177.8,cm,99.34,kg,31.423940398901205,kg/m^2
19,CDISCPILOT01,01-701-1028,1028,701,USA,2013-07-19,2014-01-14,2013-07-19,2014-01-14,2014-01-14T11:10,,,,,,,,,,,,19,NA,2013-07-11,-8,71,YEARS,>64,M,WHITE,White,NOT HISPANIC OR LATINO,Y,Xanomeline High Dose,Xan_Hi,Xanomeline High Dose,Xan_Hi,Xanomeline High Dose,Xanomeline High Dose,2013-07-19,2013-07-19T00:00:00Z,H,2014-01-14,2014-01-14T23:59:59Z,H,COMPLETED,2014-01-14,,2013-07-19,2014-01-14,180,,,,,81,54,mg,2013-07-20,12:00:00,2013-07-20T12:00:00Z,2,,,,,,,,Day 2,2,36h Post-dose,36,Day 2,Pharmacokinetic concentration of Xanomeline,XAN,1,PLASMA,0.005,ug/ml,<BLQ,0.010706273436356134,Day 2 Baseline,-0.005706273436356134,HALFLLOQ,,Y,,PC,SEQ,13,36,XAN,XANOMELINE,<BLQ,ug/ml,<BLQ,,ug/ml,Imaginary Labs,PLASMA,0.01,BASELINE,3,1,2013-07-20T12:00:00,2,36h Post-dose,36,2013-07-19T00:00:00Z,36,12,2013-07-20T00:00:00Z,2013-07-19,00:00:00,2013-07-20,00:00:00,12,HOURS,HOURS,0.01,12,177.8,cm,99.34,kg,31.423940398901205,kg/m^2
20,CDISCPILOT01,01-701-1028,1028,701,USA,2013-07-19,2014-01-14,2013-07-19,2014-01-14,2014-01-14T11:10,,,,,,,,,,,,20,NA,2013-07-11,-8,71,YEARS,>64,M,WHITE,White,NOT HISPANIC OR LATINO,Y,Xanomeline High Dose,Xan_Hi,Xanomeline High Dose,Xan_Hi,Xanomeline High Dose,Xanomeline High Dose,2013-07-19,2013-07-19T00:00:00Z,H,2014-01-14,2014-01-14T23:59:59Z,H,COMPLETED,2014-01-14,,2013-07-19,2014-01-14,180,,,,,81,54,mg,2013-07-20,12:00:00,2013-07-20T12:00:00Z,2,,,,,,,,Day 2,2,36h Post-dose,36,Day 2,Pharmacokinetic concentration of Xanomeline,XAN,1,PLASMA,,ug/ml,<BLQ,0.010706273436356134,Day 2 Baseline,,,,Y,Y,PC,SEQ,13,36,XAN,XANOMELINE,<BLQ,ug/ml,<BLQ,,ug/ml,Imaginary Labs,PLASMA,0.01,BASELINE,3,1,2013-07-20T12:00:00,2,36h Post-dose,36,2013-07-19T00:00:00Z,36,12,2013-07-20T00:00:00Z,2013-07-19,00:00:00,2013-07-20,00:00:00,12,HOURS,HOURS,0.01,12,177.8,cm,99.34,kg,31.423940398901205,kg/m^2
21,CDISCPILOT01,01-701-1028,1028,701,USA,2013-07-19,2014-01-14,2013-07-19,2014-01-14,2014-01-14T11:10,,,,,,,,,,,,21,NA,2013-07-11,-8,71,YEARS,>64,M,WHITE,White,NOT HISPANIC OR LATINO,Y,Xanomeline High Dose,Xan_Hi,Xanomeline High Dose,Xan_Hi,Xanomeline High Dose,Xanomeline High Dose,2013-07-19,2013-07-19T00:00:00Z,H,2014-01-14,2014-01-14T23:59:59Z,H,COMPLETED,2014-01-14,,2013-07-19,2014-01-14,180,,,,,81,54,mg,2013-07-21,00:00:00,2013-07-21T00:00:00Z,3,,,,,,,,Day 2,2,24-48h Post-dose,37,Day 2,Pharmacokinetic concentration of Xanomeline,XAN,1,URINE,0.005,ug/ml,<BLQ,,Day 2 Baseline,,HALFLLOQ,,Y,,PC,SEQ,18,36,XAN,XANOMELINE,<BLQ,ug/ml,<BLQ,,ug/ml,Imaginary Labs,URINE,0.01,BASELINE,3,1,2013-07-21T00:00:00,3,24-48h Post-dose,37,2013-07-19T00:00:00Z,48,24,2013-07-20T00:00:00Z,2013-07-19,00:00:00,2013-07-20,00:00:00,12,HOURS,HOURS,0.01,24,177.8,cm,99.34,kg,31.423940398901205,kg/m^2
22,CDISCPILOT01,01-701-1028,1028,701,USA,2013-07-19,2014-01-14,2013-07-19,2014-01-14,2014-01-14T11:10,,,,,,,,,,,,22,NA,2013-07-11,-8,71,YEARS,>64,M,WHITE,White,NOT HISPANIC OR LATINO,Y,Xanomeline High Dose,Xan_Hi,Xanomeline High Dose,Xan_Hi,Xanomeline High Dose,Xanomeline High Dose,2013-07-19,2013-07-19T00:00:00Z,H,2014-01-14,2014-01-14T23:59:59Z,H,COMPLETED,2014-01-14,,2013-07-19,2014-01-14,180,,,,,81,54,mg,2013-07-21,00:00:00,2013-07-21T00:00:00Z,3,,,,,,,,Day 2,2,24-48h Post-dose,37,Day 2,Pharmacokinetic concentration of Xanomeline,XAN,1,URINE,,ug/ml,<BLQ,,Day 2 Baseline,,,,Y,Y,PC,SEQ,18,36,XAN,XANOMELINE,<BLQ,ug/ml,<BLQ,,ug/ml,Imaginary Labs,URINE,0.01,BASELINE,3,1,2013-07-21T00:00:00,3,24-48h Post-dose,37,2013-07-19T00:00:00Z,48,24,2013-07-20T00:00:00Z,2013-07-19,00:00:00,2013-07-20,00:00:00,12,HOURS,HOURS,0.01,24,177.8,cm,99.34,kg,31.423940398901205,kg/m^2
23,CDISCPILOT01,01-701-1028,1028,701,USA,2013-07-19,2014-01-14,2013-07-19,2014-01-14,2014-01-14T11:10,,,,,,,,,,,,23,NA,2013-07-11,-8,71,YEARS,>64,M,WHITE,White,NOT HISPANIC OR LATINO,Y,Xanomeline High Dose,Xan_Hi,Xanomeline High Dose,Xan_Hi,Xanomeline High Dose,Xanomeline High Dose,2013-07-19,2013-07-19T00:00:00Z,H,2014-01-14,2014-01-14T23:59:59Z,H,COMPLETED,2014-01-14,,2013-07-19,2014-01-14,180,,,,,81,54,mg,2013-07-21,00:00:00,2013-07-21T00:00:00Z,3,,,,,,,,Day 3,3,48h Post-dose,48,Day 2,Pharmacokinetic concentration of Xanomeline,XAN,1,PLASMA,0.005,ug/ml,<BLQ,0.010706273436356134,Day 2 Baseline,-0.005706273436356134,HALFLLOQ,,Y,,PC,SEQ,14,48,XAN,XANOMELINE,<BLQ,ug/ml,<BLQ,,ug/ml,Imaginary Labs,PLASMA,0.01,BASELINE,3,1,2013-07-21T00:00:00,3,48h Post-dose,48,2013-07-19T00:00:00Z,48,24,2013-07-20T00:00:00Z,2013-07-19,00:00:00,2013-07-20,00:00:00,24,HOURS,HOURS,0.01,24,177.8,cm,99.34,kg,31.423940398901205,kg/m^2
24,CDISCPILOT01,01-701-1028,1028,701,USA,2013-07-19,2014-01-14,2013-07-19,2014-01-14,2014-01-14T11:10,,,,,,,,,,,,24,NA,2013-07-11,-8,71,YEARS,>64,M,WHITE,White,NOT HISPANIC OR LATINO,Y,Xanomeline High Dose,Xan_Hi,Xanomeline High Dose,Xan_Hi,Xanomeline High Dose,Xanomeline High Dose,2013-07-19,2013-07-19T00:00:00Z,H,2014-01-14,2014-01-14T23:59:59Z,H,COMPLETED,2014-01-14,,2013-07-19,2014-01-14,180,,,,,81,54,mg,2013-07-21,00:00:00,2013-07-21T00:00:00Z,3,,,,,,,,Day 3,3,48h Post-dose,48,Day 2,Pharmacokinetic concentration of Xanomeline,XAN,1,PLASMA,,ug/ml,<BLQ,0.010706273436356134,Day 2 Baseline,,,,Y,Y,PC,SEQ,14,48,XAN,XANOMELINE,<BLQ,ug/ml,<BLQ,,ug/ml,Imaginary Labs,PLASMA,0.01,BASELINE,3,1,2013-07-21T00:00:00,3,48h Post-dose,48,2013-07-19T00:00:00Z,48,24,2013-07-20T00:00:00Z,2013-07-19,00:00:00,2013-07-20,00:00:00,24,HOURS,HOURS,0.01,24,177.8,cm,99.34,kg,31.423940398901205,kg/m^2
25,CDISCPILOT01,01-701-1028,1028,701,USA,2013-07-19,2014-01-14,2013-07-19,2014-01-14,2014-01-14T11:10,,,,,,,,,,,,25,NA,2013-07-11,-8,71,YEARS,>64,M,WHITE,White,NOT HISPANIC OR LATINO,Y,Xanomeline High Dose,Xan_Hi,Xanomeline High Dose,Xan_Hi,Xanomeline High Dose,Xanomeline High Dose,2013-07-19,2013-07-19T00:00:00Z,H,2014-01-14,2014-01-14T23:59:59Z,H,COMPLETED,2014-01-14,,2013-07-19,2014-01-14,180,,,,,81,54,mg,2013-07-21,00:00:00,2013-07-21T00:00:00Z,3,,,,,,,,Day 3,3,Pre-dose,-0.5,Day 3,Pharmacokinetic concentration of Xanomeline,XAN,1,PLASMA,,ug/ml,<BLQ,0.005,Day 3 Baseline,,COPY,,Y,,PC,SEQ,14,48,XAN,XANOMELINE,<BLQ,ug/ml,<BLQ,,ug/ml,Imaginary Labs,PLASMA,0.01,BASELINE,3,1,2013-07-21T00:00:00,3,48h Post-dose,48,2013-07-19T00:00:00Z,48,0,2013-07-21T00:00:00Z,2013-07-19,00:00:00,2013-07-21,00:00:00,0,HOURS,HOURS,0.01,0,177.8,cm,99.34,kg,31.423940398901205,kg/m^2
26,CDISCPILOT01,01-701-1028,1028,701,USA,2013-07-19,2014-01-14,2013-07-19,2014-01-14,2014-01-14T11:10,,,,,,,,,,,,26,NA,2013-07-11,-8,71,YEARS,>64,M,WHITE,White,NOT HISPANIC OR LATINO,Y,Xanomeline High Dose,Xan_Hi,Xanomeline High Dose,Xan_Hi,Xanomeline High Dose,Xanomeline High Dose,2013-07-19,2013-07-19T00:00:00Z,H,2014-01-14,2014-01-14T23:59:59Z,H,COMPLETED,2014-01-14,,2013-07-19,2014-01-14,180,,,,,81,54,mg,2013-07-21,00:00:00,2013-07-21T00:00:00Z,3,,,,,,,,Day 3,3,Pre-dose,-0.5,Day 3,Pharmacokinetic concentration of Xanomeline,XAN,1,PLASMA,0.005,ug/ml,<BLQ,0.005,Day 3 Baseline,0,COPY/HALFLLOQ,Y,Y,,PC,SEQ,14,48,XAN,XANOMELINE,<BLQ,ug/ml,<BLQ,,ug/ml,Imaginary Labs,PLASMA,0.01,BASELINE,3,1,2013-07-21T00:00:00,3,48h Post-dose,48,2013-07-19T00:00:00Z,48,0,2013-07-21T00:00:00Z,2013-07-19,00:00:00,2013-07-21,00:00:00,0,HOURS,HOURS,0.01,0,177.8,cm,99.34,kg,31.423940398901205,kg/m^2
27,CDISCPILOT01,01-701-1028,1028,701,USA,2013-07-19,2014-01-14,2013-07-19,2014-01-14,2014-01-14T11:10,,,,,,,,,,,,27,NA,2013-07-11,-8,71,YEARS,>64,M,WHITE,White,NOT HISPANIC OR LATINO,Y,Xanomeline High Dose,Xan_Hi,Xanomeline High Dose,Xan_Hi,Xanomeline High Dose,Xanomeline High Dose,2013-07-19,2013-07-19T00:00:00Z,H,2014-01-14,2014-01-14T23:59:59Z,H,COMPLETED,2014-01-14,,2013-07-19,2014-01-14,180,,,,,81,54,mg,2013-07-21,00:00:00,2013-07-21T00:00:00Z,3,,2013-07-21,00:00:00,2013-07-21T00:00:00Z,2013-07-21,00:00:00,2013-07-21T00:00:00Z,Day 3,3,Dose,0,Day 3,Xanomeline Patch Dose,DOSE,2,,54,mg,,,Day 3 Baseline,,,,Y,Y,EX,SEQ,1,48,,,,,,,,,,,BASELINE,3,1,,,,,2013-07-19T00:00:00Z,48,0,2013-07-21T00:00:00Z,2013-07-19,00:00:00,2013-07-21,00:00:00,0,,,,0,177.8,cm,99.34,kg,31.423940398901205,kg/m^2
28,CDISCPILOT01,01-701-1033,1033,701,USA,2014-03-18,2014-04-14,2014-03-18,2014-03-31,2014-09-15,,2014-09-15,,,,,,,,,,1,NA,2014-03-10,-8,74,YEARS,>64,M,WHITE,White,NOT HISPANIC OR LATINO,Y,Xanomeline Low Dose,Xan_Lo,Xanomeline Low Dose,Xan_Lo,Xanomeline Low Dose,Xanomeline Low Dose,2014-03-18,2014-03-18T00:00:00Z,H,2014-03-31,2014-03-31T23:59:59Z,H,DISCONTINUED,2014-04-14,,2014-03-18,2014-04-14,14,,,,,54,54,mg,2014-03-17,23:30:00,2014-03-17T23:30:00Z,-1,,,,,,,,Day 1,1,Pre-dose,-0.5,Day 1,Pharmacokinetic concentration of Xanomeline,XAN,1,PLASMA,0,ug/ml,<BLQ,0,Day 1 Baseline,0,,Y,Y,Y,PC,SEQ,1,0,XAN,XANOMELINE,<BLQ,ug/ml,<BLQ,0,ug/ml,Imaginary Labs,PLASMA,0.01,BASELINE,3,1,2014-03-17T23:30:00,-1,Pre-dose,-0.5,2014-03-18T00:00:00Z,-0.5,-0.5,2014-03-18T00:00:00Z,2014-03-18,00:00:00,2014-03-18,00:00:00,0,HOURS,,0.01,0,175.26,cm,88.45,kg,28.796003821791306,kg/m^2
29,CDISCPILOT01,01-701-1033,1033,701,USA,2014-03-18,2014-04-14,2014-03-18,2014-03-31,2014-09-15,,2014-09-15,,,,,,,,,,2,NA,2014-03-10,-8,74,YEARS,>64,M,WHITE,White,NOT HISPANIC OR LATINO,Y,Xanomeline Low Dose,Xan_Lo,Xanomeline Low Dose,Xan_Lo,Xanomeline Low Dose,Xanomeline Low Dose,2014-03-18,2014-03-18T00:00:00Z,H,2014-03-31,2014-03-31T23:59:59Z,H,DISCONTINUED,2014-04-14,,2014-03-18,2014-04-14,14,,,,,54,54,mg,2014-03-18,00:00:00,2014-03-18T00:00:00Z,1,,2014-03-18,00:00:00,2014-03-18T00:00:00Z,2014-03-18,00:00:00,2014-03-18T00:00:00Z,Day 1,1,Dose,0,Day 1,Xanomeline Patch Dose,DOSE,2,,54,mg,,,Day 1 Baseline,,,,Y,Y,EX,SEQ,1,0,,,,,,,,,,,BASELINE,3,1,,,,,2014-03-18T00:00:00Z,0,0,2014-03-18T00:00:00Z,2014-03-18,00:00:00,2014-03-18,00:00:00,0,,,,0,175.26,cm,88.45,kg,28.796003821791306,kg/m^2
30,CDISCPILOT01,01-701-1033,1033,701,USA,2014-03-18,2014-04-14,2014-03-18,2014-03-31,2014-09-15,,2014-09-15,,,,,,,,,,3,NA,2014-03-10,-8,74,YEARS,>64,M,WHITE,White,NOT HISPANIC OR LATINO,Y,Xanomeline Low Dose,Xan_Lo,Xanomeline Low Dose,Xan_Lo,Xanomeline Low Dose,Xanomeline Low Dose,2014-03-18,2014-03-18T00:00:00Z,H,2014-03-31,2014-03-31T23:59:59Z,H,DISCONTINUED,2014-04-14,,2014-03-18,2014-04-14,14,,,,,54,54,mg,2014-03-18,00:05:00,2014-03-18T00:05:00Z,1,,,,,,,,Day 1,1,5 Min Post-dose,0.08,Day 1,Pharmacokinetic concentration of Xanomeline,XAN,1,PLASMA,0.10052549817896052,ug/ml,0.101,0,Day 1 Baseline,0.10052549817896052,,,Y,Y,PC,SEQ,2,0.08333333333333333,XAN,XANOMELINE,0.100525498178961,ug/ml,0.100525498178961,0.10052549817896052,ug/ml,Imaginary Labs,PLASMA,0.01,BASELINE,3,1,2014-03-18T00:05:00,1,5 Min Post-dose,0.08,2014-03-18T00:00:00Z,0.08333333333333333,0.08333333333333333,2014-03-18T00:00:00Z,2014-03-18,00:00:00,2014-03-18,00:00:00,0.08333333333333333,HOURS,HOURS,0.01,0.08333333333333333,175.26,cm,88.45,kg,28.796003821791306,kg/m^2
31,CDISCPILOT01,01-701-1033,1033,701,USA,2014-03-18,2014-04-14,2014-03-18,2014-03-31,2014-09-15,,2014-09-15,,,,,,,,,,4,NA,2014-03-10,-8,74,YEARS,>64,M,WHITE,White,NOT HISPANIC OR LATINO,Y,Xanomeline Low Dose,Xan_Lo,Xanomeline Low Dose,Xan_Lo,Xanomeline Low Dose,Xanomeline Low Dose,2014-03-18,2014-03-18T00:00:00Z,H,2014-03-31,2014-03-31T23:59:59Z,H,DISCONTINUED,2014-04-14,,2014-03-18,2014-04-14,14,,,,,54,54,mg,2014-03-18,00:30:00,2014-03-18T00:30:00Z,1,,,,,,,,Day 1,1,30 Min Post-dose,0.5,Day 1,Pharmacokinetic concentration of Xanomeline,XAN,1,PLASMA,0.5479630370653037,ug/ml,0.548,0,Day 1 Baseline,0.5479630370653037,,,Y,Y,PC,SEQ,3,0.5,XAN,XANOMELINE,0.547963037065304,ug/ml,0.547963037065304,0.5479630370653037,ug/ml,Imaginary Labs,PLASMA,0.01,BASELINE,3,1,2014-03-18T00:30:00,1,30 Min Post-dose,0.5,2014-03-18T00:00:00Z,0.5,0.5,2014-03-18T00:00:00Z,2014-03-18,00:00:00,2014-03-18,00:00:00,0.5,HOURS,HOURS,0.01,0.5,175.26,cm,88.45,kg,28.796003821791306,kg/m^2
32,CDISCPILOT01,01-701-1033,1033,701,USA,2014-03-18,2014-04-14,2014-03-18,2014-03-31,2014-09-15,,2014-09-15,,,,,,,,,,5,NA,2014-03-10,-8,74,YEARS,>64,M,WHITE,White,NOT HISPANIC OR LATINO,Y,Xanomeline Low Dose,Xan_Lo,Xanomeline Low Dose,Xan_Lo,Xanomeline Low Dose,Xanomeline Low Dose,2014-03-18,2014-03-18T00:00:00Z,H,2014-03-31,2014-03-31T23:59:59Z,H,DISCONTINUED,2014-04-14,,2014-03-18,2014-04-14,14,,,,,54,54,mg,2014-03-18,01:00:00,2014-03-18T01:00:00Z,1,,,,,,,,Day 1,1,1h Post-dose,1,Day 1,Pharmacokinetic concentration of Xanomeline,XAN,1,PLASMA,0.9393066785488768,ug/ml,0.939,0,Day 1 Baseline,0.9393066785488768,,,Y,Y,PC,SEQ,4,1,XAN,XANOMELINE,0.939306678548877,ug/ml,0.939306678548877,0.9393066785488768,ug/ml,Imaginary Labs,PLASMA,0.01,BASELINE,3,1,2014-03-18T01:00:00,1,1h Post-dose,1,2014-03-18T00:00:00Z,1,1,2014-03-18T00:00:00Z,2014-03-18,00:00:00,2014-03-18,00:00:00,1,HOURS,HOURS,0.01,1,175.26,cm,88.45,kg,28.796003821791306,kg/m^2
33,CDISCPILOT01,01-701-1033,1033,701,USA,2014-03-18,2014-04-14,2014-03-18,2014-03-31,2014-09-15,,2014-09-15,,,,,,,,,,6,NA,2014-03-10,-8,74,YEARS,>64,M,WHITE,White,NOT HISPANIC OR LATINO,Y,Xanomeline Low Dose,Xan_Lo,Xanomeline Low Dose,Xan_Lo,Xanomeline Low Dose,Xanomeline Low Dose,2014-03-18,2014-03-18T00:00:00Z,H,2014-03-31,2014-03-31T23:59:59Z,H,DISCONTINUED,2014-04-14,,2014-03-18,2014-04-14,14,,,,,54,54,mg,2014-03-18,01:30:00,2014-03-18T01:30:00Z,1,,,,,,,,Day 1,1,1.5h Post-dose,1.5,Day 1,Pharmacokinetic concentration of Xanomeline,XAN,1,PLASMA,1.218796051682218,ug/ml,1.22,0,Day 1 Baseline,1.218796051682218,,,Y,Y,PC,SEQ,5,1.5,XAN,XANOMELINE,1.21879605168222,ug/ml,1.21879605168222,1.218796051682218,ug/ml,Imaginary Labs,PLASMA,0.01,BASELINE,3,1,2014-03-18T01:30:00,1,1.5h Post-dose,1.5,2014-03-18T00:00:00Z,1.5,1.5,2014-03-18T00:00:00Z,2014-03-18,00:00:00,2014-03-18,00:00:00,1.5,HOURS,HOURS,0.01,1.5,175.26,cm,88.45,kg,28.796003821791306,kg/m^2
34,CDISCPILOT01,01-701-1033,1033,701,USA,2014-03-18,2014-04-14,2014-03-18,2014-03-31,2014-09-15,,2014-09-15,,,,,,,,,,7,NA,2014-03-10,-8,74,YEARS,>64,M,WHITE,White,NOT HISPANIC OR LATINO,Y,Xanomeline Low Dose,Xan_Lo,Xanomeline Low Dose,Xan_Lo,Xanomeline Low Dose,Xanomeline Low Dose,2014-03-18,2014-03-18T00:00:00Z,H,2014-03-31,2014-03-31T23:59:59Z,H,DISCONTINUED,2014-04-14,,2014-03-18,2014-04-14,14,,,,,54,54,mg,2014-03-18,02:00:00,2014-03-18T02:00:00Z,1,,,,,,,,Day 1,1,2h Post-dose,2,Day 1,Pharmacokinetic concentration of Xanomeline,XAN,1,PLASMA,1.4184014659885265,ug/ml,1.42,0,Day 1 Baseline,1.4184014659885265,,,Y,Y,PC,SEQ,6,2,XAN,XANOMELINE,1.41840146598853,ug/ml,1.41840146598853,1.4184014659885265,ug/ml,Imaginary Labs,PLASMA,0.01,BASELINE,3,1,2014-03-18T02:00:00,1,2h Post-dose,2,2014-03-18T00:00:00Z,2,2,2014-03-18T00:00:00Z,2014-03-18,00:00:00,2014-03-18,00:00:00,2,HOURS,HOURS,0.01,2,175.26,cm,88.45,kg,28.796003821791306,kg/m^2
35,CDISCPILOT01,01-701-1033,1033,701,USA,2014-03-18,2014-04-14,2014-03-18,2014-03-31,2014-09-15,,2014-09-15,,,,,,,,,,8,NA,2014-03-10,-8,74,YEARS,>64,M,WHITE,White,NOT HISPANIC OR LATINO,Y,Xanomeline Low Dose,Xan_Lo,Xanomeline Low Dose,Xan_Lo,Xanomeline Low Dose,Xanomeline Low Dose,2014-03-18,2014-03-18T00:00:00Z,H,2014-03-31,2014-03-31T23:59:59Z,H,DISCONTINUED,2014-04-14,,2014-03-18,2014-04-14,14,,,,,54,54,mg,2014-03-18,04:00:00,2014-03-18T04:00:00Z,1,,,,,,,,Day 1,1,4h Post-dose,4,Day 1,Pharmacokinetic concentration of Xanomeline,XAN,1,PLASMA,1.787402210598094,ug/ml,1.79,0,Day 1 Baseline,1.787402210598094,,,Y,Y,PC,SEQ,7,4,XAN,XANOMELINE,1.78740221059809,ug/ml,1.78740221059809,1.787402210598094,ug/ml,Imaginary Labs,PLASMA,0.01,BASELINE,3,1,2014-03-18T04:00:00,1,4h Post-dose,4,2014-03-18T00:00:00Z,4,4,2014-03-18T00:00:00Z,2014-03-18,00:00:00,2014-03-18,00:00:00,4,HOURS,HOURS,0.01,4,175.26,cm,88.45,kg,28.796003821791306,kg/m^2
36,CDISCPILOT01,01-701-1033,1033,701,USA,2014-03-18,2014-04-14,2014-03-18,2014-03-31,2014-09-15,,2014-09-15,,,,,,,,,,9,NA,2014-03-10,-8,74,YEARS,>64,M,WHITE,White,NOT HISPANIC OR LATINO,Y,Xanomeline Low Dose,Xan_Lo,Xanomeline Low Dose,Xan_Lo,Xanomeline Low Dose,Xanomeline Low Dose,2014-03-18,2014-03-18T00:00:00Z,H,2014-03-31,2014-03-31T23:59:59Z,H,DISCONTINUED,2014-04-14,,2014-03-18,2014-04-14,14,,,,,54,54,mg,2014-03-18,06:00:00,2014-03-18T06:00:00Z,1,,,,,,,,Day 1,1,0-6h Post-dose,3,Day 1,Pharmacokinetic concentration of Xanomeline,XAN,1,URINE,28.044023976471927,ug/ml,28,,Day 1 Baseline,,,,Y,Y,PC,SEQ,15,3,XAN,XANOMELINE,28.0440239764719,ug/ml,28.0440239764719,28.044023976471927,ug/ml,Imaginary Labs,URINE,0.01,BASELINE,3,1,2014-03-18T06:00:00,1,0-6h Post-dose,3,2014-03-18T00:00:00Z,6,6,2014-03-18T00:00:00Z,2014-03-18,00:00:00,2014-03-18,00:00:00,3,HOURS,HOURS,0.01,6,175.26,cm,88.45,kg,28.796003821791306,kg/m^2
37,CDISCPILOT01,01-701-1033,1033,701,USA,2014-03-18,2014-04-14,2014-03-18,2014-03-31,2014-09-15,,2014-09-15,,,,,,,,,,10,NA,2014-03-10,-8,74,YEARS,>64,M,WHITE,White,NOT HISPANIC OR LATINO,Y,Xanomeline Low Dose,Xan_Lo,Xanomeline Low Dose,Xan_Lo,Xanomeline Low Dose,Xanomeline Low Dose,2014-03-18,2014-03-18T00:00:00Z,H,2014-03-31,2014-03-31T23:59:59Z,H,DISCONTINUED,2014-04-14,,2014-03-18,2014-04-14,14,,,,,54,54,mg,2014-03-18,06:00:00,2014-03-18T06:00:00Z,1,,,,,,,,Day 1,1,6h Post-dose,6,Day 1,Pharmacokinetic concentration of Xanomeline,XAN,1,PLASMA,1.8833986916984014,ug/ml,1.88,0,Day 1 Baseline,1.8833986916984014,,,Y,Y,PC,SEQ,8,6,XAN,XANOMELINE,1.8833986916984,ug/ml,1.8833986916984,1.8833986916984014,ug/ml,Imaginary Labs,PLASMA,0.01,BASELINE,3,1,2014-03-18T06:00:00,1,6h Post-dose,6,2014-03-18T00:00:00Z,6,6,2014-03-18T00:00:00Z,2014-03-18,00:00:00,2014-03-18,00:00:00,6,HOURS,HOURS,0.01,6,175.26,cm,88.45,kg,28.796003821791306,kg/m^2
38,CDISCPILOT01,01-701-1033,1033,701,USA,2014-03-18,2014-04-14,2014-03-18,2014-03-31,2014-09-15,,2014-09-15,,,,,,,,,,11,NA,2014-03-10,-8,74,YEARS,>64,M,WHITE,White,NOT HISPANIC OR LATINO,Y,Xanomeline Low Dose,Xan_Lo,Xanomeline Low Dose,Xan_Lo,Xanomeline Low Dose,Xanomeline Low Dose,2014-03-18,2014-03-18T00:00:00Z,H,2014-03-31,2014-03-31T23:59:59Z,H,DISCONTINUED,2014-04-14,,2014-03-18,2014-04-14,14,,,,,54,54,mg,2014-03-18,08:00:00,2014-03-18T08:00:00Z,1,,,,,,,,Day 1,1,8h Post-dose,8,Day 1,Pharmacokinetic concentration of Xanomeline,XAN,1,PLASMA,1.908372420121069,ug/ml,1.91,0,Day 1 Baseline,1.908372420121069,,,Y,Y,PC,SEQ,9,8,XAN,XANOMELINE,1.90837242012107,ug/ml,1.90837242012107,1.908372420121069,ug/ml,Imaginary Labs,PLASMA,0.01,BASELINE,3,1,2014-03-18T08:00:00,1,8h Post-dose,8,2014-03-18T00:00:00Z,8,8,2014-03-18T00:00:00Z,2014-03-18,00:00:00,2014-03-18,00:00:00,8,HOURS,HOURS,0.01,8,175.26,cm,88.45,kg,28.796003821791306,kg/m^2
39,CDISCPILOT01,01-701-1033,1033,701,USA,2014-03-18,2014-04-14,2014-03-18,2014-03-31,2014-09-15,,2014-09-15,,,,,,,,,,12,NA,2014-03-10,-8,74,YEARS,>64,M,WHITE,White,NOT HISPANIC OR LATINO,Y,Xanomeline Low Dose,Xan_Lo,Xanomeline Low Dose,Xan_Lo,Xanomeline Low Dose,Xanomeline Low Dose,2014-03-18,2014-03-18T00:00:00Z,H,2014-03-31,2014-03-31T23:59:59Z,H,DISCONTINUED,2014-04-14,,2014-03-18,2014-04-14,14,,,,,54,54,mg,2014-03-18,12:00:00,2014-03-18T12:00:00Z,1,,,,,,,,Day 1,1,6-12h Post-dose,9,Day 1,Pharmacokinetic concentration of Xanomeline,XAN,1,URINE,24.00456259739278,ug/ml,24,,Day 1 Baseline,,,,Y,Y,PC,SEQ,16,9,XAN,XANOMELINE,24.0045625973928,ug/ml,24.0045625973928,24.00456259739278,ug/ml,Imaginary Labs,URINE,0.01,BASELINE,3,1,2014-03-18T12:00:00,1,6-12h Post-dose,9,2014-03-18T00:00:00Z,12,12,2014-03-18T00:00:00Z,2014-03-18,00:00:00,2014-03-18,00:00:00,9,HOURS,HOURS,0.01,12,175.26,cm,88.45,kg,28.796003821791306,kg/m^2
40,CDISCPILOT01,01-701-1033,1033,701,USA,2014-03-18,2014-04-14,2014-03-18,2014-03-31,2014-09-15,,2014-09-15,,,,,,,,,,13,NA,2014-03-10,-8,74,YEARS,>64,M,WHITE,White,NOT HISPANIC OR LATINO,Y,Xanomeline Low Dose,Xan_Lo,Xanomeline Low Dose,Xan_Lo,Xanomeline Low Dose,Xanomeline Low Dose,2014-03-18,2014-03-18T00:00:00Z,H,2014-03-31,2014-03-31T23:59:59Z,H,DISCONTINUED,2014-04-14,,2014-03-18,2014-04-14,14,,,,,54,54,mg,2014-03-18,12:00:00,2014-03-18T12:00:00Z,1,,,,,,,,Day 1,1,12h Post-dose,12,Day 1,Pharmacokinetic concentration of Xanomeline,XAN,1,PLASMA,0.595418121736485,ug/ml,0.595,0,Day 1 Baseline,0.595418121736485,,,Y,Y,PC,SEQ,10,12,XAN,XANOMELINE,0.595418121736485,ug/ml,0.595418121736485,0.595418121736485,ug/ml,Imaginary Labs,PLASMA,0.01,BASELINE,3,1,2014-03-18T12:00:00,1,12h Post-dose,12,2014-03-18T00:00:00Z,12,12,2014-03-18T00:00:00Z,2014-03-18,00:00:00,2014-03-18,00:00:00,12,HOURS,HOURS,0.01,12,175.26,cm,88.45,kg,28.796003821791306,kg/m^2
41,CDISCPILOT01,01-701-1033,1033,701,USA,2014-03-18,2014-04-14,2014-03-18,2014-03-31,2014-09-15,,2014-09-15,,,,,,,,,,14,NA,2014-03-10,-8,74,YEARS,>64,M,WHITE,White,NOT HISPANIC OR LATINO,Y,Xanomeline Low Dose,Xan_Lo,Xanomeline Low Dose,Xan_Lo,Xanomeline Low Dose,Xanomeline Low Dose,2014-03-18,2014-03-18T00:00:00Z,H,2014-03-31,2014-03-31T23:59:59Z,H,DISCONTINUED,2014-04-14,,2014-03-18,2014-04-14,14,,,,,54,54,mg,2014-03-18,16:00:00,2014-03-18T16:00:00Z,1,,,,,,,,Day 1,1,16h Post-dose,16,Day 1,Pharmacokinetic concentration of Xanomeline,XAN,1,PLASMA,0.1849213742651578,ug/ml,0.185,0,Day 1 Baseline,0.1849213742651578,,,Y,Y,PC,SEQ,11,16,XAN,XANOMELINE,0.184921374265158,ug/ml,0.184921374265158,0.1849213742651578,ug/ml,Imaginary Labs,PLASMA,0.01,BASELINE,3,1,2014-03-18T16:00:00,1,16h Post-dose,16,2014-03-18T00:00:00Z,16,16,2014-03-18T00:00:00Z,2014-03-18,00:00:00,2014-03-18,00:00:00,16,HOURS,HOURS,0.01,16,175.26,cm,88.45,kg,28.796003821791306,kg/m^2
42,CDISCPILOT01,01-701-1033,1033,701,USA,2014-03-18,2014-04-14,2014-03-18,2014-03-31,2014-09-15,,2014-09-15,,,,,,,,,,15,NA,2014-03-10,-8,74,YEARS,>64,M,WHITE,White,NOT HISPANIC OR LATINO,Y,Xanomeline Low Dose,Xan_Lo,Xanomeline Low Dose,Xan_Lo,Xanomeline Low Dose,Xanomeline Low Dose,2014-03-18,2014-03-18T00:00:00Z,H,2014-03-31,2014-03-31T23:59:59Z,H,DISCONTINUED,2014-04-14,,2014-03-18,2014-04-14,14,,,,,54,54,mg,2014-03-19,00:00:00,2014-03-19T00:00:00Z,2,,,,,,,,Day 1,1,12-24h Post-dose,18,Day 1,Pharmacokinetic concentration of Xanomeline,XAN,1,URINE,15.925639839234485,ug/ml,15.9,,Day 1 Baseline,,,,Y,Y,PC,SEQ,17,18,XAN,XANOMELINE,15.9256398392345,ug/ml,15.9256398392345,15.925639839234485,ug/ml,Imaginary Labs,URINE,0.01,BASELINE,3,1,2014-03-19T00:00:00,2,12-24h Post-dose,18,2014-03-18T00:00:00Z,24,24,2014-03-18T00:00:00Z,2014-03-18,00:00:00,2014-03-18,00:00:00,18,HOURS,HOURS,0.01,24,175.26,cm,88.45,kg,28.796003821791306,kg/m^2
43,CDISCPILOT01,01-701-1033,1033,701,USA,2014-03-18,2014-04-14,2014-03-18,2014-03-31,2014-09-15,,2014-09-15,,,,,,,,,,16,NA,2014-03-10,-8,74,YEARS,>64,M,WHITE,White,NOT HISPANIC OR LATINO,Y,Xanomeline Low Dose,Xan_Lo,Xanomeline Low Dose,Xan_Lo,Xanomeline Low Dose,Xanomeline Low Dose,2014-03-18,2014-03-18T00:00:00Z,H,2014-03-31,2014-03-31T23:59:59Z,H,DISCONTINUED,2014-04-14,,2014-03-18,2014-04-14,14,,,,,54,54,mg,2014-03-19,00:00:00,2014-03-19T00:00:00Z,2,,,,,,,,Day 2,2,24h Post-dose,24,Day 1,Pharmacokinetic concentration of Xanomeline,XAN,1,PLASMA,0.01783681221320965,ug/ml,0.0178,0,Day 1 Baseline,0.01783681221320965,,,Y,Y,PC,SEQ,12,24,XAN,XANOMELINE,0.0178368122132096,ug/ml,0.0178368122132096,0.01783681221320965,ug/ml,Imaginary Labs,PLASMA,0.01,BASELINE,3,1,2014-03-19T00:00:00,2,24h Post-dose,24,2014-03-18T00:00:00Z,24,24,2014-03-18T00:00:00Z,2014-03-18,00:00:00,2014-03-18,00:00:00,24,HOURS,HOURS,0.01,24,175.26,cm,88.45,kg,28.796003821791306,kg/m^2
44,CDISCPILOT01,01-701-1033,1033,701,USA,2014-03-18,2014-04-14,2014-03-18,2014-03-31,2014-09-15,,2014-09-15,,,,,,,,,,17,NA,2014-03-10,-8,74,YEARS,>64,M,WHITE,White,NOT HISPANIC OR LATINO,Y,Xanomeline Low Dose,Xan_Lo,Xanomeline Low Dose,Xan_Lo,Xanomeline Low Dose,Xanomeline Low Dose,2014-03-18,2014-03-18T00:00:00Z,H,2014-03-31,2014-03-31T23:59:59Z,H,DISCONTINUED,2014-04-14,,2014-03-18,2014-04-14,14,,,,,54,54,mg,2014-03-19,00:00:00,2014-03-19T00:00:00Z,2,,,,,,,,Day 2,2,Pre-dose,-0.5,Day 2,Pharmacokinetic concentration of Xanomeline,XAN,1,PLASMA,0.01783681221320965,ug/ml,0.0178,0.01783681221320965,Day 2 Baseline,0,COPY,Y,Y,,PC,SEQ,12,24,XAN,XANOMELINE,0.0178368122132096,ug/ml,0.0178368122132096,0.01783681221320965,ug/ml,Imaginary Labs,PLASMA,0.01,BASELINE,3,1,2014-03-19T00:00:00,2,24h Post-dose,24,2014-03-18T00:00:00Z,24,0,2014-03-19T00:00:00Z,2014-03-18,00:00:00,2014-03-19,00:00:00,0,HOURS,HOURS,0.01,0,175.26,cm,88.45,kg,28.796003821791306,kg/m^2
45,CDISCPILOT01,01-701-1033,1033,701,USA,2014-03-18,2014-04-14,2014-03-18,2014-03-31,2014-09-15,,2014-09-15,,,,,,,,,,18,NA,2014-03-10,-8,74,YEARS,>64,M,WHITE,White,NOT HISPANIC OR LATINO,Y,Xanomeline Low Dose,Xan_Lo,Xanomeline Low Dose,Xan_Lo,Xanomeline Low Dose,Xanomeline Low Dose,2014-03-18,2014-03-18T00:00:00Z,H,2014-03-31,2014-03-31T23:59:59Z,H,DISCONTINUED,2014-04-14,,2014-03-18,2014-04-14,14,,,,,54,54,mg,2014-03-19,00:00:00,2014-03-19T00:00:00Z,2,,2014-03-19,00:00:00,2014-03-19T00:00:00Z,2014-03-19,00:00:00,2014-03-19T00:00:00Z,Day 2,2,Dose,0,Day 2,Xanomeline Patch Dose,DOSE,2,,54,mg,,,Day 2 Baseline,,,,Y,Y,EX,SEQ,1,24,,,,,,,,,,,BASELINE,3,1,,,,,2014-03-18T00:00:00Z,24,0,2014-03-19T00:00:00Z,2014-03-18,00:00:00,2014-03-19,00:00:00,0,,,,0,175.26,cm,88.45,kg,28.796003821791306,kg/m^2
46,CDISCPILOT01,01-701-1033,1033,701,USA,2014-03-18,2014-04-14,2014-03-18,2014-03-31,2014-09-15,,2014-09-15,,,,,,,,,,19,NA,2014-03-10,-8,74,YEARS,>64,M,WHITE,White,NOT HISPANIC OR LATINO,Y,Xanomeline Low Dose,Xan_Lo,Xanomeline Low Dose,Xan_Lo,Xanomeline Low Dose,Xanomeline Low Dose,2014-03-18,2014-03-18T00:00:00Z,H,2014-03-31,2014-03-31T23:59:59Z,H,DISCONTINUED,2014-04-14,,2014-03-18,2014-04-14,14,,,,,54,54,mg,2014-03-19,12:00:00,2014-03-19T12:00:00Z,2,,,,,,,,Day 2,2,36h Post-dose,36,Day 2,Pharmacokinetic concentration of Xanomeline,XAN,1,PLASMA,0.005,ug/ml,<BLQ,0.01783681221320965,Day 2 Baseline,-0.012836812213209647,HALFLLOQ,,Y,,PC,SEQ,13,36,XAN,XANOMELINE,<BLQ,ug/ml,<BLQ,,ug/ml,Imaginary Labs,PLASMA,0.01,BASELINE,3,1,2014-03-19T12:00:00,2,36h Post-dose,36,2014-03-18T00:00:00Z,36,12,2014-03-19T00:00:00Z,2014-03-18,00:00:00,2014-03-19,00:00:00,12,HOURS,HOURS,0.01,12,175.26,cm,88.45,kg,28.796003821791306,kg/m^2
47,CDISCPILOT01,01-701-1033,1033,701,USA,2014-03-18,2014-04-14,2014-03-18,2014-03-31,2014-09-15,,2014-09-15,,,,,,,,,,20,NA,2014-03-10,-8,74,YEARS,>64,M,WHITE,White,NOT HISPANIC OR LATINO,Y,Xanomeline Low Dose,Xan_Lo,Xanomeline Low Dose,Xan_Lo,Xanomeline Low Dose,Xanomeline Low Dose,2014-03-18,2014-03-18T00:00:00Z,H,2014-03-31,2014-03-31T23:59:59Z,H,DISCONTINUED,2014-04-14,,2014-03-18,2014-04-14,14,,,,,54,54,mg,2014-03-19,12:00:00,2014-03-19T12:00:00Z,2,,,,,,,,Day 2,2,36h Post-dose,36,Day 2,Pharmacokinetic concentration of Xanomeline,XAN,1,PLASMA,,ug/ml,<BLQ,0.01783681221320965,Day 2 Baseline,,,,Y,Y,PC,SEQ,13,36,XAN,XANOMELINE,<BLQ,ug/ml,<BLQ,,ug/ml,Imaginary Labs,PLASMA,0.01,BASELINE,3,1,2014-03-19T12:00:00,2,36h Post-dose,36,2014-03-18T00:00:00Z,36,12,2014-03-19T00:00:00Z,2014-03-18,00:00:00,2014-03-19,00:00:00,12,HOURS,HOURS,0.01,12,175.26,cm,88.45,kg,28.796003821791306,kg/m^2
48,CDISCPILOT01,01-701-1033,1033,701,USA,2014-03-18,2014-04-14,2014-03-18,2014-03-31,2014-09-15,,2014-09-15,,,,,,,,,,21,NA,2014-03-10,-8,74,YEARS,>64,M,WHITE,White,NOT HISPANIC OR LATINO,Y,Xanomeline Low Dose,Xan_Lo,Xanomeline Low Dose,Xan_Lo,Xanomeline Low Dose,Xanomeline Low Dose,2014-03-18,2014-03-18T00:00:00Z,H,2014-03-31,2014-03-31T23:59:59Z,H,DISCONTINUED,2014-04-14,,2014-03-18,2014-04-14,14,,,,,54,54,mg,2014-03-20,00:00:00,2014-03-20T00:00:00Z,3,,,,,,,,Day 2,2,24-48h Post-dose,37,Day 2,Pharmacokinetic concentration of Xanomeline,XAN,1,URINE,0.005,ug/ml,<BLQ,,Day 2 Baseline,,HALFLLOQ,,Y,,PC,SEQ,18,36,XAN,XANOMELINE,<BLQ,ug/ml,<BLQ,,ug/ml,Imaginary Labs,URINE,0.01,BASELINE,3,1,2014-03-20T00:00:00,3,24-48h Post-dose,37,2014-03-18T00:00:00Z,48,24,2014-03-19T00:00:00Z,2014-03-18,00:00:00,2014-03-19,00:00:00,12,HOURS,HOURS,0.01,24,175.26,cm,88.45,kg,28.796003821791306,kg/m^2
49,CDISCPILOT01,01-701-1033,1033,701,USA,2014-03-18,2014-04-14,2014-03-18,2014-03-31,2014-09-15,,2014-09-15,,,,,,,,,,22,NA,2014-03-10,-8,74,YEARS,>64,M,WHITE,White,NOT HISPANIC OR LATINO,Y,Xanomeline Low Dose,Xan_Lo,Xanomeline Low Dose,Xan_Lo,Xanomeline Low Dose,Xanomeline Low Dose,2014-03-18,2014-03-18T00:00:00Z,H,2014-03-31,2014-03-31T23:59:59Z,H,DISCONTINUED,2014-04-14,,2014-03-18,2014-04-14,14,,,,,54,54,mg,2014-03-20,00:00:00,2014-03-20T00:00:00Z,3,,,,,,,,Day 2,2,24-48h Post-dose,37,Day 2,Pharmacokinetic concentration of Xanomeline,XAN,1,URINE,,ug/ml,<BLQ,,Day 2 Baseline,,,,Y,Y,PC,SEQ,18,36,XAN,XANOMELINE,<BLQ,ug/ml,<BLQ,,ug/ml,Imaginary Labs,URINE,0.01,BASELINE,3,1,2014-03-20T00:00:00,3,24-48h Post-dose,37,2014-03-18T00:00:00Z,48,24,2014-03-19T00:00:00Z,2014-03-18,00:00:00,2014-03-19,00:00:00,12,HOURS,HOURS,0.01,24,175.26,cm,88.45,kg,28.796003821791306,kg/m^2
50,CDISCPILOT01,01-701-1033,1033,701,USA,2014-03-18,2014-04-14,2014-03-18,2014-03-31,2014-09-15,,2014-09-15,,,,,,,,,,23,NA,2014-03-10,-8,74,YEARS,>64,M,WHITE,White,NOT HISPANIC OR LATINO,Y,Xanomeline Low Dose,Xan_Lo,Xanomeline Low Dose,Xan_Lo,Xanomeline Low Dose,Xanomeline Low Dose,2014-03-18,2014-03-18T00:00:00Z,H,2014-03-31,2014-03-31T23:59:59Z,H,DISCONTINUED,2014-04-14,,2014-03-18,2014-04-14,14,,,,,54,54,mg,2014-03-20,00:00:00,2014-03-20T00:00:00Z,3,,,,,,,,Day 3,3,48h Post-dose,48,Day 2,Pharmacokinetic concentration of Xanomeline,XAN,1,PLASMA,0.005,ug/ml,<BLQ,0.01783681221320965,Day 2 Baseline,-0.012836812213209647,HALFLLOQ,,Y,,PC,SEQ,14,48,XAN,XANOMELINE,<BLQ,ug/ml,<BLQ,,ug/ml,Imaginary Labs,PLASMA,0.01,BASELINE,3,1,2014-03-20T00:00:00,3,48h Post-dose,48,2014-03-18T00:00:00Z,48,24,2014-03-19T00:00:00Z,2014-03-18,00:00:00,2014-03-19,00:00:00,24,HOURS,HOURS,0.01,24,175.26,cm,88.45,kg,28.796003821791306,kg/m^2
51,CDISCPILOT01,01-701-1033,1033,701,USA,2014-03-18,2014-04-14,2014-03-18,2014-03-31,2014-09-15,,2014-09-15,,,,,,,,,,24,NA,2014-03-10,-8,74,YEARS,>64,M,WHITE,White,NOT HISPANIC OR LATINO,Y,Xanomeline Low Dose,Xan_Lo,Xanomeline Low Dose,Xan_Lo,Xanomeline Low Dose,Xanomeline Low Dose,2014-03-18,2014-03-18T00:00:00Z,H,2014-03-31,2014-03-31T23:59:59Z,H,DISCONTINUED,2014-04-14,,2014-03-18,2014-04-14,14,,,,,54,54,mg,2014-03-20,00:00:00,2014-03-20T00:00:00Z,3,,,,,,,,Day 3,3,48h Post-dose,48,Day 2,Pharmacokinetic concentration of Xanomeline,XAN,1,PLASMA,,ug/ml,<BLQ,0.01783681221320965,Day 2 Baseline,,,,Y,Y,PC,SEQ,14,48,XAN,XANOMELINE,<BLQ,ug/ml,<BLQ,,ug/ml,Imaginary Labs,PLASMA,0.01,BASELINE,3,1,2014-03-20T00:00:00,3,48h Post-dose,48,2014-03-18T00:00:00Z,48,24,2014-03-19T00:00:00Z,2014-03-18,00:00:00,2014-03-19,00:00:00,24,HOURS,HOURS,0.01,24,175.26,cm,88.45,kg,28.796003821791306,kg/m^2
52,CDISCPILOT01,01-701-1033,1033,701,USA,2014-03-18,2014-04-14,2014-03-18,2014-03-31,2014-09-15,,2014-09-15,,,,,,,,,,25,NA,2014-03-10,-8,74,YEARS,>64,M,WHITE,White,NOT HISPANIC OR LATINO,Y,Xanomeline Low Dose,Xan_Lo,Xanomeline Low Dose,Xan_Lo,Xanomeline Low Dose,Xanomeline Low Dose,2014-03-18,2014-03-18T00:00:00Z,H,2014-03-31,2014-03-31T23:59:59Z,H,DISCONTINUED,2014-04-14,,2014-03-18,2014-04-14,14,,,,,54,54,mg,2014-03-20,00:00:00,2014-03-20T00:00:00Z,3,,,,,,,,Day 3,3,Pre-dose,-0.5,Day 3,Pharmacokinetic concentration of Xanomeline,XAN,1,PLASMA,,ug/ml,<BLQ,0.005,Day 3 Baseline,,COPY,,Y,,PC,SEQ,14,48,XAN,XANOMELINE,<BLQ,ug/ml,<BLQ,,ug/ml,Imaginary Labs,PLASMA,0.01,BASELINE,3,1,2014-03-20T00:00:00,3,48h Post-dose,48,2014-03-18T00:00:00Z,48,0,2014-03-20T00:00:00Z,2014-03-18,00:00:00,2014-03-20,00:00:00,0,HOURS,HOURS,0.01,0,175.26,cm,88.45,kg,28.796003821791306,kg/m^2
53,CDISCPILOT01,01-701-1033,1033,701,USA,2014-03-18,2014-04-14,2014-03-18,2014-03-31,2014-09-15,,2014-09-15,,,,,,,,,,26,NA,2014-03-10,-8,74,YEARS,>64,M,WHITE,White,NOT HISPANIC OR LATINO,Y,Xanomeline Low Dose,Xan_Lo,Xanomeline Low Dose,Xan_Lo,Xanomeline Low Dose,Xanomeline Low Dose,2014-03-18,2014-03-18T00:00:00Z,H,2014-03-31,2014-03-31T23:59:59Z,H,DISCONTINUED,2014-04-14,,2014-03-18,2014-04-14,14,,,,,54,54,mg,2014-03-20,00:00:00,2014-03-20T00:00:00Z,3,,,,,,,,Day 3,3,Pre-dose,-0.5,Day 3,Pharmacokinetic concentration of Xanomeline,XAN,1,PLASMA,0.005,ug/ml,<BLQ,0.005,Day 3 Baseline,0,COPY/HALFLLOQ,Y,Y,,PC,SEQ,14,48,XAN,XANOMELINE,<BLQ,ug/ml,<BLQ,,ug/ml,Imaginary Labs,PLASMA,0.01,BASELINE,3,1,2014-03-20T00:00:00,3,48h Post-dose,48,2014-03-18T00:00:00Z,48,0,2014-03-20T00:00:00Z,2014-03-18,00:00:00,2014-03-20,00:00:00,0,HOURS,HOURS,0.01,0,175.26,cm,88.45,kg,28.796003821791306,kg/m^2
54,CDISCPILOT01,01-701-1033,1033,701,USA,2014-03-18,2014-04-14,2014-03-18,2014-03-31,2014-09-15,,2014-09-15,,,,,,,,,,27,NA,2014-03-10,-8,74,YEARS,>64,M,WHITE,White,NOT HISPANIC OR LATINO,Y,Xanomeline Low Dose,Xan_Lo,Xanomeline Low Dose,Xan_Lo,Xanomeline Low Dose,Xanomeline Low Dose,2014-03-18,2014-03-18T00:00:00Z,H,2014-03-31,2014-03-31T23:59:59Z,H,DISCONTINUED,2014-04-14,,2014-03-18,2014-04-14,14,,,,,54,54,mg,2014-03-20,00:00:00,2014-03-20T00:00:00Z,3,,2014-03-20,00:00:00,2014-03-20T00:00:00Z,2014-03-20,00:00:00,2014-03-20T00:00:00Z,Day 3,3,Dose,0,Day 3,Xanomeline Patch Dose,DOSE,2,,54,mg,,,Day 3 Baseline,,,,Y,Y,EX,SEQ,1,48,,,,,,,,,,,BASELINE,3,1,,,,,2014-03-18T00:00:00Z,48,0,2014-03-20T00:00:00Z,2014-03-18,00:00:00,2014-03-20,00:00:00,0,,,,0,175.26,cm,88.45,kg,28.796003821791306,kg/m^2
55,CDISCPILOT01,01-701-1034,1034,701,USA,2014-07-01,2014-12-30,2014-07-01,2014-12-30,2014-12-30T09:50,,,,,,,,,,,,1,NA,2014-06-24,-7,77,YEARS,>64,F,WHITE,White,NOT HISPANIC OR LATINO,Y,Xanomeline High Dose,Xan_Hi,Xanomeline High Dose,Xan_Hi,Xanomeline High Dose,Xanomeline High Dose,2014-07-01,2014-07-01T00:00:00Z,H,2014-12-30,2014-12-30T23:59:59Z,H,COMPLETED,2014-12-30,,2014-07-01,2014-12-30,183,,,,,81,54,mg,2014-06-30,23:30:00,2014-06-30T23:30:00Z,-1,,,,,,,,Day 1,1,Pre-dose,-0.5,Day 1,Pharmacokinetic concentration of Xanomeline,XAN,1,PLASMA,0,ug/ml,<BLQ,0,Day 1 Baseline,0,,Y,Y,Y,PC,SEQ,1,0,XAN,XANOMELINE,<BLQ,ug/ml,<BLQ,0,ug/ml,Imaginary Labs,PLASMA,0.01,BASELINE,3,1,2014-06-30T23:30:00,-1,Pre-dose,-0.5,2014-07-01T00:00:00Z,-0.5,-0.5,2014-07-01T00:00:00Z,2014-07-01,00:00:00,2014-07-01,00:00:00,0,HOURS,,0.01,0,154.94,cm,62.6,kg,26.07637572168453,kg/m^2
56,CDISCPILOT01,01-701-1034,1034,701,USA,2014-07-01,2014-12-30,2014-07-01,2014-12-30,2014-12-30T09:50,,,,,,,,,,,,2,NA,2014-06-24,-7,77,YEARS,>64,F,WHITE,White,NOT HISPANIC OR LATINO,Y,Xanomeline High Dose,Xan_Hi,Xanomeline High Dose,Xan_Hi,Xanomeline High Dose,Xanomeline High Dose,2014-07-01,2014-07-01T00:00:00Z,H,2014-12-30,2014-12-30T23:59:59Z,H,COMPLETED,2014-12-30,,2014-07-01,2014-12-30,183,,,,,81,54,mg,2014-07-01,00:00:00,2014-07-01T00:00:00Z,1,,2014-07-01,00:00:00,2014-07-01T00:00:00Z,2014-07-01,00:00:00,2014-07-01T00:00:00Z,Day 1,1,Dose,0,Day 1,Xanomeline Patch Dose,DOSE,2,,54,mg,,,Day 1 Baseline,,,,Y,Y,EX,SEQ,1,0,,,,,,,,,,,BASELINE,3,1,,,,,2014-07-01T00:00:00Z,0,0,2014-07-01T00:00:00Z,2014-07-01,00:00:00,2014-07-01,00:00:00,0,,,,0,154.94,cm,62.6,kg,26.07637572168453,kg/m^2
57,CDISCPILOT01,01-701-1034,1034,701,USA,2014-07-01,2014-12-30,2014-07-01,2014-12-30,2014-12-30T09:50,,,,,,,,,,,,3,NA,2014-06-24,-7,77,YEARS,>64,F,WHITE,White,NOT HISPANIC OR LATINO,Y,Xanomeline High Dose,Xan_Hi,Xanomeline High Dose,Xan_Hi,Xanomeline High Dose,Xanomeline High Dose,2014-07-01,2014-07-01T00:00:00Z,H,2014-12-30,2014-12-30T23:59:59Z,H,COMPLETED,2014-12-30,,2014-07-01,2014-12-30,183,,,,,81,54,mg,2014-07-01,00:05:00,2014-07-01T00:05:00Z,1,,,,,,,,Day 1,1,5 Min Post-dose,0.08,Day 1,Pharmacokinetic concentration of Xanomeline,XAN,1,PLASMA,0.10502986359315457,ug/ml,0.105,0,Day 1 Baseline,0.10502986359315457,,,Y,Y,PC,SEQ,2,0.08333333333333333,XAN,XANOMELINE,0.105029863593155,ug/ml,0.105029863593155,0.10502986359315457,ug/ml,Imaginary Labs,PLASMA,0.01,BASELINE,3,1,2014-07-01T00:05:00,1,5 Min Post-dose,0.08,2014-07-01T00:00:00Z,0.08333333333333333,0.08333333333333333,2014-07-01T00:00:00Z,2014-07-01,00:00:00,2014-07-01,00:00:00,0.08333333333333333,HOURS,HOURS,0.01,0.08333333333333333,154.94,cm,62.6,kg,26.07637572168453,kg/m^2
58,CDISCPILOT01,01-701-1034,1034,701,USA,2014-07-01,2014-12-30,2014-07-01,2014-12-30,2014-12-30T09:50,,,,,,,,,,,,4,NA,2014-06-24,-7,77,YEARS,>64,F,WHITE,White,NOT HISPANIC OR LATINO,Y,Xanomeline High Dose,Xan_Hi,Xanomeline High Dose,Xan_Hi,Xanomeline High Dose,Xanomeline High Dose,2014-07-01,2014-07-01T00:00:00Z,H,2014-12-30,2014-12-30T23:59:59Z,H,COMPLETED,2014-12-30,,2014-07-01,2014-12-30,183,,,,,81,54,mg,2014-07-01,00:30:00,2014-07-01T00:30:00Z,1,,,,,,,,Day 1,1,30 Min Post-dose,0.5,Day 1,Pharmacokinetic concentration of Xanomeline,XAN,1,PLASMA,0.5685271914762146,ug/ml,0.569,0,Day 1 Baseline,0.5685271914762146,,,Y,Y,PC,SEQ,3,0.5,XAN,XANOMELINE,0.568527191476215,ug/ml,0.568527191476215,0.5685271914762146,ug/ml,Imaginary Labs,PLASMA,0.01,BASELINE,3,1,2014-07-01T00:30:00,1,30 Min Post-dose,0.5,2014-07-01T00:00:00Z,0.5,0.5,2014-07-01T00:00:00Z,2014-07-01,00:00:00,2014-07-01,00:00:00,0.5,HOURS,HOURS,0.01,0.5,154.94,cm,62.6,kg,26.07637572168453,kg/m^2
59,CDISCPILOT01,01-701-1034,1034,701,USA,2014-07-01,2014-12-30,2014-07-01,2014-12-30,2014-12-30T09:50,,,,,,,,,,,,5,NA,2014-06-24,-7,77,YEARS,>64,F,WHITE,White,NOT HISPANIC OR LATINO,Y,Xanomeline High Dose,Xan_Hi,Xanomeline High Dose,Xan_Hi,Xanomeline High Dose,Xanomeline High Dose,2014-07-01,2014-07-01T00:00:00Z,H,2014-12-30,2014-12-30T23:59:59Z,H,COMPLETED,2014-12-30,,2014-07-01,2014-12-30,183,,,,,81,54,mg,2014-07-01,01:00:00,2014-07-01T01:00:00Z,1,,,,,,,,Day 1,1,1h Post-dose,1,Day 1,Pharmacokinetic concentration of Xanomeline,XAN,1,PLASMA,0.9673792519053143,ug/ml,0.967,0,Day 1 Baseline,0.9673792519053143,,,Y,Y,PC,SEQ,4,1,XAN,XANOMELINE,0.967379251905314,ug/ml,0.967379251905314,0.9673792519053143,ug/ml,Imaginary Labs,PLASMA,0.01,BASELINE,3,1,2014-07-01T01:00:00,1,1h Post-dose,1,2014-07-01T00:00:00Z,1,1,2014-07-01T00:00:00Z,2014-07-01,00:00:00,2014-07-01,00:00:00,1,HOURS,HOURS,0.01,1,154.94,cm,62.6,kg,26.07637572168453,kg/m^2
60,CDISCPILOT01,01-701-1034,1034,701,USA,2014-07-01,2014-12-30,2014-07-01,2014-12-30,2014-12-30T09:50,,,,,,,,,,,,6,NA,2014-06-24,-7,77,YEARS,>64,F,WHITE,White,NOT HISPANIC OR LATINO,Y,Xanomeline High Dose,Xan_Hi,Xanomeline High Dose,Xan_Hi,Xanomeline High Dose,Xanomeline High Dose,2014-07-01,2014-07-01T00:00:00Z,H,2014-12-30,2014-12-30T23:59:59Z,H,COMPLETED,2014-12-30,,2014-07-01,2014-12-30,183,,,,,81,54,mg,2014-07-01,01:30:00,2014-07-01T01:30:00Z,1,,,,,,,,Day 1,1,1.5h Post-dose,1.5,Day 1,Pharmacokinetic concentration of Xanomeline,XAN,1,PLASMA,1.2471951841837159,ug/ml,1.25,0,Day 1 Baseline,1.2471951841837159,,,Y,Y,PC,SEQ,5,1.5,XAN,XANOMELINE,1.24719518418372,ug/ml,1.24719518418372,1.2471951841837159,ug/ml,Imaginary Labs,PLASMA,0.01,BASELINE,3,1,2014-07-01T01:30:00,1,1.5h Post-dose,1.5,2014-07-01T00:00:00Z,1.5,1.5,2014-07-01T00:00:00Z,2014-07-01,00:00:00,2014-07-01,00:00:00,1.5,HOURS,HOURS,0.01,1.5,154.94,cm,62.6,kg,26.07637572168453,kg/m^2
61,CDISCPILOT01,01-701-1034,1034,701,USA,2014-07-01,2014-12-30,2014-07-01,2014-12-30,2014-12-30T09:50,,,,,,,,,,,,7,NA,2014-06-24,-7,77,YEARS,>64,F,WHITE,White,NOT HISPANIC OR LATINO,Y,Xanomeline High Dose,Xan_Hi,Xanomeline High Dose,Xan_Hi,Xanomeline High Dose,Xanomeline High Dose,2014-07-01,2014-07-01T00:00:00Z,H,2014-12-30,2014-12-30T23:59:59Z,H,COMPLETED,2014-12-30,,2014-07-01,2014-12-30,183,,,,,81,54,mg,2014-07-01,02:00:00,2014-07-01T02:00:00Z,1,,,,,,,,Day 1,1,2h Post-dose,2,Day 1,Pharmacokinetic concentration of Xanomeline,XAN,1,PLASMA,1.4435009419441154,ug/ml,1.44,0,Day 1 Baseline,1.4435009419441154,,,Y,Y,PC,SEQ,6,2,XAN,XANOMELINE,1.44350094194412,ug/ml,1.44350094194412,1.4435009419441154,ug/ml,Imaginary Labs,PLASMA,0.01,BASELINE,3,1,2014-07-01T02:00:00,1,2h Post-dose,2,2014-07-01T00:00:00Z,2,2,2014-07-01T00:00:00Z,2014-07-01,00:00:00,2014-07-01,00:00:00,2,HOURS,HOURS,0.01,2,154.94,cm,62.6,kg,26.07637572168453,kg/m^2
62,CDISCPILOT01,01-701-1034,1034,701,USA,2014-07-01,2014-12-30,2014-07-01,2014-12-30,2014-12-30T09:50,,,,,,,,,,,,8,NA,2014-06-24,-7,77,YEARS,>64,F,WHITE,White,NOT HISPANIC OR LATINO,Y,Xanomeline High Dose,Xan_Hi,Xanomeline High Dose,Xan_Hi,Xanomeline High Dose,Xanomeline High Dose,2014-07-01,2014-07-01T00:00:00Z,H,2014-12-30,2014-12-30T23:59:59Z,H,COMPLETED,2014-12-30,,2014-07-01,2014-12-30,183,,,,,81,54,mg,2014-07-01,04:00:00,2014-07-01T04:00:00Z,1,,,,,,,,Day 1,1,4h Post-dose,4,Day 1,Pharmacokinetic concentration of Xanomeline,XAN,1,PLASMA,1.7931718228016391,ug/ml,1.79,0,Day 1 Baseline,1.7931718228016391,,,Y,Y,PC,SEQ,7,4,XAN,XANOMELINE,1.79317182280164,ug/ml,1.79317182280164,1.7931718228016391,ug/ml,Imaginary Labs,PLASMA,0.01,BASELINE,3,1,2014-07-01T04:00:00,1,4h Post-dose,4,2014-07-01T00:00:00Z,4,4,2014-07-01T00:00:00Z,2014-07-01,00:00:00,2014-07-01,00:00:00,4,HOURS,HOURS,0.01,4,154.94,cm,62.6,kg,26.07637572168453,kg/m^2
63,CDISCPILOT01,01-701-1034,1034,701,USA,2014-07-01,2014-12-30,2014-07-01,2014-12-30,2014-12-30T09:50,,,,,,,,,,,,9,NA,2014-06-24,-7,77,YEARS,>64,F,WHITE,White,NOT HISPANIC OR LATINO,Y,Xanomeline High Dose,Xan_Hi,Xanomeline High Dose,Xan_Hi,Xanomeline High Dose,Xanomeline High Dose,2014-07-01,2014-07-01T00:00:00Z,H,2014-12-30,2014-12-30T23:59:59Z,H,COMPLETED,2014-12-30,,2014-07-01,2014-12-30,183,,,,,81,54,mg,2014-07-01,06:00:00,2014-07-01T06:00:00Z,1,,,,,,,,Day 1,1,0-6h Post-dose,3,Day 1,Pharmacokinetic concentration of Xanomeline,XAN,1,URINE,26.215502325536082,ug/ml,26.2,,Day 1 Baseline,,,,Y,Y,PC,SEQ,15,3,XAN,XANOMELINE,26.2155023255361,ug/ml,26.2155023255361,26.215502325536082,ug/ml,Imaginary Labs,URINE,0.01,BASELINE,3,1,2014-07-01T06:00:00,1,0-6h Post-dose,3,2014-07-01T00:00:00Z,6,6,2014-07-01T00:00:00Z,2014-07-01,00:00:00,2014-07-01,00:00:00,3,HOURS,HOURS,0.01,6,154.94,cm,62.6,kg,26.07637572168453,kg/m^2
64,CDISCPILOT01,01-701-1034,1034,701,USA,2014-07-01,2014-12-30,2014-07-01,2014-12-30,2014-12-30T09:50,,,,,,,,,,,,10,NA,2014-06-24,-7,77,YEARS,>64,F,WHITE,White,NOT HISPANIC OR LATINO,Y,Xanomeline High Dose,Xan_Hi,Xanomeline High Dose,Xan_Hi,Xanomeline High Dose,Xanomeline High Dose,2014-07-01,2014-07-01T00:00:00Z,H,2014-12-30,2014-12-30T23:59:59Z,H,COMPLETED,2014-12-30,,2014-07-01,2014-12-30,183,,,,,81,54,mg,2014-07-01,06:00:00,2014-07-01T06:00:00Z,1,,,,,,,,Day 1,1,6h Post-dose,6,Day 1,Pharmacokinetic concentration of Xanomeline,XAN,1,PLASMA,1.877875421785789,ug/ml,1.88,0,Day 1 Baseline,1.877875421785789,,,Y,Y,PC,SEQ,8,6,XAN,XANOMELINE,1.87787542178579,ug/ml,1.87787542178579,1.877875421785789,ug/ml,Imaginary Labs,PLASMA,0.01,BASELINE,3,1,2014-07-01T06:00:00,1,6h Post-dose,6,2014-07-01T00:00:00Z,6,6,2014-07-01T00:00:00Z,2014-07-01,00:00:00,2014-07-01,00:00:00,6,HOURS,HOURS,0.01,6,154.94,cm,62.6,kg,26.07637572168453,kg/m^2
65,CDISCPILOT01,01-701-1034,1034,701,USA,2014-07-01,2014-12-30,2014-07-01,2014-12-30,2014-12-30T09:50,,,,,,,,,,,,11,NA,2014-06-24,-7,77,YEARS,>64,F,WHITE,White,NOT HISPANIC OR LATINO,Y,Xanomeline High Dose,Xan_Hi,Xanomeline High Dose,Xan_Hi,Xanomeline High Dose,Xanomeline High Dose,2014-07-01,2014-07-01T00:00:00Z,H,2014-12-30,2014-12-30T23:59:59Z,H,COMPLETED,2014-12-30,,2014-07-01,2014-12-30,183,,,,,81,54,mg,2014-07-01,08:00:00,2014-07-01T08:00:00Z,1,,,,,,,,Day 1,1,8h Post-dose,8,Day 1,Pharmacokinetic concentration of Xanomeline,XAN,1,PLASMA,1.8983938580458302,ug/ml,1.9,0,Day 1 Baseline,1.8983938580458302,,,Y,Y,PC,SEQ,9,8,XAN,XANOMELINE,1.89839385804583,ug/ml,1.89839385804583,1.8983938580458302,ug/ml,Imaginary Labs,PLASMA,0.01,BASELINE,3,1,2014-07-01T08:00:00,1,8h Post-dose,8,2014-07-01T00:00:00Z,8,8,2014-07-01T00:00:00Z,2014-07-01,00:00:00,2014-07-01,00:00:00,8,HOURS,HOURS,0.01,8,154.94,cm,62.6,kg,26.07637572168453,kg/m^2
66,CDISCPILOT01,01-701-1034,1034,701,USA,2014-07-01,2014-12-30,2014-07-01,2014-12-30,2014-12-30T09:50,,,,,,,,,,,,12,NA,2014-06-24,-7,77,YEARS,>64,F,WHITE,White,NOT HISPANIC OR LATINO,Y,Xanomeline High Dose,Xan_Hi,Xanomeline High Dose,Xan_Hi,Xanomeline High Dose,Xanomeline High Dose,2014-07-01,2014-07-01T00:00:00Z,H,2014-12-30,2014-12-30T23:59:59Z,H,COMPLETED,2014-12-30,,2014-07-01,2014-12-30,183,,,,,81,54,mg,2014-07-01,12:00:00,2014-07-01T12:00:00Z,1,,,,,,,,Day 1,1,6-12h Post-dose,9,Day 1,Pharmacokinetic concentration of Xanomeline,XAN,1,URINE,21.961999485639254,ug/ml,22,,Day 1 Baseline,,,,Y,Y,PC,SEQ,16,9,XAN,XANOMELINE,21.9619994856393,ug/ml,21.9619994856393,21.961999485639254,ug/ml,Imaginary Labs,URINE,0.01,BASELINE,3,1,2014-07-01T12:00:00,1,6-12h Post-dose,9,2014-07-01T00:00:00Z,12,12,2014-07-01T00:00:00Z,2014-07-01,00:00:00,2014-07-01,00:00:00,9,HOURS,HOURS,0.01,12,154.94,cm,62.6,kg,26.07637572168453,kg/m^2
67,CDISCPILOT01,01-701-1034,1034,701,USA,2014-07-01,2014-12-30,2014-07-01,2014-12-30,2014-12-30T09:50,,,,,,,,,,,,13,NA,2014-06-24,-7,77,YEARS,>64,F,WHITE,White,NOT HISPANIC OR LATINO,Y,Xanomeline High Dose,Xan_Hi,Xanomeline High Dose,Xan_Hi,Xanomeline High Dose,Xanomeline High Dose,2014-07-01,2014-07-01T00:00:00Z,H,2014-12-30,2014-12-30T23:59:59Z,H,COMPLETED,2014-12-30,,2014-07-01,2014-12-30,183,,,,,81,54,mg,2014-07-01,12:00:00,2014-07-01T12:00:00Z,1,,,,,,,,Day 1,1,12h Post-dose,12,Day 1,Pharmacokinetic concentration of Xanomeline,XAN,1,PLASMA,0.5560839824942169,ug/ml,0.556,0,Day 1 Baseline,0.5560839824942169,,,Y,Y,PC,SEQ,10,12,XAN,XANOMELINE,0.556083982494217,ug/ml,0.556083982494217,0.5560839824942169,ug/ml,Imaginary Labs,PLASMA,0.01,BASELINE,3,1,2014-07-01T12:00:00,1,12h Post-dose,12,2014-07-01T00:00:00Z,12,12,2014-07-01T00:00:00Z,2014-07-01,00:00:00,2014-07-01,00:00:00,12,HOURS,HOURS,0.01,12,154.94,cm,62.6,kg,26.07637572168453,kg/m^2
68,CDISCPILOT01,01-701-1034,1034,701,USA,2014-07-01,2014-12-30,2014-07-01,2014-12-30,2014-12-30T09:50,,,,,,,,,,,,14,NA,2014-06-24,-7,77,YEARS,>64,F,WHITE,White,NOT HISPANIC OR LATINO,Y,Xanomeline High Dose,Xan_Hi,Xanomeline High Dose,Xan_Hi,Xanomeline High Dose,Xanomeline High Dose,2014-07-01,2014-07-01T00:00:00Z,H,2014-12-30,2014-12-30T23:59:59Z,H,COMPLETED,2014-12-30,,2014-07-01,2014-12-30,183,,,,,81,54,mg,2014-07-01,16:00:00,2014-07-01T16:00:00Z,1,,,,,,,,Day 1,1,16h Post-dose,16,Day 1,Pharmacokinetic concentration of Xanomeline,XAN,1,PLASMA,0.16232913820526063,ug/ml,0.162,0,Day 1 Baseline,0.16232913820526063,,,Y,Y,PC,SEQ,11,16,XAN,XANOMELINE,0.162329138205261,ug/ml,0.162329138205261,0.16232913820526063,ug/ml,Imaginary Labs,PLASMA,0.01,BASELINE,3,1,2014-07-01T16:00:00,1,16h Post-dose,16,2014-07-01T00:00:00Z,16,16,2014-07-01T00:00:00Z,2014-07-01,00:00:00,2014-07-01,00:00:00,16,HOURS,HOURS,0.01,16,154.94,cm,62.6,kg,26.07637572168453,kg/m^2
69,CDISCPILOT01,01-701-1034,1034,701,USA,2014-07-01,2014-12-30,2014-07-01,2014-12-30,2014-12-30T09:50,,,,,,,,,,,,15,NA,2014-06-24,-7,77,YEARS,>64,F,WHITE,White,NOT HISPANIC OR LATINO,Y,Xanomeline High Dose,Xan_Hi,Xanomeline High Dose,Xan_Hi,Xanomeline High Dose,Xanomeline High Dose,2014-07-01,2014-07-01T00:00:00Z,H,2014-12-30,2014-12-30T23:59:59Z,H,COMPLETED,2014-12-30,,2014-07-01,2014-12-30,183,,,,,81,54,mg,2014-07-02,00:00:00,2014-07-02T00:00:00Z,2,,,,,,,,Day 1,1,12-24h Post-dose,18,Day 1,Pharmacokinetic concentration of Xanomeline,XAN,1,URINE,13.4549938058456,ug/ml,13.5,,Day 1 Baseline,,,,Y,Y,PC,SEQ,17,18,XAN,XANOMELINE,13.4549938058456,ug/ml,13.4549938058456,13.4549938058456,ug/ml,Imaginary Labs,URINE,0.01,BASELINE,3,1,2014-07-02T00:00:00,2,12-24h Post-dose,18,2014-07-01T00:00:00Z,24,24,2014-07-01T00:00:00Z,2014-07-01,00:00:00,2014-07-01,00:00:00,18,HOURS,HOURS,0.01,24,154.94,cm,62.6,kg,26.07637572168453,kg/m^2
70,CDISCPILOT01,01-701-1034,1034,701,USA,2014-07-01,2014-12-30,2014-07-01,2014-12-30,2014-12-30T09:50,,,,,,,,,,,,16,NA,2014-06-24,-7,77,YEARS,>64,F,WHITE,White,NOT HISPANIC OR LATINO,Y,Xanomeline High Dose,Xan_Hi,Xanomeline High Dose,Xan_Hi,Xanomeline High Dose,Xanomeline High Dose,2014-07-01,2014-07-01T00:00:00Z,H,2014-12-30,2014-12-30T23:59:59Z,H,COMPLETED,2014-12-30,,2014-07-01,2014-12-30,183,,,,,81,54,mg,2014-07-02,00:00:00,2014-07-02T00:00:00Z,2,,,,,,,,Day 2,2,24h Post-dose,24,Day 1,Pharmacokinetic concentration of Xanomeline,XAN,1,PLASMA,0.013832754761395649,ug/ml,0.0138,0,Day 1 Baseline,0.013832754761395649,,,Y,Y,PC,SEQ,12,24,XAN,XANOMELINE,0.0138327547613956,ug/ml,0.0138327547613956,0.013832754761395649,ug/ml,Imaginary Labs,PLASMA,0.01,BASELINE,3,1,2014-07-02T00:00:00,2,24h Post-dose,24,2014-07-01T00:00:00Z,24,24,2014-07-01T00:00:00Z,2014-07-01,00:00:00,2014-07-01,00:00:00,24,HOURS,HOURS,0.01,24,154.94,cm,62.6,kg,26.07637572168453,kg/m^2
71,CDISCPILOT01,01-701-1034,1034,701,USA,2014-07-01,2014-12-30,2014-07-01,2014-12-30,2014-12-30T09:50,,,,,,,,,,,,17,NA,2014-06-24,-7,77,YEARS,>64,F,WHITE,White,NOT HISPANIC OR LATINO,Y,Xanomeline High Dose,Xan_Hi,Xanomeline High Dose,Xan_Hi,Xanomeline High Dose,Xanomeline High Dose,2014-07-01,2014-07-01T00:00:00Z,H,2014-12-30,2014-12-30T23:59:59Z,H,COMPLETED,2014-12-30,,2014-07-01,2014-12-30,183,,,,,81,54,mg,2014-07-02,00:00:00,2014-07-02T00:00:00Z,2,,,,,,,,Day 2,2,Pre-dose,-0.5,Day 2,Pharmacokinetic concentration of Xanomeline,XAN,1,PLASMA,0.013832754761395649,ug/ml,0.0138,0.013832754761395649,Day 2 Baseline,0,COPY,Y,Y,,PC,SEQ,12,24,XAN,XANOMELINE,0.0138327547613956,ug/ml,0.0138327547613956,0.013832754761395649,ug/ml,Imaginary Labs,PLASMA,0.01,BASELINE,3,1,2014-07-02T00:00:00,2,24h Post-dose,24,2014-07-01T00:00:00Z,24,0,2014-07-02T00:00:00Z,2014-07-01,00:00:00,2014-07-02,00:00:00,0,HOURS,HOURS,0.01,0,154.94,cm,62.6,kg,26.07637572168453,kg/m^2
72,CDISCPILOT01,01-701-1034,1034,701,USA,2014-07-01,2014-12-30,2014-07-01,2014-12-30,2014-12-30T09:50,,,,,,,,,,,,18,NA,2014-06-24,-7,77,YEARS,>64,F,WHITE,White,NOT HISPANIC OR LATINO,Y,Xanomeline High Dose,Xan_Hi,Xanomeline High Dose,Xan_Hi,Xanomeline High Dose,Xanomeline High Dose,2014-07-01,2014-07-01T00:00:00Z,H,2014-12-30,2014-12-30T23:59:59Z,H,COMPLETED,2014-12-30,,2014-07-01,2014-12-30,183,,,,,81,54,mg,2014-07-02,00:00:00,2014-07-02T00:00:00Z,2,,2014-07-02,00:00:00,2014-07-02T00:00:00Z,2014-07-02,00:00:00,2014-07-02T00:00:00Z,Day 2,2,Dose,0,Day 2,Xanomeline Patch Dose,DOSE,2,,54,mg,,,Day 2 Baseline,,,,Y,Y,EX,SEQ,1,24,,,,,,,,,,,BASELINE,3,1,,,,,2014-07-01T00:00:00Z,24,0,2014-07-02T00:00:00Z,2014-07-01,00:00:00,2014-07-02,00:00:00,0,,,,0,154.94,cm,62.6,kg,26.07637572168453,kg/m^2
73,CDISCPILOT01,01-701-1034,1034,701,USA,2014-07-01,2014-12-30,2014-07-01,2014-12-30,2014-12-30T09:50,,,,,,,,,,,,19,NA,2014-06-24,-7,77,YEARS,>64,F,WHITE,White,NOT HISPANIC OR LATINO,Y,Xanomeline High Dose,Xan_Hi,Xanomeline High Dose,Xan_Hi,Xanomeline High Dose,Xanomeline High Dose,2014-07-01,2014-07-01T00:00:00Z,H,2014-12-30,2014-12-30T23:59:59Z,H,COMPLETED,2014-12-30,,2014-07-01,2014-12-30,183,,,,,81,54,mg,2014-07-02,12:00:00,2014-07-02T12:00:00Z,2,,,,,,,,Day 2,2,36h Post-dose,36,Day 2,Pharmacokinetic concentration of Xanomeline,XAN,1,PLASMA,0.005,ug/ml,<BLQ,0.013832754761395649,Day 2 Baseline,-0.00883275476139565,HALFLLOQ,,Y,,PC,SEQ,13,36,XAN,XANOMELINE,<BLQ,ug/ml,<BLQ,,ug/ml,Imaginary Labs,PLASMA,0.01,BASELINE,3,1,2014-07-02T12:00:00,2,36h Post-dose,36,2014-07-01T00:00:00Z,36,12,2014-07-02T00:00:00Z,2014-07-01,00:00:00,2014-07-02,00:00:00,12,HOURS,HOURS,0.01,12,154.94,cm,62.6,kg,26.07637572168453,kg/m^2
74,CDISCPILOT01,01-701-1034,1034,701,USA,2014-07-01,2014-12-30,2014-07-01,2014-12-30,2014-12-30T09:50,,,,,,,,,,,,20,NA,2014-06-24,-7,77,YEARS,>64,F,WHITE,White,NOT HISPANIC OR LATINO,Y,Xanomeline High Dose,Xan_Hi,Xanomeline High Dose,Xan_Hi,Xanomeline High Dose,Xanomeline High Dose,2014-07-01,2014-07-01T00:00:00Z,H,2014-12-30,2014-12-30T23:59:59Z,H,COMPLETED,2014-12-30,,2014-07-01,2014-12-30,183,,,,,81,54,mg,2014-07-02,12:00:00,2014-07-02T12:00:00Z,2,,,,,,,,Day 2,2,36h Post-dose,36,Day 2,Pharmacokinetic concentration of Xanomeline,XAN,1,PLASMA,,ug/ml,<BLQ,0.013832754761395649,Day 2 Baseline,,,,Y,Y,PC,SEQ,13,36,XAN,XANOMELINE,<BLQ,ug/ml,<BLQ,,ug/ml,Imaginary Labs,PLASMA,0.01,BASELINE,3,1,2014-07-02T12:00:00,2,36h Post-dose,36,2014-07-01T00:00:00Z,36,12,2014-07-02T00:00:00Z,2014-07-01,00:00:00,2014-07-02,00:00:00,12,HOURS,HOURS,0.01,12,154.94,cm,62.6,kg,26.07637572168453,kg/m^2
75,CDISCPILOT01,01-701-1034,1034,701,USA,2014-07-01,2014-12-30,2014-07-01,2014-12-30,2014-12-30T09:50,,,,,,,,,,,,21,NA,2014-06-24,-7,77,YEARS,>64,F,WHITE,White,NOT HISPANIC OR LATINO,Y,Xanomeline High Dose,Xan_Hi,Xanomeline High Dose,Xan_Hi,Xanomeline High Dose,Xanomeline High Dose,2014-07-01,2014-07-01T00:00:00Z,H,2014-12-30,2014-12-30T23:59:59Z,H,COMPLETED,2014-12-30,,2014-07-01,2014-12-30,183,,,,,81,54,mg,2014-07-03,00:00:00,2014-07-03T00:00:00Z,3,,,,,,,,Day 2,2,24-48h Post-dose,37,Day 2,Pharmacokinetic concentration of Xanomeline,XAN,1,URINE,0.005,ug/ml,<BLQ,,Day 2 Baseline,,HALFLLOQ,,Y,,PC,SEQ,18,36,XAN,XANOMELINE,<BLQ,ug/ml,<BLQ,,ug/ml,Imaginary Labs,URINE,0.01,BASELINE,3,1,2014-07-03T00:00:00,3,24-48h Post-dose,37,2014-07-01T00:00:00Z,48,24,2014-07-02T00:00:00Z,2014-07-01,00:00:00,2014-07-02,00:00:00,12,HOURS,HOURS,0.01,24,154.94,cm,62.6,kg,26.07637572168453,kg/m^2
76,CDISCPILOT01,01-701-1034,1034,701,USA,2014-07-01,2014-12-30,2014-07-01,2014-12-30,2014-12-30T09:50,,,,,,,,,,,,22,NA,2014-06-24,-7,77,YEARS,>64,F,WHITE,White,NOT HISPANIC OR LATINO,Y,Xanomeline High Dose,Xan_Hi,Xanomeline High Dose,Xan_Hi,Xanomeline High Dose,Xanomeline High Dose,2014-07-01,2014-07-01T00:00:00Z,H,2014-12-30,2014-12-30T23:59:59Z,H,COMPLETED,2014-12-30,,2014-07-01,2014-12-30,183,,,,,81,54,mg,2014-07-03,00:00:00,2014-07-03T00:00:00Z,3,,,,,,,,Day 2,2,24-48h Post-dose,37,Day 2,Pharmacokinetic concentration of Xanomeline,XAN,1,URINE,,ug/ml,<BLQ,,Day 2 Baseline,,,,Y,Y,PC,SEQ,18,36,XAN,XANOMELINE,<BLQ,ug/ml,<BLQ,,ug/ml,Imaginary Labs,URINE,0.01,BASELINE,3,1,2014-07-03T00:00:00,3,24-48h Post-dose,37,2014-07-01T00:00:00Z,48,24,2014-07-02T00:00:00Z,2014-07-01,00:00:00,2014-07-02,00:00:00,12,HOURS,HOURS,0.01,24,154.94,cm,62.6,kg,26.07637572168453,kg/m^2
77,CDISCPILOT01,01-701-1034,1034,701,USA,2014-07-01,2014-12-30,2014-07-01,2014-12-30,2014-12-30T09:50,,,,,,,,,,,,23,NA,2014-06-24,-7,77,YEARS,>64,F,WHITE,White,NOT HISPANIC OR LATINO,Y,Xanomeline High Dose,Xan_Hi,Xanomeline High Dose,Xan_Hi,Xanomeline High Dose,Xanomeline High Dose,2014-07-01,2014-07-01T00:00:00Z,H,2014-12-30,2014-12-30T23:59:59Z,H,COMPLETED,2014-12-30,,2014-07-01,2014-12-30,183,,,,,81,54,mg,2014-07-03,00:00:00,2014-07-03T00:00:00Z,3,,,,,,,,Day 3,3,48h Post-dose,48,Day 2,Pharmacokinetic concentration of Xanomeline,XAN,1,PLASMA,0.005,ug/ml,<BLQ,0.013832754761395649,Day 2 Baseline,-0.00883275476139565,HALFLLOQ,,Y,,PC,SEQ,14,48,XAN,XANOMELINE,<BLQ,ug/ml,<BLQ,,ug/ml,Imaginary Labs,PLASMA,0.01,BASELINE,3,1,2014-07-03T00:00:00,3,48h Post-dose,48,2014-07-01T00:00:00Z,48,24,2014-07-02T00:00:00Z,2014-07-01,00:00:00,2014-07-02,00:00:00,24,HOURS,HOURS,0.01,24,154.94,cm,62.6,kg,26.07637572168453,kg/m^2
78,CDISCPILOT01,01-701-1034,1034,701,USA,2014-07-01,2014-12-30,2014-07-01,2014-12-30,2014-12-30T09:50,,,,,,,,,,,,24,NA,2014-06-24,-7,77,YEARS,>64,F,WHITE,White,NOT HISPANIC OR LATINO,Y,Xanomeline High Dose,Xan_Hi,Xanomeline High Dose,Xan_Hi,Xanomeline High Dose,Xanomeline High Dose,2014-07-01,2014-07-01T00:00:00Z,H,2014-12-30,2014-12-30T23:59:59Z,H,COMPLETED,2014-12-30,,2014-07-01,2014-12-30,183,,,,,81,54,mg,2014-07-03,00:00:00,2014-07-03T00:00:00Z,3,,,,,,,,Day 3,3,48h Post-dose,48,Day 2,Pharmacokinetic concentration of Xanomeline,XAN,1,PLASMA,,ug/ml,<BLQ,0.013832754761395649,Day 2 Baseline,,,,Y,Y,PC,SEQ,14,48,XAN,XANOMELINE,<BLQ,ug/ml,<BLQ,,ug/ml,Imaginary Labs,PLASMA,0.01,BASELINE,3,1,2014-07-03T00:00:00,3,48h Post-dose,48,2014-07-01T00:00:00Z,48,24,2014-07-02T00:00:00Z,2014-07-01,00:00:00,2014-07-02,00:00:00,24,HOURS,HOURS,0.01,24,154.94,cm,62.6,kg,26.07637572168453,kg/m^2
79,CDISCPILOT01,01-701-1034,1034,701,USA,2014-07-01,2014-12-30,2014-07-01,2014-12-30,2014-12-30T09:50,,,,,,,,,,,,25,NA,2014-06-24,-7,77,YEARS,>64,F,WHITE,White,NOT HISPANIC OR LATINO,Y,Xanomeline High Dose,Xan_Hi,Xanomeline High Dose,Xan_Hi,Xanomeline High Dose,Xanomeline High Dose,2014-07-01,2014-07-01T00:00:00Z,H,2014-12-30,2014-12-30T23:59:59Z,H,COMPLETED,2014-12-30,,2014-07-01,2014-12-30,183,,,,,81,54,mg,2014-07-03,00:00:00,2014-07-03T00:00:00Z,3,,,,,,,,Day 3,3,Pre-dose,-0.5,Day 3,Pharmacokinetic concentration of Xanomeline,XAN,1,PLASMA,,ug/ml,<BLQ,0.005,Day 3 Baseline,,COPY,,Y,,PC,SEQ,14,48,XAN,XANOMELINE,<BLQ,ug/ml,<BLQ,,ug/ml,Imaginary Labs,PLASMA,0.01,BASELINE,3,1,2014-07-03T00:00:00,3,48h Post-dose,48,2014-07-01T00:00:00Z,48,0,2014-07-03T00:00:00Z,2014-07-01,00:00:00,2014-07-03,00:00:00,0,HOURS,HOURS,0.01,0,154.94,cm,62.6,kg,26.07637572168453,kg/m^2
80,CDISCPILOT01,01-701-1034,1034,701,USA,2014-07-01,2014-12-30,2014-07-01,2014-12-30,2014-12-30T09:50,,,,,,,,,,,,26,NA,2014-06-24,-7,77,YEARS,>64,F,WHITE,White,NOT HISPANIC OR LATINO,Y,Xanomeline High Dose,Xan_Hi,Xanomeline High Dose,Xan_Hi,Xanomeline High Dose,Xanomeline High Dose,2014-07-01,2014-07-01T00:00:00Z,H,2014-12-30,2014-12-30T23:59:59Z,H,COMPLETED,2014-12-30,,2014-07-01,2014-12-30,183,,,,,81,54,mg,2014-07-03,00:00:00,2014-07-03T00:00:00Z,3,,,,,,,,Day 3,3,Pre-dose,-0.5,Day 3,Pharmacokinetic concentration of Xanomeline,XAN,1,PLASMA,0.005,ug/ml,<BLQ,0.005,Day 3 Baseline,0,COPY/HALFLLOQ,Y,Y,,PC,SEQ,14,48,XAN,XANOMELINE,<BLQ,ug/ml,<BLQ,,ug/ml,Imaginary Labs,PLASMA,0.01,BASELINE,3,1,2014-07-03T00:00:00,3,48h Post-dose,48,2014-07-01T00:00:00Z,48,0,2014-07-03T00:00:00Z,2014-07-01,00:00:00,2014-07-03,00:00:00,0,HOURS,HOURS,0.01,0,154.94,cm,62.6,kg,26.07637572168453,kg/m^2
81,CDISCPILOT01,01-701-1034,1034,701,USA,2014-07-01,2014-12-30,2014-07-01,2014-12-30,2014-12-30T09:50,,,,,,,,,,,,27,NA,2014-06-24,-7,77,YEARS,>64,F,WHITE,White,NOT HISPANIC OR LATINO,Y,Xanomeline High Dose,Xan_Hi,Xanomeline High Dose,Xan_Hi,Xanomeline High Dose,Xanomeline High Dose,2014-07-01,2014-07-01T00:00:00Z,H,2014-12-30,2014-12-30T23:59:59Z,H,COMPLETED,2014-12-30,,2014-07-01,2014-12-30,183,,,,,81,54,mg,2014-07-03,00:00:00,2014-07-03T00:00:00Z,3,,2014-07-03,00:00:00,2014-07-03T00:00:00Z,2014-07-03,00:00:00,2014-07-03T00:00:00Z,Day 3,3,Dose,0,Day 3,Xanomeline Patch Dose,DOSE,2,,54,mg,,,Day 3 Baseline,,,,Y,Y,EX,SEQ,1,48,,,,,,,,,,,BASELINE,3,1,,,,,2014-07-01T00:00:00Z,48,0,2014-07-03T00:00:00Z,2014-07-01,00:00:00,2014-07-03,00:00:00,0,,,,0,154.94,cm,62.6,kg,26.07637572168453,kg/m^2
82,CDISCPILOT01,01-701-1097,1097,701,USA,2014-01-01,2014-07-09,2014-01-01,2014-07-09,2014-07-09T09:39,,,,,,,,,,,,1,NA,2013-12-23,-9,68,YEARS,>64,M,WHITE,White,NOT HISPANIC OR LATINO,Y,Xanomeline Low Dose,Xan_Lo,Xanomeline Low Dose,Xan_Lo,Xanomeline Low Dose,Xanomeline Low Dose,2014-01-01,2014-01-01T00:00:00Z,H,2014-07-09,2014-07-09T23:59:59Z,H,COMPLETED,2014-07-09,,2014-01-01,2014-07-09,190,,,,,54,54,mg,2013-12-31,23:30:00,2013-12-31T23:30:00Z,-1,,,,,,,,Day 1,1,Pre-dose,-0.5,Day 1,Pharmacokinetic concentration of Xanomeline,XAN,1,PLASMA,0,ug/ml,<BLQ,0,Day 1 Baseline,0,,Y,Y,Y,PC,SEQ,1,0,XAN,XANOMELINE,<BLQ,ug/ml,<BLQ,0,ug/ml,Imaginary Labs,PLASMA,0.01,BASELINE,3,1,2013-12-31T23:30:00,-1,Pre-dose,-0.5,2014-01-01T00:00:00Z,-0.5,-0.5,2014-01-01T00:00:00Z,2014-01-01,00:00:00,2014-01-01,00:00:00,0,HOURS,,0.01,0,168.91,cm,78.02,kg,27.34608895075668,kg/m^2
83,CDISCPILOT01,01-701-1097,1097,701,USA,2014-01-01,2014-07-09,2014-01-01,2014-07-09,2014-07-09T09:39,,,,,,,,,,,,2,NA,2013-12-23,-9,68,YEARS,>64,M,WHITE,White,NOT HISPANIC OR LATINO,Y,Xanomeline Low Dose,Xan_Lo,Xanomeline Low Dose,Xan_Lo,Xanomeline Low Dose,Xanomeline Low Dose,2014-01-01,2014-01-01T00:00:00Z,H,2014-07-09,2014-07-09T23:59:59Z,H,COMPLETED,2014-07-09,,2014-01-01,2014-07-09,190,,,,,54,54,mg,2014-01-01,00:00:00,2014-01-01T00:00:00Z,1,,2014-01-01,00:00:00,2014-01-01T00:00:00Z,2014-01-01,00:00:00,2014-01-01T00:00:00Z,Day 1,1,Dose,0,Day 1,Xanomeline Patch Dose,DOSE,2,,54,mg,,,Day 1 Baseline,,,,Y,Y,EX,SEQ,1,0,,,,,,,,,,,BASELINE,3,1,,,,,2014-01-01T00:00:00Z,0,0,2014-01-01T00:00:00Z,2014-01-01,00:00:00,2014-01-01,00:00:00,0,,,,0,168.91,cm,78.02,kg,27.34608895075668,kg/m^2
84,CDISCPILOT01,01-701-1097,1097,701,USA,2014-01-01,2014-07-09,2014-01-01,2014-07-09,2014-07-09T09:39,,,,,,,,,,,,3,NA,2013-12-23,-9,68,YEARS,>64,M,WHITE,White,NOT HISPANIC OR LATINO,Y,Xanomeline Low Dose,Xan_Lo,Xanomeline Low Dose,Xan_Lo,Xanomeline Low Dose,Xanomeline Low Dose,2014-01-01,2014-01-01T00:00:00Z,H,2014-07-09,2014-07-09T23:59:59Z,H,COMPLETED,2014-07-09,,2014-01-01,2014-07-09,190,,,,,54,54,mg,2014-01-01,00:05:00,2014-01-01T00:05:00Z,1,,,,,,,,Day 1,1,5 Min Post-dose,0.08,Day 1,Pharmacokinetic concentration of Xanomeline,XAN,1,PLASMA,0.09949487789002295,ug/ml,0.0995,0,Day 1 Baseline,0.09949487789002295,,,Y,Y,PC,SEQ,2,0.08333333333333333,XAN,XANOMELINE,0.099494877890023,ug/ml,0.099494877890023,0.09949487789002295,ug/ml,Imaginary Labs,PLASMA,0.01,BASELINE,3,1,2014-01-01T00:05:00,1,5 Min Post-dose,0.08,2014-01-01T00:00:00Z,0.08333333333333333,0.08333333333333333,2014-01-01T00:00:00Z,2014-01-01,00:00:00,2014-01-01,00:00:00,0.08333333333333333,HOURS,HOURS,0.01,0.08333333333333333,168.91,cm,78.02,kg,27.34608895075668,kg/m^2
85,CDISCPILOT01,01-701-1097,1097,701,USA,2014-01-01,2014-07-09,2014-01-01,2014-07-09,2014-07-09T09:39,,,,,,,,,,,,4,NA,2013-12-23,-9,68,YEARS,>64,M,WHITE,White,NOT HISPANIC OR LATINO,Y,Xanomeline Low Dose,Xan_Lo,Xanomeline Low Dose,Xan_Lo,Xanomeline Low Dose,Xanomeline Low Dose,2014-01-01,2014-01-01T00:00:00Z,H,2014-07-09,2014-07-09T23:59:59Z,H,COMPLETED,2014-07-09,,2014-01-01,2014-07-09,190,,,,,54,54,mg,2014-01-01,00:30:00,2014-01-01T00:30:00Z,1,,,,,,,,Day 1,1,30 Min Post-dose,0.5,Day 1,Pharmacokinetic concentration of Xanomeline,XAN,1,PLASMA,0.54132546276376,ug/ml,0.541,0,Day 1 Baseline,0.54132546276376,,,Y,Y,PC,SEQ,3,0.5,XAN,XANOMELINE,0.54132546276376,ug/ml,0.54132546276376,0.54132546276376,ug/ml,Imaginary Labs,PLASMA,0.01,BASELINE,3,1,2014-01-01T00:30:00,1,30 Min Post-dose,0.5,2014-01-01T00:00:00Z,0.5,0.5,2014-01-01T00:00:00Z,2014-01-01,00:00:00,2014-01-01,00:00:00,0.5,HOURS,HOURS,0.01,0.5,168.91,cm,78.02,kg,27.34608895075668,kg/m^2
86,CDISCPILOT01,01-701-1097,1097,701,USA,2014-01-01,2014-07-09,2014-01-01,2014-07-09,2014-07-09T09:39,,,,,,,,,,,,5,NA,2013-12-23,-9,68,YEARS,>64,M,WHITE,White,NOT HISPANIC OR LATINO,Y,Xanomeline Low Dose,Xan_Lo,Xanomeline Low Dose,Xan_Lo,Xanomeline Low Dose,Xanomeline Low Dose,2014-01-01,2014-01-01T00:00:00Z,H,2014-07-09,2014-07-09T23:59:59Z,H,COMPLETED,2014-07-09,,2014-01-01,2014-07-09,190,,,,,54,54,mg,2014-01-01,01:00:00,2014-01-01T01:00:00Z,1,,,,,,,,Day 1,1,1h Post-dose,1,Day 1,Pharmacokinetic concentration of Xanomeline,XAN,1,PLASMA,0.9260796214253261,ug/ml,0.926,0,Day 1 Baseline,0.9260796214253261,,,Y,Y,PC,SEQ,4,1,XAN,XANOMELINE,0.926079621425326,ug/ml,0.926079621425326,0.9260796214253261,ug/ml,Imaginary Labs,PLASMA,0.01,BASELINE,3,1,2014-01-01T01:00:00,1,1h Post-dose,1,2014-01-01T00:00:00Z,1,1,2014-01-01T00:00:00Z,2014-01-01,00:00:00,2014-01-01,00:00:00,1,HOURS,HOURS,0.01,1,168.91,cm,78.02,kg,27.34608895075668,kg/m^2
87,CDISCPILOT01,01-701-1097,1097,701,USA,2014-01-01,2014-07-09,2014-01-01,2014-07-09,2014-07-09T09:39,,,,,,,,,,,,6,NA,2013-12-23,-9,68,YEARS,>64,M,WHITE,White,NOT HISPANIC OR LATINO,Y,Xanomeline Low Dose,Xan_Lo,Xanomeline Low Dose,Xan_Lo,Xanomeline Low Dose,Xanomeline Low Dose,2014-01-01,2014-01-01T00:00:00Z,H,2014-07-09,2014-07-09T23:59:59Z,H,COMPLETED,2014-07-09,,2014-01-01,2014-07-09,190,,,,,54,54,mg,2014-01-01,01:30:00,2014-01-01T01:30:00Z,1,,,,,,,,Day 1,1,1.5h Post-dose,1.5,Day 1,Pharmacokinetic concentration of Xanomeline,XAN,1,PLASMA,1.1995486761628706,ug/ml,1.2,0,Day 1 Baseline,1.1995486761628706,,,Y,Y,PC,SEQ,5,1.5,XAN,XANOMELINE,1.19954867616287,ug/ml,1.19954867616287,1.1995486761628706,ug/ml,Imaginary Labs,PLASMA,0.01,BASELINE,3,1,2014-01-01T01:30:00,1,1.5h Post-dose,1.5,2014-01-01T00:00:00Z,1.5,1.5,2014-01-01T00:00:00Z,2014-01-01,00:00:00,2014-01-01,00:00:00,1.5,HOURS,HOURS,0.01,1.5,168.91,cm,78.02,kg,27.34608895075668,kg/m^2
88,CDISCPILOT01,01-701-1097,1097,701,USA,2014-01-01,2014-07-09,2014-01-01,2014-07-09,2014-07-09T09:39,,,,,,,,,,,,7,NA,2013-12-23,-9,68,YEARS,>64,M,WHITE,White,NOT HISPANIC OR LATINO,Y,Xanomeline Low Dose,Xan_Lo,Xanomeline Low Dose,Xan_Lo,Xanomeline Low Dose,Xanomeline Low Dose,2014-01-01,2014-01-01T00:00:00Z,H,2014-07-09,2014-07-09T23:59:59Z,H,COMPLETED,2014-07-09,,2014-01-01,2014-07-09,190,,,,,54,54,mg,2014-01-01,02:00:00,2014-01-01T02:00:00Z,1,,,,,,,,Day 1,1,2h Post-dose,2,Day 1,Pharmacokinetic concentration of Xanomeline,XAN,1,PLASMA,1.393920386553734,ug/ml,1.39,0,Day 1 Baseline,1.393920386553734,,,Y,Y,PC,SEQ,6,2,XAN,XANOMELINE,1.39392038655373,ug/ml,1.39392038655373,1.393920386553734,ug/ml,Imaginary Labs,PLASMA,0.01,BASELINE,3,1,2014-01-01T02:00:00,1,2h Post-dose,2,2014-01-01T00:00:00Z,2,2,2014-01-01T00:00:00Z,2014-01-01,00:00:00,2014-01-01,00:00:00,2,HOURS,HOURS,0.01,2,168.91,cm,78.02,kg,27.34608895075668,kg/m^2
89,CDISCPILOT01,01-701-1097,1097,701,USA,2014-01-01,2014-07-09,2014-01-01,2014-07-09,2014-07-09T09:39,,,,,,,,,,,,8,NA,2013-12-23,-9,68,YEARS,>64,M,WHITE,White,NOT HISPANIC OR LATINO,Y,Xanomeline Low Dose,Xan_Lo,Xanomeline Low Dose,Xan_Lo,Xanomeline Low Dose,Xanomeline Low Dose,2014-01-01,2014-01-01T00:00:00Z,H,2014-07-09,2014-07-09T23:59:59Z,H,COMPLETED,2014-07-09,,2014-01-01,2014-07-09,190,,,,,54,54,mg,2014-01-01,04:00:00,2014-01-01T04:00:00Z,1,,,,,,,,Day 1,1,4h Post-dose,4,Day 1,Pharmacokinetic concentration of Xanomeline,XAN,1,PLASMA,1.7496642662569635,ug/ml,1.75,0,Day 1 Baseline,1.7496642662569635,,,Y,Y,PC,SEQ,7,4,XAN,XANOMELINE,1.74966426625696,ug/ml,1.74966426625696,1.7496642662569635,ug/ml,Imaginary Labs,PLASMA,0.01,BASELINE,3,1,2014-01-01T04:00:00,1,4h Post-dose,4,2014-01-01T00:00:00Z,4,4,2014-01-01T00:00:00Z,2014-01-01,00:00:00,2014-01-01,00:00:00,4,HOURS,HOURS,0.01,4,168.91,cm,78.02,kg,27.34608895075668,kg/m^2
90,CDISCPILOT01,01-701-1097,1097,701,USA,2014-01-01,2014-07-09,2014-01-01,2014-07-09,2014-07-09T09:39,,,,,,,,,,,,9,NA,2013-12-23,-9,68,YEARS,>64,M,WHITE,White,NOT HISPANIC OR LATINO,Y,Xanomeline Low Dose,Xan_Lo,Xanomeline Low Dose,Xan_Lo,Xanomeline Low Dose,Xanomeline Low Dose,2014-01-01,2014-01-01T00:00:00Z,H,2014-07-09,2014-07-09T23:59:59Z,H,COMPLETED,2014-07-09,,2014-01-01,2014-07-09,190,,,,,54,54,mg,2014-01-01,06:00:00,2014-01-01T06:00:00Z,1,,,,,,,,Day 1,1,0-6h Post-dose,3,Day 1,Pharmacokinetic concentration of Xanomeline,XAN,1,URINE,27.535960241595685,ug/ml,27.5,,Day 1 Baseline,,,,Y,Y,PC,SEQ,15,3,XAN,XANOMELINE,27.5359602415957,ug/ml,27.5359602415957,27.535960241595685,ug/ml,Imaginary Labs,URINE,0.01,BASELINE,3,1,2014-01-01T06:00:00,1,0-6h Post-dose,3,2014-01-01T00:00:00Z,6,6,2014-01-01T00:00:00Z,2014-01-01,00:00:00,2014-01-01,00:00:00,3,HOURS,HOURS,0.01,6,168.91,cm,78.02,kg,27.34608895075668,kg/m^2
91,CDISCPILOT01,01-701-1097,1097,701,USA,2014-01-01,2014-07-09,2014-01-01,2014-07-09,2014-07-09T09:39,,,,,,,,,,,,10,NA,2013-12-23,-9,68,YEARS,>64,M,WHITE,White,NOT HISPANIC OR LATINO,Y,Xanomeline Low Dose,Xan_Lo,Xanomeline Low Dose,Xan_Lo,Xanomeline Low Dose,Xanomeline Low Dose,2014-01-01,2014-01-01T00:00:00Z,H,2014-07-09,2014-07-09T23:59:59Z,H,COMPLETED,2014-07-09,,2014-01-01,2014-07-09,190,,,,,54,54,mg,2014-01-01,06:00:00,2014-01-01T06:00:00Z,1,,,,,,,,Day 1,1,6h Post-dose,6,Day 1,Pharmacokinetic concentration of Xanomeline,XAN,1,PLASMA,1.8404540338556648,ug/ml,1.84,0,Day 1 Baseline,1.8404540338556648,,,Y,Y,PC,SEQ,8,6,XAN,XANOMELINE,1.84045403385566,ug/ml,1.84045403385566,1.8404540338556648,ug/ml,Imaginary Labs,PLASMA,0.01,BASELINE,3,1,2014-01-01T06:00:00,1,6h Post-dose,6,2014-01-01T00:00:00Z,6,6,2014-01-01T00:00:00Z,2014-01-01,00:00:00,2014-01-01,00:00:00,6,HOURS,HOURS,0.01,6,168.91,cm,78.02,kg,27.34608895075668,kg/m^2
92,CDISCPILOT01,01-701-1097,1097,701,USA,2014-01-01,2014-07-09,2014-01-01,2014-07-09,2014-07-09T09:39,,,,,,,,,,,,11,NA,2013-12-23,-9,68,YEARS,>64,M,WHITE,White,NOT HISPANIC OR LATINO,Y,Xanomeline Low Dose,Xan_Lo,Xanomeline Low Dose,Xan_Lo,Xanomeline Low Dose,Xanomeline Low Dose,2014-01-01,2014-01-01T00:00:00Z,H,2014-07-09,2014-07-09T23:59:59Z,H,COMPLETED,2014-07-09,,2014-01-01,2014-07-09,190,,,,,54,54,mg,2014-01-01,08:00:00,2014-01-01T08:00:00Z,1,,,,,,,,Day 1,1,8h Post-dose,8,Day 1,Pharmacokinetic concentration of Xanomeline,XAN,1,PLASMA,1.8636245853982596,ug/ml,1.86,0,Day 1 Baseline,1.8636245853982596,,,Y,Y,PC,SEQ,9,8,XAN,XANOMELINE,1.86362458539826,ug/ml,1.86362458539826,1.8636245853982596,ug/ml,Imaginary Labs,PLASMA,0.01,BASELINE,3,1,2014-01-01T08:00:00,1,8h Post-dose,8,2014-01-01T00:00:00Z,8,8,2014-01-01T00:00:00Z,2014-01-01,00:00:00,2014-01-01,00:00:00,8,HOURS,HOURS,0.01,8,168.91,cm,78.02,kg,27.34608895075668,kg/m^2
93,CDISCPILOT01,01-701-1097,1097,701,USA,2014-01-01,2014-07-09,2014-01-01,2014-07-09,2014-07-09T09:39,,,,,,,,,,,,12,NA,2013-12-23,-9,68,YEARS,>64,M,WHITE,White,NOT HISPANIC OR LATINO,Y,Xanomeline Low Dose,Xan_Lo,Xanomeline Low Dose,Xan_Lo,Xanomeline Low Dose,Xanomeline Low Dose,2014-01-01,2014-01-01T00:00:00Z,H,2014-07-09,2014-07-09T23:59:59Z,H,COMPLETED,2014-07-09,,2014-01-01,2014-07-09,190,,,,,54,54,mg,2014-01-01,12:00:00,2014-01-01T12:00:00Z,1,,,,,,,,Day 1,1,6-12h Post-dose,9,Day 1,Pharmacokinetic concentration of Xanomeline,XAN,1,URINE,23.43896690574701,ug/ml,23.4,,Day 1 Baseline,,,,Y,Y,PC,SEQ,16,9,XAN,XANOMELINE,23.438966905747,ug/ml,23.438966905747,23.43896690574701,ug/ml,Imaginary Labs,URINE,0.01,BASELINE,3,1,2014-01-01T12:00:00,1,6-12h Post-dose,9,2014-01-01T00:00:00Z,12,12,2014-01-01T00:00:00Z,2014-01-01,00:00:00,2014-01-01,00:00:00,9,HOURS,HOURS,0.01,12,168.91,cm,78.02,kg,27.34608895075668,kg/m^2
94,CDISCPILOT01,01-701-1097,1097,701,USA,2014-01-01,2014-07-09,2014-01-01,2014-07-09,2014-07-09T09:39,,,,,,,,,,,,13,NA,2013-12-23,-9,68,YEARS,>64,M,WHITE,White,NOT HISPANIC OR LATINO,Y,Xanomeline Low Dose,Xan_Lo,Xanomeline Low Dose,Xan_Lo,Xanomeline Low Dose,Xanomeline Low Dose,2014-01-01,2014-01-01T00:00:00Z,H,2014-07-09,2014-07-09T23:59:59Z,H,COMPLETED,2014-07-09,,2014-01-01,2014-07-09,190,,,,,54,54,mg,2014-01-01,12:00:00,2014-01-01T12:00:00Z,1,,,,,,,,Day 1,1,12h Post-dose,12,Day 1,Pharmacokinetic concentration of Xanomeline,XAN,1,PLASMA,0.5716589096651994,ug/ml,0.572,0,Day 1 Baseline,0.5716589096651994,,,Y,Y,PC,SEQ,10,12,XAN,XANOMELINE,0.571658909665199,ug/ml,0.571658909665199,0.5716589096651994,ug/ml,Imaginary Labs,PLASMA,0.01,BASELINE,3,1,2014-01-01T12:00:00,1,12h Post-dose,12,2014-01-01T00:00:00Z,12,12,2014-01-01T00:00:00Z,2014-01-01,00:00:00,2014-01-01,00:00:00,12,HOURS,HOURS,0.01,12,168.91,cm,78.02,kg,27.34608895075668,kg/m^2
95,CDISCPILOT01,01-701-1097,1097,701,USA,2014-01-01,2014-07-09,2014-01-01,2014-07-09,2014-07-09T09:39,,,,,,,,,,,,14,NA,2013-12-23,-9,68,YEARS,>64,M,WHITE,White,NOT HISPANIC OR LATINO,Y,Xanomeline Low Dose,Xan_Lo,Xanomeline Low Dose,Xan_Lo,Xanomeline Low Dose,Xanomeline Low Dose,2014-01-01,2014-01-01T00:00:00Z,H,2014-07-09,2014-07-09T23:59:59Z,H,COMPLETED,2014-07-09,,2014-01-01,2014-07-09,190,,,,,54,54,mg,2014-01-01,16:00:00,2014-01-01T16:00:00Z,1,,,,,,,,Day 1,1,16h Post-dose,16,Day 1,Pharmacokinetic concentration of Xanomeline,XAN,1,PLASMA,0.1746100394611873,ug/ml,0.175,0,Day 1 Baseline,0.1746100394611873,,,Y,Y,PC,SEQ,11,16,XAN,XANOMELINE,0.174610039461187,ug/ml,0.174610039461187,0.1746100394611873,ug/ml,Imaginary Labs,PLASMA,0.01,BASELINE,3,1,2014-01-01T16:00:00,1,16h Post-dose,16,2014-01-01T00:00:00Z,16,16,2014-01-01T00:00:00Z,2014-01-01,00:00:00,2014-01-01,00:00:00,16,HOURS,HOURS,0.01,16,168.91,cm,78.02,kg,27.34608895075668,kg/m^2
96,CDISCPILOT01,01-701-1097,1097,701,USA,2014-01-01,2014-07-09,2014-01-01,2014-07-09,2014-07-09T09:39,,,,,,,,,,,,15,NA,2013-12-23,-9,68,YEARS,>64,M,WHITE,White,NOT HISPANIC OR LATINO,Y,Xanomeline Low Dose,Xan_Lo,Xanomeline Low Dose,Xan_Lo,Xanomeline Low Dose,Xanomeline Low Dose,2014-01-01,2014-01-01T00:00:00Z,H,2014-07-09,2014-07-09T23:59:59Z,H,COMPLETED,2014-07-09,,2014-01-01,2014-07-09,190,,,,,54,54,mg,2014-01-02,00:00:00,2014-01-02T00:00:00Z,2,,,,,,,,Day 1,1,12-24h Post-dose,18,Day 1,Pharmacokinetic concentration of Xanomeline,XAN,1,URINE,15.244980234049663,ug/ml,15.2,,Day 1 Baseline,,,,Y,Y,PC,SEQ,17,18,XAN,XANOMELINE,15.2449802340497,ug/ml,15.2449802340497,15.244980234049663,ug/ml,Imaginary Labs,URINE,0.01,BASELINE,3,1,2014-01-02T00:00:00,2,12-24h Post-dose,18,2014-01-01T00:00:00Z,24,24,2014-01-01T00:00:00Z,2014-01-01,00:00:00,2014-01-01,00:00:00,18,HOURS,HOURS,0.01,24,168.91,cm,78.02,kg,27.34608895075668,kg/m^2
97,CDISCPILOT01,01-701-1097,1097,701,USA,2014-01-01,2014-07-09,2014-01-01,2014-07-09,2014-07-09T09:39,,,,,,,,,,,,16,NA,2013-12-23,-9,68,YEARS,>64,M,WHITE,White,NOT HISPANIC OR LATINO,Y,Xanomeline Low Dose,Xan_Lo,Xanomeline Low Dose,Xan_Lo,Xanomeline Low Dose,Xanomeline Low Dose,2014-01-01,2014-01-01T00:00:00Z,H,2014-07-09,2014-07-09T23:59:59Z,H,COMPLETED,2014-07-09,,2014-01-01,2014-07-09,190,,,,,54,54,mg,2014-01-02,00:00:00,2014-01-02T00:00:00Z,2,,,,,,,,Day 2,2,24h Post-dose,24,Day 1,Pharmacokinetic concentration of Xanomeline,XAN,1,PLASMA,0.016290472392322015,ug/ml,0.0163,0,Day 1 Baseline,0.016290472392322015,,,Y,Y,PC,SEQ,12,24,XAN,XANOMELINE,0.016290472392322,ug/ml,0.016290472392322,0.016290472392322015,ug/ml,Imaginary Labs,PLASMA,0.01,BASELINE,3,1,2014-01-02T00:00:00,2,24h Post-dose,24,2014-01-01T00:00:00Z,24,24,2014-01-01T00:00:00Z,2014-01-01,00:00:00,2014-01-01,00:00:00,24,HOURS,HOURS,0.01,24,168.91,cm,78.02,kg,27.34608895075668,kg/m^2
98,CDISCPILOT01,01-701-1097,1097,701,USA,2014-01-01,2014-07-09,2014-01-01,2014-07-09,2014-07-09T09:39,,,,,,,,,,,,17,NA,2013-12-23,-9,68,YEARS,>64,M,WHITE,White,NOT HISPANIC OR LATINO,Y,Xanomeline Low Dose,Xan_Lo,Xanomeline Low Dose,Xan_Lo,Xanomeline Low Dose,Xanomeline Low Dose,2014-01-01,2014-01-01T00:00:00Z,H,2014-07-09,2014-07-09T23:59:59Z,H,COMPLETED,2014-07-09,,2014-01-01,2014-07-09,190,,,,,54,54,mg,2014-01-02,00:00:00,2014-01-02T00:00:00Z,2,,,,,,,,Day 2,2,Pre-dose,-0.5,Day 2,Pharmacokinetic concentration of Xanomeline,XAN,1,PLASMA,0.016290472392322015,ug/ml,0.0163,0.016290472392322015,Day 2 Baseline,0,COPY,Y,Y,,PC,SEQ,12,24,XAN,XANOMELINE,0.016290472392322,ug/ml,0.016290472392322,0.016290472392322015,ug/ml,Imaginary Labs,PLASMA,0.01,BASELINE,3,1,2014-01-02T00:00:00,2,24h Post-dose,24,2014-01-01T00:00:00Z,24,0,2014-01-02T00:00:00Z,2014-01-01,00:00:00,2014-01-02,00:00:00,0,HOURS,HOURS,0.01,0,168.91,cm,78.02,kg,27.34608895075668,kg/m^2
99,CDISCPILOT01,01-701-1097,1097,701,USA,2014-01-01,2014-07-09,2014-01-01,2014-07-09,2014-07-09T09:39,,,,,,,,,,,,18,NA,2013-12-23,-9,68,YEARS,>64,M,WHITE,White,NOT HISPANIC OR LATINO,Y,Xanomeline Low Dose,Xan_Lo,Xanomeline Low Dose,Xan_Lo,Xanomeline Low Dose,Xanomeline Low Dose,2014-01-01,2014-01-01T00:00:00Z,H,2014-07-09,2014-07-09T23:59:59Z,H,COMPLETED,2014-07-09,,2014-01-01,2014-07-09,190,,,,,54,54,mg,2014-01-02,00:00:00,2014-01-02T00:00:00Z,2,,2014-01-02,00:00:00,2014-01-02T00:00:00Z,2014-01-02,00:00:00,2014-01-02T00:00:00Z,Day 2,2,Dose,0,Day 2,Xanomeline Patch Dose,DOSE,2,,54,mg,,,Day 2 Baseline,,,,Y,Y,EX,SEQ,1,24,,,,,,,,,,,BASELINE,3,1,,,,,2014-01-01T00:00:00Z,24,0,2014-01-02T00:00:00Z,2014-01-01,00:00:00,2014-01-02,00:00:00,0,,,,0,168.91,cm,78.02,kg,27.34608895075668,kg/m^2
100,CDISCPILOT01,01-701-1097,1097,701,USA,2014-01-01,2014-07-09,2014-01-01,2014-07-09,2014-07-09T09:39,,,,,,,,,,,,19,NA,2013-12-23,-9,68,YEARS,>64,M,WHITE,White,NOT HISPANIC OR LATINO,Y,Xanomeline Low Dose,Xan_Lo,Xanomeline Low Dose,Xan_Lo,Xanomeline Low Dose,Xanomeline Low Dose,2014-01-01,2014-01-01T00:00:00Z,H,2014-07-09,2014-07-09T23:59:59Z,H,COMPLETED,2014-07-09,,2014-01-01,2014-07-09,190,,,,,54,54,mg,2014-01-02,12:00:00,2014-01-02T12:00:00Z,2,,,,,,,,Day 2,2,36h Post-dose,36,Day 2,Pharmacokinetic concentration of Xanomeline,XAN,1,PLASMA,0.005,ug/ml,<BLQ,0.016290472392322015,Day 2 Baseline,-0.011290472392322014,HALFLLOQ,,Y,,PC,SEQ,13,36,XAN,XANOMELINE,<BLQ,ug/ml,<BLQ,,ug/ml,Imaginary Labs,PLASMA,0.01,BASELINE,3,1,2014-01-02T12:00:00,2,36h Post-dose,36,2014-01-01T00:00:00Z,36,12,2014-01-02T00:00:00Z,2014-01-01,00:00:00,2014-01-02,00:00:00,12,HOURS,HOURS,0.01,12,168.91,cm,78.02,kg,27.34608895075668,kg/m^2
101,CDISCPILOT01,01-701-1097,1097,701,USA,2014-01-01,2014-07-09,2014-01-01,2014-07-09,2014-07-09T09:39,,,,,,,,,,,,20,NA,2013-12-23,-9,68,YEARS,>64,M,WHITE,White,NOT HISPANIC OR LATINO,Y,Xanomeline Low Dose,Xan_Lo,Xanomeline Low Dose,Xan_Lo,Xanomeline Low Dose,Xanomeline Low Dose,2014-01-01,2014-01-01T00:00:00Z,H,2014-07-09,2014-07-09T23:59:59Z,H,COMPLETED,2014-07-09,,2014-01-01,2014-07-09,190,,,,,54,54,mg,2014-01-02,12:00:00,2014-01-02T12:00:00Z,2,,,,,,,,Day 2,2,36h Post-dose,36,Day 2,Pharmacokinetic concentration of Xanomeline,XAN,1,PLASMA,,ug/ml,<BLQ,0.016290472392322015,Day 2 Baseline,,,,Y,Y,PC,SEQ,13,36,XAN,XANOMELINE,<BLQ,ug/ml,<BLQ,,ug/ml,Imaginary Labs,PLASMA,0.01,BASELINE,3,1,2014-01-02T12:00:00,2,36h Post-dose,36,2014-01-01T00:00:00Z,36,12,2014-01-02T00:00:00Z,2014-01-01,00:00:00,2014-01-02,00:00:00,12,HOURS,HOURS,0.01,12,168.91,cm,78.02,kg,27.34608895075668,kg/m^2
102,CDISCPILOT01,01-701-1097,1097,701,USA,2014-01-01,2014-07-09,2014-01-01,2014-07-09,2014-07-09T09:39,,,,,,,,,,,,21,NA,2013-12-23,-9,68,YEARS,>64,M,WHITE,White,NOT HISPANIC OR LATINO,Y,Xanomeline Low Dose,Xan_Lo,Xanomeline Low Dose,Xan_Lo,Xanomeline Low Dose,Xanomeline Low Dose,2014-01-01,2014-01-01T00:00:00Z,H,2014-07-09,2014-07-09T23:59:59Z,H,COMPLETED,2014-07-09,,2014-01-01,2014-07-09,190,,,,,54,54,mg,2014-01-03,00:00:00,2014-01-03T00:00:00Z,3,,,,,,,,Day 2,2,24-48h Post-dose,37,Day 2,Pharmacokinetic concentration of Xanomeline,XAN,1,URINE,0.005,ug/ml,<BLQ,,Day 2 Baseline,,HALFLLOQ,,Y,,PC,SEQ,18,36,XAN,XANOMELINE,<BLQ,ug/ml,<BLQ,,ug/ml,Imaginary Labs,URINE,0.01,BASELINE,3,1,2014-01-03T00:00:00,3,24-48h Post-dose,37,2014-01-01T00:00:00Z,48,24,2014-01-02T00:00:00Z,2014-01-01,00:00:00,2014-01-02,00:00:00,12,HOURS,HOURS,0.01,24,168.91,cm,78.02,kg,27.34608895075668,kg/m^2
103,CDISCPILOT01,01-701-1097,1097,701,USA,2014-01-01,2014-07-09,2014-01-01,2014-07-09,2014-07-09T09:39,,,,,,,,,,,,22,NA,2013-12-23,-9,68,YEARS,>64,M,WHITE,White,NOT HISPANIC OR LATINO,Y,Xanomeline Low Dose,Xan_Lo,Xanomeline Low Dose,Xan_Lo,Xanomeline Low Dose,Xanomeline Low Dose,2014-01-01,2014-01-01T00:00:00Z,H,2014-07-09,2014-07-09T23:59:59Z,H,COMPLETED,2014-07-09,,2014-01-01,2014-07-09,190,,,,,54,54,mg,2014-01-03,00:00:00,2014-01-03T00:00:00Z,3,,,,,,,,Day 2,2,24-48h Post-dose,37,Day 2,Pharmacokinetic concentration of Xanomeline,XAN,1,URINE,,ug/ml,<BLQ,,Day 2 Baseline,,,,Y,Y,PC,SEQ,18,36,XAN,XANOMELINE,<BLQ,ug/ml,<BLQ,,ug/ml,Imaginary Labs,URINE,0.01,BASELINE,3,1,2014-01-03T00:00:00,3,24-48h Post-dose,37,2014-01-01T00:00:00Z,48,24,2014-01-02T00:00:00Z,2014-01-01,00:00:00,2014-01-02,00:00:00,12,HOURS,HOURS,0.01,24,168.91,cm,78.02,kg,27.34608895075668,kg/m^2
104,CDISCPILOT01,01-701-1097,1097,701,USA,2014-01-01,2014-07-09,2014-01-01,2014-07-09,2014-07-09T09:39,,,,,,,,,,,,23,NA,2013-12-23,-9,68,YEARS,>64,M,WHITE,White,NOT HISPANIC OR LATINO,Y,Xanomeline Low Dose,Xan_Lo,Xanomeline Low Dose,Xan_Lo,Xanomeline Low Dose,Xanomeline Low Dose,2014-01-01,2014-01-01T00:00:00Z,H,2014-07-09,2014-07-09T23:59:59Z,H,COMPLETED,2014-07-09,,2014-01-01,2014-07-09,190,,,,,54,54,mg,2014-01-03,00:00:00,2014-01-03T00:00:00Z,3,,,,,,,,Day 3,3,48h Post-dose,48,Day 2,Pharmacokinetic concentration of Xanomeline,XAN,1,PLASMA,0.005,ug/ml,<BLQ,0.016290472392322015,Day 2 Baseline,-0.011290472392322014,HALFLLOQ,,Y,,PC,SEQ,14,48,XAN,XANOMELINE,<BLQ,ug/ml,<BLQ,,ug/ml,Imaginary Labs,PLASMA,0.01,BASELINE,3,1,2014-01-03T00:00:00,3,48h Post-dose,48,2014-01-01T00:00:00Z,48,24,2014-01-02T00:00:00Z,2014-01-01,00:00:00,2014-01-02,00:00:00,24,HOURS,HOURS,0.01,24,168.91,cm,78.02,kg,27.34608895075668,kg/m^2
105,CDISCPILOT01,01-701-1097,1097,701,USA,2014-01-01,2014-07-09,2014-01-01,2014-07-09,2014-07-09T09:39,,,,,,,,,,,,24,NA,2013-12-23,-9,68,YEARS,>64,M,WHITE,White,NOT HISPANIC OR LATINO,Y,Xanomeline Low Dose,Xan_Lo,Xanomeline Low Dose,Xan_Lo,Xanomeline Low Dose,Xanomeline Low Dose,2014-01-01,2014-01-01T00:00:00Z,H,2014-07-09,2014-07-09T23:59:59Z,H,COMPLETED,2014-07-09,,2014-01-01,2014-07-09,190,,,,,54,54,mg,2014-01-03,00:00:00,2014-01-03T00:00:00Z,3,,,,,,,,Day 3,3,48h Post-dose,48,Day 2,Pharmacokinetic concentration of Xanomeline,XAN,1,PLASMA,,ug/ml,<BLQ,0.016290472392322015,Day 2 Baseline,,,,Y,Y,PC,SEQ,14,48,XAN,XANOMELINE,<BLQ,ug/ml,<BLQ,,ug/ml,Imaginary Labs,PLASMA,0.01,BASELINE,3,1,2014-01-03T00:00:00,3,48h Post-dose,48,2014-01-01T00:00:00Z,48,24,2014-01-02T00:00:00Z,2014-01-01,00:00:00,2014-01-02,00:00:00,24,HOURS,HOURS,0.01,24,168.91,cm,78.02,kg,27.34608895075668,kg/m^2
106,CDISCPILOT01,01-701-1097,1097,701,USA,2014-01-01,2014-07-09,2014-01-01,2014-07-09,2014-07-09T09:39,,,,,,,,,,,,25,NA,2013-12-23,-9,68,YEARS,>64,M,WHITE,White,NOT HISPANIC OR LATINO,Y,Xanomeline Low Dose,Xan_Lo,Xanomeline Low Dose,Xan_Lo,Xanomeline Low Dose,Xanomeline Low Dose,2014-01-01,2014-01-01T00:00:00Z,H,2014-07-09,2014-07-09T23:59:59Z,H,COMPLETED,2014-07-09,,2014-01-01,2014-07-09,190,,,,,54,54,mg,2014-01-03,00:00:00,2014-01-03T00:00:00Z,3,,,,,,,,Day 3,3,Pre-dose,-0.5,Day 3,Pharmacokinetic concentration of Xanomeline,XAN,1,PLASMA,,ug/ml,<BLQ,0.005,Day 3 Baseline,,COPY,,Y,,PC,SEQ,14,48,XAN,XANOMELINE,<BLQ,ug/ml,<BLQ,,ug/ml,Imaginary Labs,PLASMA,0.01,BASELINE,3,1,2014-01-03T00:00:00,3,48h Post-dose,48,2014-01-01T00:00:00Z,48,0,2014-01-03T00:00:00Z,2014-01-01,00:00:00,2014-01-03,00:00:00,0,HOURS,HOURS,0.01,0,168.91,cm,78.02,kg,27.34608895075668,kg/m^2
107,CDISCPILOT01,01-701-1097,1097,701,USA,2014-01-01,2014-07-09,2014-01-01,2014-07-09,2014-07-09T09:39,,,,,,,,,,,,26,NA,2013-12-23,-9,68,YEARS,>64,M,WHITE,White,NOT HISPANIC OR LATINO,Y,Xanomeline Low Dose,Xan_Lo,Xanomeline Low Dose,Xan_Lo,Xanomeline Low Dose,Xanomeline Low Dose,2014-01-01,2014-01-01T00:00:00Z,H,2014-07-09,2014-07-09T23:59:59Z,H,COMPLETED,2014-07-09,,2014-01-01,2014-07-09,190,,,,,54,54,mg,2014-01-03,00:00:00,2014-01-03T00:00:00Z,3,,,,,,,,Day 3,3,Pre-dose,-0.5,Day 3,Pharmacokinetic concentration of Xanomeline,XAN,1,PLASMA,0.005,ug/ml,<BLQ,0.005,Day 3 Baseline,0,COPY/HALFLLOQ,Y,Y,,PC,SEQ,14,48,XAN,XANOMELINE,<BLQ,ug/ml,<BLQ,,ug/ml,Imaginary Labs,PLASMA,0.01,BASELINE,3,1,2014-01-03T00:00:00,3,48h Post-dose,48,2014-01-01T00:00:00Z,48,0,2014-01-03T00:00:00Z,2014-01-01,00:00:00,2014-01-03,00:00:00,0,HOURS,HOURS,0.01,0,168.91,cm,78.02,kg,27.34608895075668,kg/m^2
108,CDISCPILOT01,01-701-1097,1097,701,USA,2014-01-01,2014-07-09,2014-01-01,2014-07-09,2014-07-09T09:39,,,,,,,,,,,,27,NA,2013-12-23,-9,68,YEARS,>64,M,WHITE,White,NOT HISPANIC OR LATINO,Y,Xanomeline Low Dose,Xan_Lo,Xanomeline Low Dose,Xan_Lo,Xanomeline Low Dose,Xanomeline Low Dose,2014-01-01,2014-01-01T00:00:00Z,H,2014-07-09,2014-07-09T23:59:59Z,H,COMPLETED,2014-07-09,,2014-01-01,2014-07-09,190,,,,,54,54,mg,2014-01-03,00:00:00,2014-01-03T00:00:00Z,3,,2014-01-03,00:00:00,2014-01-03T00:00:00Z,2014-01-03,00:00:00,2014-01-03T00:00:00Z,Day 3,3,Dose,0,Day 3,Xanomeline Patch Dose,DOSE,2,,54,mg,,,Day 3 Baseline,,,,Y,Y,EX,SEQ,1,48,,,,,,,,,,,BASELINE,3,1,,,,,2014-01-01T00:00:00Z,48,0,2014-01-03T00:00:00Z,2014-01-01,00:00:00,2014-01-03,00:00:00,0,,,,0,168.91,cm,78.02,kg,27.34608895075668,kg/m^2
109,CDISCPILOT01,01-701-1111,1111,701,USA,2012-09-07,2012-09-17,2012-09-07,2012-09-16,2013-02-22,,2013-02-22,,,,,,,,,,1,NA,2012-08-25,-13,81,YEARS,>64,F,WHITE,White,NOT HISPANIC OR LATINO,Y,Xanomeline Low Dose,Xan_Lo,Xanomeline Low Dose,Xan_Lo,Xanomeline Low Dose,Xanomeline Low Dose,2012-09-07,2012-09-07T00:00:00Z,H,2012-09-16,2012-09-16T23:59:59Z,H,DISCONTINUED,2012-09-17,,2012-09-07,2012-09-17,10,,,,,54,54,mg,2012-09-06,23:30:00,2012-09-06T23:30:00Z,-1,,,,,,,,Day 1,1,Pre-dose,-0.5,Day 1,Pharmacokinetic concentration of Xanomeline,XAN,1,PLASMA,0,ug/ml,<BLQ,0,Day 1 Baseline,0,,Y,Y,Y,PC,SEQ,1,0,XAN,XANOMELINE,<BLQ,ug/ml,<BLQ,0,ug/ml,Imaginary Labs,PLASMA,0.01,BASELINE,3,1,2012-09-06T23:30:00,-1,Pre-dose,-0.5,2012-09-07T00:00:00Z,-0.5,-0.5,2012-09-07T00:00:00Z,2012-09-07,00:00:00,2012-09-07,00:00:00,0,HOURS,,0.01,0,158.24,cm,59.88,kg,23.91383581376946,kg/m^2
110,CDISCPILOT01,01-701-1111,1111,701,USA,2012-09-07,2012-09-17,2012-09-07,2012-09-16,2013-02-22,,2013-02-22,,,,,,,,,,2,NA,2012-08-25,-13,81,YEARS,>64,F,WHITE,White,NOT HISPANIC OR LATINO,Y,Xanomeline Low Dose,Xan_Lo,Xanomeline Low Dose,Xan_Lo,Xanomeline Low Dose,Xanomeline Low Dose,2012-09-07,2012-09-07T00:00:00Z,H,2012-09-16,2012-09-16T23:59:59Z,H,DISCONTINUED,2012-09-17,,2012-09-07,2012-09-17,10,,,,,54,54,mg,2012-09-07,00:00:00,2012-09-07T00:00:00Z,1,,2012-09-07,00:00:00,2012-09-07T00:00:00Z,2012-09-07,00:00:00,2012-09-07T00:00:00Z,Day 1,1,Dose,0,Day 1,Xanomeline Patch Dose,DOSE,2,,54,mg,,,Day 1 Baseline,,,,Y,Y,EX,SEQ,1,0,,,,,,,,,,,BASELINE,3,1,,,,,2012-09-07T00:00:00Z,0,0,2012-09-07T00:00:00Z,2012-09-07,00:00:00,2012-09-07,00:00:00,0,,,,0,158.24,cm,59.88,kg,23.91383581376946,kg/m^2
111,CDISCPILOT01,01-701-1111,1111,701,USA,2012-09-07,2012-09-17,2012-09-07,2012-09-16,2013-02-22,,2013-02-22,,,,,,,,,,3,NA,2012-08-25,-13,81,YEARS,>64,F,WHITE,White,NOT HISPANIC OR LATINO,Y,Xanomeline Low Dose,Xan_Lo,Xanomeline Low Dose,Xan_Lo,Xanomeline Low Dose,Xanomeline Low Dose,2012-09-07,2012-09-07T00:00:00Z,H,2012-09-16,2012-09-16T23:59:59Z,H,DISCONTINUED,2012-09-17,,2012-09-07,2012-09-17,10,,,,,54,54,mg,2012-09-07,00:05:00,2012-09-07T00:05:00Z,1,,,,,,,,Day 1,1,5 Min Post-dose,0.08,Day 1,Pharmacokinetic concentration of Xanomeline,XAN,1,PLASMA,0.09098516703597516,ug/ml,0.091,0,Day 1 Baseline,0.09098516703597516,,,Y,Y,PC,SEQ,2,0.08333333333333333,XAN,XANOMELINE,0.0909851670359752,ug/ml,0.0909851670359752,0.09098516703597516,ug/ml,Imaginary Labs,PLASMA,0.01,BASELINE,3,1,2012-09-07T00:05:00,1,5 Min Post-dose,0.08,2012-09-07T00:00:00Z,0.08333333333333333,0.08333333333333333,2012-09-07T00:00:00Z,2012-09-07,00:00:00,2012-09-07,00:00:00,0.08333333333333333,HOURS,HOURS,0.01,0.08333333333333333,158.24,cm,59.88,kg,23.91383581376946,kg/m^2
112,CDISCPILOT01,01-701-1111,1111,701,USA,2012-09-07,2012-09-17,2012-09-07,2012-09-16,2013-02-22,,2013-02-22,,,,,,,,,,4,NA,2012-08-25,-13,81,YEARS,>64,F,WHITE,White,NOT HISPANIC OR LATINO,Y,Xanomeline Low Dose,Xan_Lo,Xanomeline Low Dose,Xan_Lo,Xanomeline Low Dose,Xanomeline Low Dose,2012-09-07,2012-09-07T00:00:00Z,H,2012-09-16,2012-09-16T23:59:59Z,H,DISCONTINUED,2012-09-17,,2012-09-07,2012-09-17,10,,,,,54,54,mg,2012-09-07,00:30:00,2012-09-07T00:30:00Z,1,,,,,,,,Day 1,1,30 Min Post-dose,0.5,Day 1,Pharmacokinetic concentration of Xanomeline,XAN,1,PLASMA,0.49744367805597567,ug/ml,0.497,0,Day 1 Baseline,0.49744367805597567,,,Y,Y,PC,SEQ,3,0.5,XAN,XANOMELINE,0.497443678055976,ug/ml,0.497443678055976,0.49744367805597567,ug/ml,Imaginary Labs,PLASMA,0.01,BASELINE,3,1,2012-09-07T00:30:00,1,30 Min Post-dose,0.5,2012-09-07T00:00:00Z,0.5,0.5,2012-09-07T00:00:00Z,2012-09-07,00:00:00,2012-09-07,00:00:00,0.5,HOURS,HOURS,0.01,0.5,158.24,cm,59.88,kg,23.91383581376946,kg/m^2
113,CDISCPILOT01,01-701-1111,1111,701,USA,2012-09-07,2012-09-17,2012-09-07,2012-09-16,2013-02-22,,2013-02-22,,,,,,,,,,5,NA,2012-08-25,-13,81,YEARS,>64,F,WHITE,White,NOT HISPANIC OR LATINO,Y,Xanomeline Low Dose,Xan_Lo,Xanomeline Low Dose,Xan_Lo,Xanomeline Low Dose,Xanomeline Low Dose,2012-09-07,2012-09-07T00:00:00Z,H,2012-09-16,2012-09-16T23:59:59Z,H,DISCONTINUED,2012-09-17,,2012-09-07,2012-09-17,10,,,,,54,54,mg,2012-09-07,01:00:00,2012-09-07T01:00:00Z,1,,,,,,,,Day 1,1,1h Post-dose,1,Day 1,Pharmacokinetic concentration of Xanomeline,XAN,1,PLASMA,0.8554199561128405,ug/ml,0.855,0,Day 1 Baseline,0.8554199561128405,,,Y,Y,PC,SEQ,4,1,XAN,XANOMELINE,0.85541995611284,ug/ml,0.85541995611284,0.8554199561128405,ug/ml,Imaginary Labs,PLASMA,0.01,BASELINE,3,1,2012-09-07T01:00:00,1,1h Post-dose,1,2012-09-07T00:00:00Z,1,1,2012-09-07T00:00:00Z,2012-09-07,00:00:00,2012-09-07,00:00:00,1,HOURS,HOURS,0.01,1,158.24,cm,59.88,kg,23.91383581376946,kg/m^2
114,CDISCPILOT01,01-701-1111,1111,701,USA,2012-09-07,2012-09-17,2012-09-07,2012-09-16,2013-02-22,,2013-02-22,,,,,,,,,,6,NA,2012-08-25,-13,81,YEARS,>64,F,WHITE,White,NOT HISPANIC OR LATINO,Y,Xanomeline Low Dose,Xan_Lo,Xanomeline Low Dose,Xan_Lo,Xanomeline Low Dose,Xanomeline Low Dose,2012-09-07,2012-09-07T00:00:00Z,H,2012-09-16,2012-09-16T23:59:59Z,H,DISCONTINUED,2012-09-17,,2012-09-07,2012-09-17,10,,,,,54,54,mg,2012-09-07,01:30:00,2012-09-07T01:30:00Z,1,,,,,,,,Day 1,1,1.5h Post-dose,1.5,Day 1,Pharmacokinetic concentration of Xanomeline,XAN,1,PLASMA,1.113031061257945,ug/ml,1.11,0,Day 1 Baseline,1.113031061257945,,,Y,Y,PC,SEQ,5,1.5,XAN,XANOMELINE,1.11303106125795,ug/ml,1.11303106125795,1.113031061257945,ug/ml,Imaginary Labs,PLASMA,0.01,BASELINE,3,1,2012-09-07T01:30:00,1,1.5h Post-dose,1.5,2012-09-07T00:00:00Z,1.5,1.5,2012-09-07T00:00:00Z,2012-09-07,00:00:00,2012-09-07,00:00:00,1.5,HOURS,HOURS,0.01,1.5,158.24,cm,59.88,kg,23.91383581376946,kg/m^2
115,CDISCPILOT01,01-701-1111,1111,701,USA,2012-09-07,2012-09-17,2012-09-07,2012-09-16,2013-02-22,,2013-02-22,,,,,,,,,,7,NA,2012-08-25,-13,81,YEARS,>64,F,WHITE,White,NOT HISPANIC OR LATINO,Y,Xanomeline Low Dose,Xan_Lo,Xanomeline Low Dose,Xan_Lo,Xanomeline Low Dose,Xanomeline Low Dose,2012-09-07,2012-09-07T00:00:00Z,H,2012-09-16,2012-09-16T23:59:59Z,H,DISCONTINUED,2012-09-17,,2012-09-07,2012-09-17,10,,,,,54,54,mg,2012-09-07,02:00:00,2012-09-07T02:00:00Z,1,,,,,,,,Day 1,1,2h Post-dose,2,Day 1,Pharmacokinetic concentration of Xanomeline,XAN,1,PLASMA,1.298416198659537,ug/ml,1.3,0,Day 1 Baseline,1.298416198659537,,,Y,Y,PC,SEQ,6,2,XAN,XANOMELINE,1.29841619865954,ug/ml,1.29841619865954,1.298416198659537,ug/ml,Imaginary Labs,PLASMA,0.01,BASELINE,3,1,2012-09-07T02:00:00,1,2h Post-dose,2,2012-09-07T00:00:00Z,2,2,2012-09-07T00:00:00Z,2012-09-07,00:00:00,2012-09-07,00:00:00,2,HOURS,HOURS,0.01,2,158.24,cm,59.88,kg,23.91383581376946,kg/m^2
116,CDISCPILOT01,01-701-1111,1111,701,USA,2012-09-07,2012-09-17,2012-09-07,2012-09-16,2013-02-22,,2013-02-22,,,,,,,,,,8,NA,2012-08-25,-13,81,YEARS,>64,F,WHITE,White,NOT HISPANIC OR LATINO,Y,Xanomeline Low Dose,Xan_Lo,Xanomeline Low Dose,Xan_Lo,Xanomeline Low Dose,Xanomeline Low Dose,2012-09-07,2012-09-07T00:00:00Z,H,2012-09-16,2012-09-16T23:59:59Z,H,DISCONTINUED,2012-09-17,,2012-09-07,2012-09-17,10,,,,,54,54,mg,2012-09-07,04:00:00,2012-09-07T04:00:00Z,1,,,,,,,,Day 1,1,4h Post-dose,4,Day 1,Pharmacokinetic concentration of Xanomeline,XAN,1,PLASMA,1.6466374363103622,ug/ml,1.65,0,Day 1 Baseline,1.6466374363103622,,,Y,Y,PC,SEQ,7,4,XAN,XANOMELINE,1.64663743631036,ug/ml,1.64663743631036,1.6466374363103622,ug/ml,Imaginary Labs,PLASMA,0.01,BASELINE,3,1,2012-09-07T04:00:00,1,4h Post-dose,4,2012-09-07T00:00:00Z,4,4,2012-09-07T00:00:00Z,2012-09-07,00:00:00,2012-09-07,00:00:00,4,HOURS,HOURS,0.01,4,158.24,cm,59.88,kg,23.91383581376946,kg/m^2
117,CDISCPILOT01,01-701-1111,1111,701,USA,2012-09-07,2012-09-17,2012-09-07,2012-09-16,2013-02-22,,2013-02-22,,,,,,,,,,9,NA,2012-08-25,-13,81,YEARS,>64,F,WHITE,White,NOT HISPANIC OR LATINO,Y,Xanomeline Low Dose,Xan_Lo,Xanomeline Low Dose,Xan_Lo,Xanomeline Low Dose,Xanomeline Low Dose,2012-09-07,2012-09-07T00:00:00Z,H,2012-09-16,2012-09-16T23:59:59Z,H,DISCONTINUED,2012-09-17,,2012-09-07,2012-09-17,10,,,,,54,54,mg,2012-09-07,06:00:00,2012-09-07T06:00:00Z,1,,,,,,,,Day 1,1,0-6h Post-dose,3,Day 1,Pharmacokinetic concentration of Xanomeline,XAN,1,URINE,28.8770020045234,ug/ml,28.9,,Day 1 Baseline,,,,Y,Y,PC,SEQ,15,3,XAN,XANOMELINE,28.8770020045234,ug/ml,28.8770020045234,28.8770020045234,ug/ml,Imaginary Labs,URINE,0.01,BASELINE,3,1,2012-09-07T06:00:00,1,0-6h Post-dose,3,2012-09-07T00:00:00Z,6,6,2012-09-07T00:00:00Z,2012-09-07,00:00:00,2012-09-07,00:00:00,3,HOURS,HOURS,0.01,6,158.24,cm,59.88,kg,23.91383581376946,kg/m^2
118,CDISCPILOT01,01-701-1111,1111,701,USA,2012-09-07,2012-09-17,2012-09-07,2012-09-16,2013-02-22,,2013-02-22,,,,,,,,,,10,NA,2012-08-25,-13,81,YEARS,>64,F,WHITE,White,NOT HISPANIC OR LATINO,Y,Xanomeline Low Dose,Xan_Lo,Xanomeline Low Dose,Xan_Lo,Xanomeline Low Dose,Xanomeline Low Dose,2012-09-07,2012-09-07T00:00:00Z,H,2012-09-16,2012-09-16T23:59:59Z,H,DISCONTINUED,2012-09-17,,2012-09-07,2012-09-17,10,,,,,54,54,mg,2012-09-07,06:00:00,2012-09-07T06:00:00Z,1,,,,,,,,Day 1,1,6h Post-dose,6,Day 1,Pharmacokinetic concentration of Xanomeline,XAN,1,PLASMA,1.7400266211312674,ug/ml,1.74,0,Day 1 Baseline,1.7400266211312674,,,Y,Y,PC,SEQ,8,6,XAN,XANOMELINE,1.74002662113127,ug/ml,1.74002662113127,1.7400266211312674,ug/ml,Imaginary Labs,PLASMA,0.01,BASELINE,3,1,2012-09-07T06:00:00,1,6h Post-dose,6,2012-09-07T00:00:00Z,6,6,2012-09-07T00:00:00Z,2012-09-07,00:00:00,2012-09-07,00:00:00,6,HOURS,HOURS,0.01,6,158.24,cm,59.88,kg,23.91383581376946,kg/m^2
119,CDISCPILOT01,01-701-1111,1111,701,USA,2012-09-07,2012-09-17,2012-09-07,2012-09-16,2013-02-22,,2013-02-22,,,,,,,,,,11,NA,2012-08-25,-13,81,YEARS,>64,F,WHITE,White,NOT HISPANIC OR LATINO,Y,Xanomeline Low Dose,Xan_Lo,Xanomeline Low Dose,Xan_Lo,Xanomeline Low Dose,Xanomeline Low Dose,2012-09-07,2012-09-07T00:00:00Z,H,2012-09-16,2012-09-16T23:59:59Z,H,DISCONTINUED,2012-09-17,,2012-09-07,2012-09-17,10,,,,,54,54,mg,2012-09-07,08:00:00,2012-09-07T08:00:00Z,1,,,,,,,,Day 1,1,8h Post-dose,8,Day 1,Pharmacokinetic concentration of Xanomeline,XAN,1,PLASMA,1.7650725944910504,ug/ml,1.77,0,Day 1 Baseline,1.7650725944910504,,,Y,Y,PC,SEQ,9,8,XAN,XANOMELINE,1.76507259449105,ug/ml,1.76507259449105,1.7650725944910504,ug/ml,Imaginary Labs,PLASMA,0.01,BASELINE,3,1,2012-09-07T08:00:00,1,8h Post-dose,8,2012-09-07T00:00:00Z,8,8,2012-09-07T00:00:00Z,2012-09-07,00:00:00,2012-09-07,00:00:00,8,HOURS,HOURS,0.01,8,158.24,cm,59.88,kg,23.91383581376946,kg/m^2
120,CDISCPILOT01,01-701-1111,1111,701,USA,2012-09-07,2012-09-17,2012-09-07,2012-09-16,2013-02-22,,2013-02-22,,,,,,,,,,12,NA,2012-08-25,-13,81,YEARS,>64,F,WHITE,White,NOT HISPANIC OR LATINO,Y,Xanomeline Low Dose,Xan_Lo,Xanomeline Low Dose,Xan_Lo,Xanomeline Low Dose,Xanomeline Low Dose,2012-09-07,2012-09-07T00:00:00Z,H,2012-09-16,2012-09-16T23:59:59Z,H,DISCONTINUED,2012-09-17,,2012-09-07,2012-09-17,10,,,,,54,54,mg,2012-09-07,12:00:00,2012-09-07T12:00:00Z,1,,,,,,,,Day 1,1,6-12h Post-dose,9,Day 1,Pharmacokinetic concentration of Xanomeline,XAN,1,URINE,24.928814583028306,ug/ml,24.9,,Day 1 Baseline,,,,Y,Y,PC,SEQ,16,9,XAN,XANOMELINE,24.9288145830283,ug/ml,24.9288145830283,24.928814583028306,ug/ml,Imaginary Labs,URINE,0.01,BASELINE,3,1,2012-09-07T12:00:00,1,6-12h Post-dose,9,2012-09-07T00:00:00Z,12,12,2012-09-07T00:00:00Z,2012-09-07,00:00:00,2012-09-07,00:00:00,9,HOURS,HOURS,0.01,12,158.24,cm,59.88,kg,23.91383581376946,kg/m^2
121,CDISCPILOT01,01-701-1111,1111,701,USA,2012-09-07,2012-09-17,2012-09-07,2012-09-16,2013-02-22,,2013-02-22,,,,,,,,,,13,NA,2012-08-25,-13,81,YEARS,>64,F,WHITE,White,NOT HISPANIC OR LATINO,Y,Xanomeline Low Dose,Xan_Lo,Xanomeline Low Dose,Xan_Lo,Xanomeline Low Dose,Xanomeline Low Dose,2012-09-07,2012-09-07T00:00:00Z,H,2012-09-16,2012-09-16T23:59:59Z,H,DISCONTINUED,2012-09-17,,2012-09-07,2012-09-17,10,,,,,54,54,mg,2012-09-07,12:00:00,2012-09-07T12:00:00Z,1,,,,,,,,Day 1,1,12h Post-dose,12,Day 1,Pharmacokinetic concentration of Xanomeline,XAN,1,PLASMA,0.5657896698800575,ug/ml,0.566,0,Day 1 Baseline,0.5657896698800575,,,Y,Y,PC,SEQ,10,12,XAN,XANOMELINE,0.565789669880058,ug/ml,0.565789669880058,0.5657896698800575,ug/ml,Imaginary Labs,PLASMA,0.01,BASELINE,3,1,2012-09-07T12:00:00,1,12h Post-dose,12,2012-09-07T00:00:00Z,12,12,2012-09-07T00:00:00Z,2012-09-07,00:00:00,2012-09-07,00:00:00,12,HOURS,HOURS,0.01,12,158.24,cm,59.88,kg,23.91383581376946,kg/m^2
122,CDISCPILOT01,01-701-1111,1111,701,USA,2012-09-07,2012-09-17,2012-09-07,2012-09-16,2013-02-22,,2013-02-22,,,,,,,,,,14,NA,2012-08-25,-13,81,YEARS,>64,F,WHITE,White,NOT HISPANIC OR LATINO,Y,Xanomeline Low Dose,Xan_Lo,Xanomeline Low Dose,Xan_Lo,Xanomeline Low Dose,Xanomeline Low Dose,2012-09-07,2012-09-07T00:00:00Z,H,2012-09-16,2012-09-16T23:59:59Z,H,DISCONTINUED,2012-09-17,,2012-09-07,2012-09-17,10,,,,,54,54,mg,2012-09-07,16:00:00,2012-09-07T16:00:00Z,1,,,,,,,,Day 1,1,16h Post-dose,16,Day 1,Pharmacokinetic concentration of Xanomeline,XAN,1,PLASMA,0.18042424673333615,ug/ml,0.18,0,Day 1 Baseline,0.18042424673333615,,,Y,Y,PC,SEQ,11,16,XAN,XANOMELINE,0.180424246733336,ug/ml,0.180424246733336,0.18042424673333615,ug/ml,Imaginary Labs,PLASMA,0.01,BASELINE,3,1,2012-09-07T16:00:00,1,16h Post-dose,16,2012-09-07T00:00:00Z,16,16,2012-09-07T00:00:00Z,2012-09-07,00:00:00,2012-09-07,00:00:00,16,HOURS,HOURS,0.01,16,158.24,cm,59.88,kg,23.91383581376946,kg/m^2
123,CDISCPILOT01,01-701-1111,1111,701,USA,2012-09-07,2012-09-17,2012-09-07,2012-09-16,2013-02-22,,2013-02-22,,,,,,,,,,15,NA,2012-08-25,-13,81,YEARS,>64,F,WHITE,White,NOT HISPANIC OR LATINO,Y,Xanomeline Low Dose,Xan_Lo,Xanomeline Low Dose,Xan_Lo,Xanomeline Low Dose,Xanomeline Low Dose,2012-09-07,2012-09-07T00:00:00Z,H,2012-09-16,2012-09-16T23:59:59Z,H,DISCONTINUED,2012-09-17,,2012-09-07,2012-09-17,10,,,,,54,54,mg,2012-09-08,00:00:00,2012-09-08T00:00:00Z,2,,,,,,,,Day 1,1,12-24h Post-dose,18,Day 1,Pharmacokinetic concentration of Xanomeline,XAN,1,URINE,17.032439740038118,ug/ml,17,,Day 1 Baseline,,,,Y,Y,PC,SEQ,17,18,XAN,XANOMELINE,17.0324397400381,ug/ml,17.0324397400381,17.032439740038118,ug/ml,Imaginary Labs,URINE,0.01,BASELINE,3,1,2012-09-08T00:00:00,2,12-24h Post-dose,18,2012-09-07T00:00:00Z,24,24,2012-09-07T00:00:00Z,2012-09-07,00:00:00,2012-09-07,00:00:00,18,HOURS,HOURS,0.01,24,158.24,cm,59.88,kg,23.91383581376946,kg/m^2
124,CDISCPILOT01,01-701-1111,1111,701,USA,2012-09-07,2012-09-17,2012-09-07,2012-09-16,2013-02-22,,2013-02-22,,,,,,,,,,16,NA,2012-08-25,-13,81,YEARS,>64,F,WHITE,White,NOT HISPANIC OR LATINO,Y,Xanomeline Low Dose,Xan_Lo,Xanomeline Low Dose,Xan_Lo,Xanomeline Low Dose,Xanomeline Low Dose,2012-09-07,2012-09-07T00:00:00Z,H,2012-09-16,2012-09-16T23:59:59Z,H,DISCONTINUED,2012-09-17,,2012-09-07,2012-09-17,10,,,,,54,54,mg,2012-09-08,00:00:00,2012-09-08T00:00:00Z,2,,,,,,,,Day 2,2,24h Post-dose,24,Day 1,Pharmacokinetic concentration of Xanomeline,XAN,1,PLASMA,0.018347406138684474,ug/ml,0.0183,0,Day 1 Baseline,0.018347406138684474,,,Y,Y,PC,SEQ,12,24,XAN,XANOMELINE,0.0183474061386845,ug/ml,0.0183474061386845,0.018347406138684474,ug/ml,Imaginary Labs,PLASMA,0.01,BASELINE,3,1,2012-09-08T00:00:00,2,24h Post-dose,24,2012-09-07T00:00:00Z,24,24,2012-09-07T00:00:00Z,2012-09-07,00:00:00,2012-09-07,00:00:00,24,HOURS,HOURS,0.01,24,158.24,cm,59.88,kg,23.91383581376946,kg/m^2
125,CDISCPILOT01,01-701-1111,1111,701,USA,2012-09-07,2012-09-17,2012-09-07,2012-09-16,2013-02-22,,2013-02-22,,,,,,,,,,17,NA,2012-08-25,-13,81,YEARS,>64,F,WHITE,White,NOT HISPANIC OR LATINO,Y,Xanomeline Low Dose,Xan_Lo,Xanomeline Low Dose,Xan_Lo,Xanomeline Low Dose,Xanomeline Low Dose,2012-09-07,2012-09-07T00:00:00Z,H,2012-09-16,2012-09-16T23:59:59Z,H,DISCONTINUED,2012-09-17,,2012-09-07,2012-09-17,10,,,,,54,54,mg,2012-09-08,00:00:00,2012-09-08T00:00:00Z,2,,,,,,,,Day 2,2,Pre-dose,-0.5,Day 2,Pharmacokinetic concentration of Xanomeline,XAN,1,PLASMA,0.018347406138684474,ug/ml,0.0183,0.018347406138684474,Day 2 Baseline,0,COPY,Y,Y,,PC,SEQ,12,24,XAN,XANOMELINE,0.0183474061386845,ug/ml,0.0183474061386845,0.018347406138684474,ug/ml,Imaginary Labs,PLASMA,0.01,BASELINE,3,1,2012-09-08T00:00:00,2,24h Post-dose,24,2012-09-07T00:00:00Z,24,0,2012-09-08T00:00:00Z,2012-09-07,00:00:00,2012-09-08,00:00:00,0,HOURS,HOURS,0.01,0,158.24,cm,59.88,kg,23.91383581376946,kg/m^2
126,CDISCPILOT01,01-701-1111,1111,701,USA,2012-09-07,2012-09-17,2012-09-07,2012-09-16,2013-02-22,,2013-02-22,,,,,,,,,,18,NA,2012-08-25,-13,81,YEARS,>64,F,WHITE,White,NOT HISPANIC OR LATINO,Y,Xanomeline Low Dose,Xan_Lo,Xanomeline Low Dose,Xan_Lo,Xanomeline Low Dose,Xanomeline Low Dose,2012-09-07,2012-09-07T00:00:00Z,H,2012-09-16,2012-09-16T23:59:59Z,H,DISCONTINUED,2012-09-17,,2012-09-07,2012-09-17,10,,,,,54,54,mg,2012-09-08,00:00:00,2012-09-08T00:00:00Z,2,,2012-09-08,00:00:00,2012-09-08T00:00:00Z,2012-09-08,00:00:00,2012-09-08T00:00:00Z,Day 2,2,Dose,0,Day 2,Xanomeline Patch Dose,DOSE,2,,54,mg,,,Day 2 Baseline,,,,Y,Y,EX,SEQ,1,24,,,,,,,,,,,BASELINE,3,1,,,,,2012-09-07T00:00:00Z,24,0,2012-09-08T00:00:00Z,2012-09-07,00:00:00,2012-09-08,00:00:00,0,,,,0,158.24,cm,59.88,kg,23.91383581376946,kg/m^2
127,CDISCPILOT01,01-701-1111,1111,701,USA,2012-09-07,2012-09-17,2012-09-07,2012-09-16,2013-02-22,,2013-02-22,,,,,,,,,,19,NA,2012-08-25,-13,81,YEARS,>64,F,WHITE,White,NOT HISPANIC OR LATINO,Y,Xanomeline Low Dose,Xan_Lo,Xanomeline Low Dose,Xan_Lo,Xanomeline Low Dose,Xanomeline Low Dose,2012-09-07,2012-09-07T00:00:00Z,H,2012-09-16,2012-09-16T23:59:59Z,H,DISCONTINUED,2012-09-17,,2012-09-07,2012-09-17,10,,,,,54,54,mg,2012-09-08,12:00:00,2012-09-08T12:00:00Z,2,,,,,,,,Day 2,2,36h Post-dose,36,Day 2,Pharmacokinetic concentration of Xanomeline,XAN,1,PLASMA,0.005,ug/ml,<BLQ,0.018347406138684474,Day 2 Baseline,-0.013347406138684473,HALFLLOQ,,Y,,PC,SEQ,13,36,XAN,XANOMELINE,<BLQ,ug/ml,<BLQ,,ug/ml,Imaginary Labs,PLASMA,0.01,BASELINE,3,1,2012-09-08T12:00:00,2,36h Post-dose,36,2012-09-07T00:00:00Z,36,12,2012-09-08T00:00:00Z,2012-09-07,00:00:00,2012-09-08,00:00:00,12,HOURS,HOURS,0.01,12,158.24,cm,59.88,kg,23.91383581376946,kg/m^2
128,CDISCPILOT01,01-701-1111,1111,701,USA,2012-09-07,2012-09-17,2012-09-07,2012-09-16,2013-02-22,,2013-02-22,,,,,,,,,,20,NA,2012-08-25,-13,81,YEARS,>64,F,WHITE,White,NOT HISPANIC OR LATINO,Y,Xanomeline Low Dose,Xan_Lo,Xanomeline Low Dose,Xan_Lo,Xanomeline Low Dose,Xanomeline Low Dose,2012-09-07,2012-09-07T00:00:00Z,H,2012-09-16,2012-09-16T23:59:59Z,H,DISCONTINUED,2012-09-17,,2012-09-07,2012-09-17,10,,,,,54,54,mg,2012-09-08,12:00:00,2012-09-08T12:00:00Z,2,,,,,,,,Day 2,2,36h Post-dose,36,Day 2,Pharmacokinetic concentration of Xanomeline,XAN,1,PLASMA,,ug/ml,<BLQ,0.018347406138684474,Day 2 Baseline,,,,Y,Y,PC,SEQ,13,36,XAN,XANOMELINE,<BLQ,ug/ml,<BLQ,,ug/ml,Imaginary Labs,PLASMA,0.01,BASELINE,3,1,2012-09-08T12:00:00,2,36h Post-dose,36,2012-09-07T00:00:00Z,36,12,2012-09-08T00:00:00Z,2012-09-07,00:00:00,2012-09-08,00:00:00,12,HOURS,HOURS,0.01,12,158.24,cm,59.88,kg,23.91383581376946,kg/m^2
129,CDISCPILOT01,01-701-1111,1111,701,USA,2012-09-07,2012-09-17,2012-09-07,2012-09-16,2013-02-22,,2013-02-22,,,,,,,,,,21,NA,2012-08-25,-13,81,YEARS,>64,F,WHITE,White,NOT HISPANIC OR LATINO,Y,Xanomeline Low Dose,Xan_Lo,Xanomeline Low Dose,Xan_Lo,Xanomeline Low Dose,Xanomeline Low Dose,2012-09-07,2012-09-07T00:00:00Z,H,2012-09-16,2012-09-16T23:59:59Z,H,DISCONTINUED,2012-09-17,,2012-09-07,2012-09-17,10,,,,,54,54,mg,2012-09-09,00:00:00,2012-09-09T00:00:00Z,3,,,,,,,,Day 2,2,24-48h Post-dose,37,Day 2,Pharmacokinetic concentration of Xanomeline,XAN,1,URINE,1.2396900540577391,ug/ml,1.24,,Day 2 Baseline,,,,Y,Y,PC,SEQ,18,36,XAN,XANOMELINE,1.23969005405774,ug/ml,1.23969005405774,1.2396900540577391,ug/ml,Imaginary Labs,URINE,0.01,BASELINE,3,1,2012-09-09T00:00:00,3,24-48h Post-dose,37,2012-09-07T00:00:00Z,48,24,2012-09-08T00:00:00Z,2012-09-07,00:00:00,2012-09-08,00:00:00,12,HOURS,HOURS,0.01,24,158.24,cm,59.88,kg,23.91383581376946,kg/m^2
130,CDISCPILOT01,01-701-1111,1111,701,USA,2012-09-07,2012-09-17,2012-09-07,2012-09-16,2013-02-22,,2013-02-22,,,,,,,,,,22,NA,2012-08-25,-13,81,YEARS,>64,F,WHITE,White,NOT HISPANIC OR LATINO,Y,Xanomeline Low Dose,Xan_Lo,Xanomeline Low Dose,Xan_Lo,Xanomeline Low Dose,Xanomeline Low Dose,2012-09-07,2012-09-07T00:00:00Z,H,2012-09-16,2012-09-16T23:59:59Z,H,DISCONTINUED,2012-09-17,,2012-09-07,2012-09-17,10,,,,,54,54,mg,2012-09-09,00:00:00,2012-09-09T00:00:00Z,3,,,,,,,,Day 3,3,48h Post-dose,48,Day 2,Pharmacokinetic concentration of Xanomeline,XAN,1,PLASMA,0.005,ug/ml,<BLQ,0.018347406138684474,Day 2 Baseline,-0.013347406138684473,HALFLLOQ,,Y,,PC,SEQ,14,48,XAN,XANOMELINE,<BLQ,ug/ml,<BLQ,,ug/ml,Imaginary Labs,PLASMA,0.01,BASELINE,3,1,2012-09-09T00:00:00,3,48h Post-dose,48,2012-09-07T00:00:00Z,48,24,2012-09-08T00:00:00Z,2012-09-07,00:00:00,2012-09-08,00:00:00,24,HOURS,HOURS,0.01,24,158.24,cm,59.88,kg,23.91383581376946,kg/m^2
131,CDISCPILOT01,01-701-1111,1111,701,USA,2012-09-07,2012-09-17,2012-09-07,2012-09-16,2013-02-22,,2013-02-22,,,,,,,,,,23,NA,2012-08-25,-13,81,YEARS,>64,F,WHITE,White,NOT HISPANIC OR LATINO,Y,Xanomeline Low Dose,Xan_Lo,Xanomeline Low Dose,Xan_Lo,Xanomeline Low Dose,Xanomeline Low Dose,2012-09-07,2012-09-07T00:00:00Z,H,2012-09-16,2012-09-16T23:59:59Z,H,DISCONTINUED,2012-09-17,,2012-09-07,2012-09-17,10,,,,,54,54,mg,2012-09-09,00:00:00,2012-09-09T00:00:00Z,3,,,,,,,,Day 3,3,48h Post-dose,48,Day 2,Pharmacokinetic concentration of Xanomeline,XAN,1,PLASMA,,ug/ml,<BLQ,0.018347406138684474,Day 2 Baseline,,,,Y,Y,PC,SEQ,14,48,XAN,XANOMELINE,<BLQ,ug/ml,<BLQ,,ug/ml,Imaginary Labs,PLASMA,0.01,BASELINE,3,1,2012-09-09T00:00:00,3,48h Post-dose,48,2012-09-07T00:00:00Z,48,24,2012-09-08T00:00:00Z,2012-09-07,00:00:00,2012-09-08,00:00:00,24,HOURS,HOURS,0.01,24,158.24,cm,59.88,kg,23.91383581376946,kg/m^2
132,CDISCPILOT01,01-701-1111,1111,701,USA,2012-09-07,2012-09-17,2012-09-07,2012-09-16,2013-02-22,,2013-02-22,,,,,,,,,,24,NA,2012-08-25,-13,81,YEARS,>64,F,WHITE,White,NOT HISPANIC OR LATINO,Y,Xanomeline Low Dose,Xan_Lo,Xanomeline Low Dose,Xan_Lo,Xanomeline Low Dose,Xanomeline Low Dose,2012-09-07,2012-09-07T00:00:00Z,H,2012-09-16,2012-09-16T23:59:59Z,H,DISCONTINUED,2012-09-17,,2012-09-07,2012-09-17,10,,,,,54,54,mg,2012-09-09,00:00:00,2012-09-09T00:00:00Z,3,,,,,,,,Day 3,3,Pre-dose,-0.5,Day 3,Pharmacokinetic concentration of Xanomeline,XAN,1,PLASMA,,ug/ml,<BLQ,0.005,Day 3 Baseline,,COPY,,Y,,PC,SEQ,14,48,XAN,XANOMELINE,<BLQ,ug/ml,<BLQ,,ug/ml,Imaginary Labs,PLASMA,0.01,BASELINE,3,1,2012-09-09T00:00:00,3,48h Post-dose,48,2012-09-07T00:00:00Z,48,0,2012-09-09T00:00:00Z,2012-09-07,00:00:00,2012-09-09,00:00:00,0,HOURS,HOURS,0.01,0,158.24,cm,59.88,kg,23.91383581376946,kg/m^2
133,CDISCPILOT01,01-701-1111,1111,701,USA,2012-09-07,2012-09-17,2012-09-07,2012-09-16,2013-02-22,,2013-02-22,,,,,,,,,,25,NA,2012-08-25,-13,81,YEARS,>64,F,WHITE,White,NOT HISPANIC OR LATINO,Y,Xanomeline Low Dose,Xan_Lo,Xanomeline Low Dose,Xan_Lo,Xanomeline Low Dose,Xanomeline Low Dose,2012-09-07,2012-09-07T00:00:00Z,H,2012-09-16,2012-09-16T23:59:59Z,H,DISCONTINUED,2012-09-17,,2012-09-07,2012-09-17,10,,,,,54,54,mg,2012-09-09,00:00:00,2012-09-09T00:00:00Z,3,,,,,,,,Day 3,3,Pre-dose,-0.5,Day 3,Pharmacokinetic concentration of Xanomeline,XAN,1,PLASMA,0.005,ug/ml,<BLQ,0.005,Day 3 Baseline,0,COPY/HALFLLOQ,Y,Y,,PC,SEQ,14,48,XAN,XANOMELINE,<BLQ,ug/ml,<BLQ,,ug/ml,Imaginary Labs,PLASMA,0.01,BASELINE,3,1,2012-09-09T00:00:00,3,48h Post-dose,48,2012-09-07T00:00:00Z,48,0,2012-09-09T00:00:00Z,2012-09-07,00:00:00,2012-09-09,00:00:00,0,HOURS,HOURS,0.01,0,158.24,cm,59.88,kg,23.91383581376946,kg/m^2
134,CDISCPILOT01,01-701-1111,1111,701,USA,2012-09-07,2012-09-17,2012-09-07,2012-09-16,2013-02-22,,2013-02-22,,,,,,,,,,26,NA,2012-08-25,-13,81,YEARS,>64,F,WHITE,White,NOT HISPANIC OR LATINO,Y,Xanomeline Low Dose,Xan_Lo,Xanomeline Low Dose,Xan_Lo,Xanomeline Low Dose,Xanomeline Low Dose,2012-09-07,2012-09-07T00:00:00Z,H,2012-09-16,2012-09-16T23:59:59Z,H,DISCONTINUED,2012-09-17,,2012-09-07,2012-09-17,10,,,,,54,54,mg,2012-09-09,00:00:00,2012-09-09T00:00:00Z,3,,2012-09-09,00:00:00,2012-09-09T00:00:00Z,2012-09-09,00:00:00,2012-09-09T00:00:00Z,Day 3,3,Dose,0,Day 3,Xanomeline Patch Dose,DOSE,2,,54,mg,,,Day 3 Baseline,,,,Y,Y,EX,SEQ,1,48,,,,,,,,,,,BASELINE,3,1,,,,,2012-09-07T00:00:00Z,48,0,2012-09-09T00:00:00Z,2012-09-07,00:00:00,2012-09-09,00:00:00,0,,,,0,158.24,cm,59.88,kg,23.91383581376946,kg/m^2
135,CDISCPILOT01,01-701-1115,1115,701,USA,2012-11-30,2013-01-23,2012-11-30,2013-01-23,2013-05-20,,2013-05-20,,,,,,,,,,1,NA,2012-11-23,-7,84,YEARS,>64,M,WHITE,White,NOT HISPANIC OR LATINO,Y,Xanomeline Low Dose,Xan_Lo,Xanomeline Low Dose,Xan_Lo,Xanomeline Low Dose,Xanomeline Low Dose,2012-11-30,2012-11-30T00:00:00Z,H,2013-01-23,2013-01-23T23:59:59Z,H,DISCONTINUED,2013-01-23,,2012-11-30,2013-01-23,55,,,,,54,54,mg,2012-11-29,23:30:00,2012-11-29T23:30:00Z,-1,,,,,,,,Day 1,1,Pre-dose,-0.5,Day 1,Pharmacokinetic concentration of Xanomeline,XAN,1,PLASMA,0,ug/ml,<BLQ,0,Day 1 Baseline,0,,Y,Y,Y,PC,SEQ,1,0,XAN,XANOMELINE,<BLQ,ug/ml,<BLQ,0,ug/ml,Imaginary Labs,PLASMA,0.01,BASELINE,3,1,2012-11-29T23:30:00,-1,Pre-dose,-0.5,2012-11-30T00:00:00Z,-0.5,-0.5,2012-11-30T00:00:00Z,2012-11-30,00:00:00,2012-11-30,00:00:00,0,HOURS,,0.01,0,181.61,cm,78.93,kg,23.93109583519768,kg/m^2
136,CDISCPILOT01,01-701-1115,1115,701,USA,2012-11-30,2013-01-23,2012-11-30,2013-01-23,2013-05-20,,2013-05-20,,,,,,,,,,2,NA,2012-11-23,-7,84,YEARS,>64,M,WHITE,White,NOT HISPANIC OR LATINO,Y,Xanomeline Low Dose,Xan_Lo,Xanomeline Low Dose,Xan_Lo,Xanomeline Low Dose,Xanomeline Low Dose,2012-11-30,2012-11-30T00:00:00Z,H,2013-01-23,2013-01-23T23:59:59Z,H,DISCONTINUED,2013-01-23,,2012-11-30,2013-01-23,55,,,,,54,54,mg,2012-11-30,00:00:00,2012-11-30T00:00:00Z,1,,2012-11-30,00:00:00,2012-11-30T00:00:00Z,2012-11-30,00:00:00,2012-11-30T00:00:00Z,Day 1,1,Dose,0,Day 1,Xanomeline Patch Dose,DOSE,2,,54,mg,,,Day 1 Baseline,,,,Y,Y,EX,SEQ,1,0,,,,,,,,,,,BASELINE,3,1,,,,,2012-11-30T00:00:00Z,0,0,2012-11-30T00:00:00Z,2012-11-30,00:00:00,2012-11-30,00:00:00,0,,,,0,181.61,cm,78.93,kg,23.93109583519768,kg/m^2
137,CDISCPILOT01,01-701-1115,1115,701,USA,2012-11-30,2013-01-23,2012-11-30,2013-01-23,2013-05-20,,2013-05-20,,,,,,,,,,3,NA,2012-11-23,-7,84,YEARS,>64,M,WHITE,White,NOT HISPANIC OR LATINO,Y,Xanomeline Low Dose,Xan_Lo,Xanomeline Low Dose,Xan_Lo,Xanomeline Low Dose,Xanomeline Low Dose,2012-11-30,2012-11-30T00:00:00Z,H,2013-01-23,2013-01-23T23:59:59Z,H,DISCONTINUED,2013-01-23,,2012-11-30,2013-01-23,55,,,,,54,54,mg,2012-11-30,00:05:00,2012-11-30T00:05:00Z,1,,,,,,,,Day 1,1,5 Min Post-dose,0.08,Day 1,Pharmacokinetic concentration of Xanomeline,XAN,1,PLASMA,0.09884256810258212,ug/ml,0.0988,0,Day 1 Baseline,0.09884256810258212,,,Y,Y,PC,SEQ,2,0.08333333333333333,XAN,XANOMELINE,0.0988425681025821,ug/ml,0.0988425681025821,0.09884256810258212,ug/ml,Imaginary Labs,PLASMA,0.01,BASELINE,3,1,2012-11-30T00:05:00,1,5 Min Post-dose,0.08,2012-11-30T00:00:00Z,0.08333333333333333,0.08333333333333333,2012-11-30T00:00:00Z,2012-11-30,00:00:00,2012-11-30,00:00:00,0.08333333333333333,HOURS,HOURS,0.01,0.08333333333333333,181.61,cm,78.93,kg,23.93109583519768,kg/m^2
138,CDISCPILOT01,01-701-1115,1115,701,USA,2012-11-30,2013-01-23,2012-11-30,2013-01-23,2013-05-20,,2013-05-20,,,,,,,,,,4,NA,2012-11-23,-7,84,YEARS,>64,M,WHITE,White,NOT HISPANIC OR LATINO,Y,Xanomeline Low Dose,Xan_Lo,Xanomeline Low Dose,Xan_Lo,Xanomeline Low Dose,Xanomeline Low Dose,2012-11-30,2012-11-30T00:00:00Z,H,2013-01-23,2013-01-23T23:59:59Z,H,DISCONTINUED,2013-01-23,,2012-11-30,2013-01-23,55,,,,,54,54,mg,2012-11-30,00:30:00,2012-11-30T00:30:00Z,1,,,,,,,,Day 1,1,30 Min Post-dose,0.5,Day 1,Pharmacokinetic concentration of Xanomeline,XAN,1,PLASMA,0.5366592601848771,ug/ml,0.537,0,Day 1 Baseline,0.5366592601848771,,,Y,Y,PC,SEQ,3,0.5,XAN,XANOMELINE,0.536659260184877,ug/ml,0.536659260184877,0.5366592601848771,ug/ml,Imaginary Labs,PLASMA,0.01,BASELINE,3,1,2012-11-30T00:30:00,1,30 Min Post-dose,0.5,2012-11-30T00:00:00Z,0.5,0.5,2012-11-30T00:00:00Z,2012-11-30,00:00:00,2012-11-30,00:00:00,0.5,HOURS,HOURS,0.01,0.5,181.61,cm,78.93,kg,23.93109583519768,kg/m^2
139,CDISCPILOT01,01-701-1115,1115,701,USA,2012-11-30,2013-01-23,2012-11-30,2013-01-23,2013-05-20,,2013-05-20,,,,,,,,,,5,NA,2012-11-23,-7,84,YEARS,>64,M,WHITE,White,NOT HISPANIC OR LATINO,Y,Xanomeline Low Dose,Xan_Lo,Xanomeline Low Dose,Xan_Lo,Xanomeline Low Dose,Xanomeline Low Dose,2012-11-30,2012-11-30T00:00:00Z,H,2013-01-23,2013-01-23T23:59:59Z,H,DISCONTINUED,2013-01-23,,2012-11-30,2013-01-23,55,,,,,54,54,mg,2012-11-30,01:00:00,2012-11-30T01:00:00Z,1,,,,,,,,Day 1,1,1h Post-dose,1,Day 1,Pharmacokinetic concentration of Xanomeline,XAN,1,PLASMA,0.9160793274328698,ug/ml,0.916,0,Day 1 Baseline,0.9160793274328698,,,Y,Y,PC,SEQ,4,1,XAN,XANOMELINE,0.91607932743287,ug/ml,0.91607932743287,0.9160793274328698,ug/ml,Imaginary Labs,PLASMA,0.01,BASELINE,3,1,2012-11-30T01:00:00,1,1h Post-dose,1,2012-11-30T00:00:00Z,1,1,2012-11-30T00:00:00Z,2012-11-30,00:00:00,2012-11-30,00:00:00,1,HOURS,HOURS,0.01,1,181.61,cm,78.93,kg,23.93109583519768,kg/m^2
140,CDISCPILOT01,01-701-1115,1115,701,USA,2012-11-30,2013-01-23,2012-11-30,2013-01-23,2013-05-20,,2013-05-20,,,,,,,,,,6,NA,2012-11-23,-7,84,YEARS,>64,M,WHITE,White,NOT HISPANIC OR LATINO,Y,Xanomeline Low Dose,Xan_Lo,Xanomeline Low Dose,Xan_Lo,Xanomeline Low Dose,Xanomeline Low Dose,2012-11-30,2012-11-30T00:00:00Z,H,2013-01-23,2013-01-23T23:59:59Z,H,DISCONTINUED,2013-01-23,,2012-11-30,2013-01-23,55,,,,,54,54,mg,2012-11-30,01:30:00,2012-11-30T01:30:00Z,1,,,,,,,,Day 1,1,1.5h Post-dose,1.5,Day 1,Pharmacokinetic concentration of Xanomeline,XAN,1,PLASMA,1.1843307079846144,ug/ml,1.18,0,Day 1 Baseline,1.1843307079846144,,,Y,Y,PC,SEQ,5,1.5,XAN,XANOMELINE,1.18433070798461,ug/ml,1.18433070798461,1.1843307079846144,ug/ml,Imaginary Labs,PLASMA,0.01,BASELINE,3,1,2012-11-30T01:30:00,1,1.5h Post-dose,1.5,2012-11-30T00:00:00Z,1.5,1.5,2012-11-30T00:00:00Z,2012-11-30,00:00:00,2012-11-30,00:00:00,1.5,HOURS,HOURS,0.01,1.5,181.61,cm,78.93,kg,23.93109583519768,kg/m^2
141,CDISCPILOT01,01-701-1115,1115,701,USA,2012-11-30,2013-01-23,2012-11-30,2013-01-23,2013-05-20,,2013-05-20,,,,,,,,,,7,NA,2012-11-23,-7,84,YEARS,>64,M,WHITE,White,NOT HISPANIC OR LATINO,Y,Xanomeline Low Dose,Xan_Lo,Xanomeline Low Dose,Xan_Lo,Xanomeline Low Dose,Xanomeline Low Dose,2012-11-30,2012-11-30T00:00:00Z,H,2013-01-23,2013-01-23T23:59:59Z,H,DISCONTINUED,2013-01-23,,2012-11-30,2013-01-23,55,,,,,54,54,mg,2012-11-30,02:00:00,2012-11-30T02:00:00Z,1,,,,,,,,Day 1,1,2h Post-dose,2,Day 1,Pharmacokinetic concentration of Xanomeline,XAN,1,PLASMA,1.3739854188960539,ug/ml,1.37,0,Day 1 Baseline,1.3739854188960539,,,Y,Y,PC,SEQ,6,2,XAN,XANOMELINE,1.37398541889605,ug/ml,1.37398541889605,1.3739854188960539,ug/ml,Imaginary Labs,PLASMA,0.01,BASELINE,3,1,2012-11-30T02:00:00,1,2h Post-dose,2,2012-11-30T00:00:00Z,2,2,2012-11-30T00:00:00Z,2012-11-30,00:00:00,2012-11-30,00:00:00,2,HOURS,HOURS,0.01,2,181.61,cm,78.93,kg,23.93109583519768,kg/m^2
142,CDISCPILOT01,01-701-1115,1115,701,USA,2012-11-30,2013-01-23,2012-11-30,2013-01-23,2013-05-20,,2013-05-20,,,,,,,,,,8,NA,2012-11-23,-7,84,YEARS,>64,M,WHITE,White,NOT HISPANIC OR LATINO,Y,Xanomeline Low Dose,Xan_Lo,Xanomeline Low Dose,Xan_Lo,Xanomeline Low Dose,Xanomeline Low Dose,2012-11-30,2012-11-30T00:00:00Z,H,2013-01-23,2013-01-23T23:59:59Z,H,DISCONTINUED,2013-01-23,,2012-11-30,2013-01-23,55,,,,,54,54,mg,2012-11-30,04:00:00,2012-11-30T04:00:00Z,1,,,,,,,,Day 1,1,4h Post-dose,4,Day 1,Pharmacokinetic concentration of Xanomeline,XAN,1,PLASMA,1.7172814639273133,ug/ml,1.72,0,Day 1 Baseline,1.7172814639273133,,,Y,Y,PC,SEQ,7,4,XAN,XANOMELINE,1.71728146392731,ug/ml,1.71728146392731,1.7172814639273133,ug/ml,Imaginary Labs,PLASMA,0.01,BASELINE,3,1,2012-11-30T04:00:00,1,4h Post-dose,4,2012-11-30T00:00:00Z,4,4,2012-11-30T00:00:00Z,2012-11-30,00:00:00,2012-11-30,00:00:00,4,HOURS,HOURS,0.01,4,181.61,cm,78.93,kg,23.93109583519768,kg/m^2
143,CDISCPILOT01,01-701-1115,1115,701,USA,2012-11-30,2013-01-23,2012-11-30,2013-01-23,2013-05-20,,2013-05-20,,,,,,,,,,9,NA,2012-11-23,-7,84,YEARS,>64,M,WHITE,White,NOT HISPANIC OR LATINO,Y,Xanomeline Low Dose,Xan_Lo,Xanomeline Low Dose,Xan_Lo,Xanomeline Low Dose,Xanomeline Low Dose,2012-11-30,2012-11-30T00:00:00Z,H,2013-01-23,2013-01-23T23:59:59Z,H,DISCONTINUED,2013-01-23,,2012-11-30,2013-01-23,55,,,,,54,54,mg,2012-11-30,06:00:00,2012-11-30T06:00:00Z,1,,,,,,,,Day 1,1,0-6h Post-dose,3,Day 1,Pharmacokinetic concentration of Xanomeline,XAN,1,URINE,26.988473042832915,ug/ml,27,,Day 1 Baseline,,,,Y,Y,PC,SEQ,15,3,XAN,XANOMELINE,26.9884730428329,ug/ml,26.9884730428329,26.988473042832915,ug/ml,Imaginary Labs,URINE,0.01,BASELINE,3,1,2012-11-30T06:00:00,1,0-6h Post-dose,3,2012-11-30T00:00:00Z,6,6,2012-11-30T00:00:00Z,2012-11-30,00:00:00,2012-11-30,00:00:00,3,HOURS,HOURS,0.01,6,181.61,cm,78.93,kg,23.93109583519768,kg/m^2
144,CDISCPILOT01,01-701-1115,1115,701,USA,2012-11-30,2013-01-23,2012-11-30,2013-01-23,2013-05-20,,2013-05-20,,,,,,,,,,10,NA,2012-11-23,-7,84,YEARS,>64,M,WHITE,White,NOT HISPANIC OR LATINO,Y,Xanomeline Low Dose,Xan_Lo,Xanomeline Low Dose,Xan_Lo,Xanomeline Low Dose,Xanomeline Low Dose,2012-11-30,2012-11-30T00:00:00Z,H,2013-01-23,2013-01-23T23:59:59Z,H,DISCONTINUED,2013-01-23,,2012-11-30,2013-01-23,55,,,,,54,54,mg,2012-11-30,06:00:00,2012-11-30T06:00:00Z,1,,,,,,,,Day 1,1,6h Post-dose,6,Day 1,Pharmacokinetic concentration of Xanomeline,XAN,1,PLASMA,1.803055426964559,ug/ml,1.8,0,Day 1 Baseline,1.803055426964559,,,Y,Y,PC,SEQ,8,6,XAN,XANOMELINE,1.80305542696456,ug/ml,1.80305542696456,1.803055426964559,ug/ml,Imaginary Labs,PLASMA,0.01,BASELINE,3,1,2012-11-30T06:00:00,1,6h Post-dose,6,2012-11-30T00:00:00Z,6,6,2012-11-30T00:00:00Z,2012-11-30,00:00:00,2012-11-30,00:00:00,6,HOURS,HOURS,0.01,6,181.61,cm,78.93,kg,23.93109583519768,kg/m^2
145,CDISCPILOT01,01-701-1115,1115,701,USA,2012-11-30,2013-01-23,2012-11-30,2013-01-23,2013-05-20,,2013-05-20,,,,,,,,,,11,NA,2012-11-23,-7,84,YEARS,>64,M,WHITE,White,NOT HISPANIC OR LATINO,Y,Xanomeline Low Dose,Xan_Lo,Xanomeline Low Dose,Xan_Lo,Xanomeline Low Dose,Xanomeline Low Dose,2012-11-30,2012-11-30T00:00:00Z,H,2013-01-23,2013-01-23T23:59:59Z,H,DISCONTINUED,2013-01-23,,2012-11-30,2013-01-23,55,,,,,54,54,mg,2012-11-30,08:00:00,2012-11-30T08:00:00Z,1,,,,,,,,Day 1,1,8h Post-dose,8,Day 1,Pharmacokinetic concentration of Xanomeline,XAN,1,PLASMA,1.8244864129651253,ug/ml,1.82,0,Day 1 Baseline,1.8244864129651253,,,Y,Y,PC,SEQ,9,8,XAN,XANOMELINE,1.82448641296513,ug/ml,1.82448641296513,1.8244864129651253,ug/ml,Imaginary Labs,PLASMA,0.01,BASELINE,3,1,2012-11-30T08:00:00,1,8h Post-dose,8,2012-11-30T00:00:00Z,8,8,2012-11-30T00:00:00Z,2012-11-30,00:00:00,2012-11-30,00:00:00,8,HOURS,HOURS,0.01,8,181.61,cm,78.93,kg,23.93109583519768,kg/m^2
146,CDISCPILOT01,01-701-1115,1115,701,USA,2012-11-30,2013-01-23,2012-11-30,2013-01-23,2013-05-20,,2013-05-20,,,,,,,,,,12,NA,2012-11-23,-7,84,YEARS,>64,M,WHITE,White,NOT HISPANIC OR LATINO,Y,Xanomeline Low Dose,Xan_Lo,Xanomeline Low Dose,Xan_Lo,Xanomeline Low Dose,Xanomeline Low Dose,2012-11-30,2012-11-30T00:00:00Z,H,2013-01-23,2013-01-23T23:59:59Z,H,DISCONTINUED,2013-01-23,,2012-11-30,2013-01-23,55,,,,,54,54,mg,2012-11-30,12:00:00,2012-11-30T12:00:00Z,1,,,,,,,,Day 1,1,6-12h Post-dose,9,Day 1,Pharmacokinetic concentration of Xanomeline,XAN,1,URINE,22.827840000983556,ug/ml,22.8,,Day 1 Baseline,,,,Y,Y,PC,SEQ,16,9,XAN,XANOMELINE,22.8278400009836,ug/ml,22.8278400009836,22.827840000983556,ug/ml,Imaginary Labs,URINE,0.01,BASELINE,3,1,2012-11-30T12:00:00,1,6-12h Post-dose,9,2012-11-30T00:00:00Z,12,12,2012-11-30T00:00:00Z,2012-11-30,00:00:00,2012-11-30,00:00:00,9,HOURS,HOURS,0.01,12,181.61,cm,78.93,kg,23.93109583519768,kg/m^2
147,CDISCPILOT01,01-701-1115,1115,701,USA,2012-11-30,2013-01-23,2012-11-30,2013-01-23,2013-05-20,,2013-05-20,,,,,,,,,,13,NA,2012-11-23,-7,84,YEARS,>64,M,WHITE,White,NOT HISPANIC OR LATINO,Y,Xanomeline Low Dose,Xan_Lo,Xanomeline Low Dose,Xan_Lo,Xanomeline Low Dose,Xanomeline Low Dose,2012-11-30,2012-11-30T00:00:00Z,H,2013-01-23,2013-01-23T23:59:59Z,H,DISCONTINUED,2013-01-23,,2012-11-30,2013-01-23,55,,,,,54,54,mg,2012-11-30,12:00:00,2012-11-30T12:00:00Z,1,,,,,,,,Day 1,1,12h Post-dose,12,Day 1,Pharmacokinetic concentration of Xanomeline,XAN,1,PLASMA,0.5492473826902978,ug/ml,0.549,0,Day 1 Baseline,0.5492473826902978,,,Y,Y,PC,SEQ,10,12,XAN,XANOMELINE,0.549247382690298,ug/ml,0.549247382690298,0.5492473826902978,ug/ml,Imaginary Labs,PLASMA,0.01,BASELINE,3,1,2012-11-30T12:00:00,1,12h Post-dose,12,2012-11-30T00:00:00Z,12,12,2012-11-30T00:00:00Z,2012-11-30,00:00:00,2012-11-30,00:00:00,12,HOURS,HOURS,0.01,12,181.61,cm,78.93,kg,23.93109583519768,kg/m^2
148,CDISCPILOT01,01-701-1115,1115,701,USA,2012-11-30,2013-01-23,2012-11-30,2013-01-23,2013-05-20,,2013-05-20,,,,,,,,,,14,NA,2012-11-23,-7,84,YEARS,>64,M,WHITE,White,NOT HISPANIC OR LATINO,Y,Xanomeline Low Dose,Xan_Lo,Xanomeline Low Dose,Xan_Lo,Xanomeline Low Dose,Xanomeline Low Dose,2012-11-30,2012-11-30T00:00:00Z,H,2013-01-23,2013-01-23T23:59:59Z,H,DISCONTINUED,2013-01-23,,2012-11-30,2013-01-23,55,,,,,54,54,mg,2012-11-30,16:00:00,2012-11-30T16:00:00Z,1,,,,,,,,Day 1,1,16h Post-dose,16,Day 1,Pharmacokinetic concentration of Xanomeline,XAN,1,PLASMA,0.16470225410943776,ug/ml,0.165,0,Day 1 Baseline,0.16470225410943776,,,Y,Y,PC,SEQ,11,16,XAN,XANOMELINE,0.164702254109438,ug/ml,0.164702254109438,0.16470225410943776,ug/ml,Imaginary Labs,PLASMA,0.01,BASELINE,3,1,2012-11-30T16:00:00,1,16h Post-dose,16,2012-11-30T00:00:00Z,16,16,2012-11-30T00:00:00Z,2012-11-30,00:00:00,2012-11-30,00:00:00,16,HOURS,HOURS,0.01,16,181.61,cm,78.93,kg,23.93109583519768,kg/m^2
149,CDISCPILOT01,01-701-1115,1115,701,USA,2012-11-30,2013-01-23,2012-11-30,2013-01-23,2013-05-20,,2013-05-20,,,,,,,,,,15,NA,2012-11-23,-7,84,YEARS,>64,M,WHITE,White,NOT HISPANIC OR LATINO,Y,Xanomeline Low Dose,Xan_Lo,Xanomeline Low Dose,Xan_Lo,Xanomeline Low Dose,Xanomeline Low Dose,2012-11-30,2012-11-30T00:00:00Z,H,2013-01-23,2013-01-23T23:59:59Z,H,DISCONTINUED,2013-01-23,,2012-11-30,2013-01-23,55,,,,,54,54,mg,2012-12-01,00:00:00,2012-12-01T00:00:00Z,2,,,,,,,,Day 1,1,12-24h Post-dose,18,Day 1,Pharmacokinetic concentration of Xanomeline,XAN,1,URINE,14.506573917284836,ug/ml,14.5,,Day 1 Baseline,,,,Y,Y,PC,SEQ,17,18,XAN,XANOMELINE,14.5065739172848,ug/ml,14.5065739172848,14.506573917284836,ug/ml,Imaginary Labs,URINE,0.01,BASELINE,3,1,2012-12-01T00:00:00,2,12-24h Post-dose,18,2012-11-30T00:00:00Z,24,24,2012-11-30T00:00:00Z,2012-11-30,00:00:00,2012-11-30,00:00:00,18,HOURS,HOURS,0.01,24,181.61,cm,78.93,kg,23.93109583519768,kg/m^2
150,CDISCPILOT01,01-701-1115,1115,701,USA,2012-11-30,2013-01-23,2012-11-30,2013-01-23,2013-05-20,,2013-05-20,,,,,,,,,,16,NA,2012-11-23,-7,84,YEARS,>64,M,WHITE,White,NOT HISPANIC OR LATINO,Y,Xanomeline Low Dose,Xan_Lo,Xanomeline Low Dose,Xan_Lo,Xanomeline Low Dose,Xanomeline Low Dose,2012-11-30,2012-11-30T00:00:00Z,H,2013-01-23,2013-01-23T23:59:59Z,H,DISCONTINUED,2013-01-23,,2012-11-30,2013-01-23,55,,,,,54,54,mg,2012-12-01,00:00:00,2012-12-01T00:00:00Z,2,,,,,,,,Day 2,2,24h Post-dose,24,Day 1,Pharmacokinetic concentration of Xanomeline,XAN,1,PLASMA,0.014810258428298619,ug/ml,0.0148,0,Day 1 Baseline,0.014810258428298619,,,Y,Y,PC,SEQ,12,24,XAN,XANOMELINE,0.0148102584282986,ug/ml,0.0148102584282986,0.014810258428298619,ug/ml,Imaginary Labs,PLASMA,0.01,BASELINE,3,1,2012-12-01T00:00:00,2,24h Post-dose,24,2012-11-30T00:00:00Z,24,24,2012-11-30T00:00:00Z,2012-11-30,00:00:00,2012-11-30,00:00:00,24,HOURS,HOURS,0.01,24,181.61,cm,78.93,kg,23.93109583519768,kg/m^2
151,CDISCPILOT01,01-701-1115,1115,701,USA,2012-11-30,2013-01-23,2012-11-30,2013-01-23,2013-05-20,,2013-05-20,,,,,,,,,,17,NA,2012-11-23,-7,84,YEARS,>64,M,WHITE,White,NOT HISPANIC OR LATINO,Y,Xanomeline Low Dose,Xan_Lo,Xanomeline Low Dose,Xan_Lo,Xanomeline Low Dose,Xanomeline Low Dose,2012-11-30,2012-11-30T00:00:00Z,H,2013-01-23,2013-01-23T23:59:59Z,H,DISCONTINUED,2013-01-23,,2012-11-30,2013-01-23,55,,,,,54,54,mg,2012-12-01,00:00:00,2012-12-01T00:00:00Z,2,,,,,,,,Day 2,2,Pre-dose,-0.5,Day 2,Pharmacokinetic concentration of Xanomeline,XAN,1,PLASMA,0.014810258428298619,ug/ml,0.0148,0.014810258428298619,Day 2 Baseline,0,COPY,Y,Y,,PC,SEQ,12,24,XAN,XANOMELINE,0.0148102584282986,ug/ml,0.0148102584282986,0.014810258428298619,ug/ml,Imaginary Labs,PLASMA,0.01,BASELINE,3,1,2012-12-01T00:00:00,2,24h Post-dose,24,2012-11-30T00:00:00Z,24,0,2012-12-01T00:00:00Z,2012-11-30,00:00:00,2012-12-01,00:00:00,0,HOURS,HOURS,0.01,0,181.61,cm,78.93,kg,23.93109583519768,kg/m^2
152,CDISCPILOT01,01-701-1115,1115,701,USA,2012-11-30,2013-01-23,2012-11-30,2013-01-23,2013-05-20,,2013-05-20,,,,,,,,,,18,NA,2012-11-23,-7,84,YEARS,>64,M,WHITE,White,NOT HISPANIC OR LATINO,Y,Xanomeline Low Dose,Xan_Lo,Xanomeline Low Dose,Xan_Lo,Xanomeline Low Dose,Xanomeline Low Dose,2012-11-30,2012-11-30T00:00:00Z,H,2013-01-23,2013-01-23T23:59:59Z,H,DISCONTINUED,2013-01-23,,2012-11-30,2013-01-23,55,,,,,54,54,mg,2012-12-01,00:00:00,2012-12-01T00:00:00Z,2,,2012-12-01,00:00:00,2012-12-01T00:00:00Z,2012-12-01,00:00:00,2012-12-01T00:00:00Z,Day 2,2,Dose,0,Day 2,Xanomeline Patch Dose,DOSE,2,,54,mg,,,Day 2 Baseline,,,,Y,Y,EX,SEQ,1,24,,,,,,,,,,,BASELINE,3,1,,,,,2012-11-30T00:00:00Z,24,0,2012-12-01T00:00:00Z,2012-11-30,00:00:00,2012-12-01,00:00:00,0,,,,0,181.61,cm,78.93,kg,23.93109583519768,kg/m^2
153,CDISCPILOT01,01-701-1115,1115,701,USA,2012-11-30,2013-01-23,2012-11-30,2013-01-23,2013-05-20,,2013-05-20,,,,,,,,,,19,NA,2012-11-23,-7,84,YEARS,>64,M,WHITE,White,NOT HISPANIC OR LATINO,Y,Xanomeline Low Dose,Xan_Lo,Xanomeline Low Dose,Xan_Lo,Xanomeline Low Dose,Xanomeline Low Dose,2012-11-30,2012-11-30T00:00:00Z,H,2013-01-23,2013-01-23T23:59:59Z,H,DISCONTINUED,2013-01-23,,2012-11-30,2013-01-23,55,,,,,54,54,mg,2012-12-01,12:00:00,2012-12-01T12:00:00Z,2,,,,,,,,Day 2,2,36h Post-dose,36,Day 2,Pharmacokinetic concentration of Xanomeline,XAN,1,PLASMA,0.005,ug/ml,<BLQ,0.014810258428298619,Day 2 Baseline,-0.009810258428298618,HALFLLOQ,,Y,,PC,SEQ,13,36,XAN,XANOMELINE,<BLQ,ug/ml,<BLQ,,ug/ml,Imaginary Labs,PLASMA,0.01,BASELINE,3,1,2012-12-01T12:00:00,2,36h Post-dose,36,2012-11-30T00:00:00Z,36,12,2012-12-01T00:00:00Z,2012-11-30,00:00:00,2012-12-01,00:00:00,12,HOURS,HOURS,0.01,12,181.61,cm,78.93,kg,23.93109583519768,kg/m^2
154,CDISCPILOT01,01-701-1115,1115,701,USA,2012-11-30,2013-01-23,2012-11-30,2013-01-23,2013-05-20,,2013-05-20,,,,,,,,,,20,NA,2012-11-23,-7,84,YEARS,>64,M,WHITE,White,NOT HISPANIC OR LATINO,Y,Xanomeline Low Dose,Xan_Lo,Xanomeline Low Dose,Xan_Lo,Xanomeline Low Dose,Xanomeline Low Dose,2012-11-30,2012-11-30T00:00:00Z,H,2013-01-23,2013-01-23T23:59:59Z,H,DISCONTINUED,2013-01-23,,2012-11-30,2013-01-23,55,,,,,54,54,mg,2012-12-01,12:00:00,2012-12-01T12:00:00Z,2,,,,,,,,Day 2,2,36h Post-dose,36,Day 2,Pharmacokinetic concentration of Xanomeline,XAN,1,PLASMA,,ug/ml,<BLQ,0.014810258428298619,Day 2 Baseline,,,,Y,Y,PC,SEQ,13,36,XAN,XANOMELINE,<BLQ,ug/ml,<BLQ,,ug/ml,Imaginary Labs,PLASMA,0.01,BASELINE,3,1,2012-12-01T12:00:00,2,36h Post-dose,36,2012-11-30T00:00:00Z,36,12,2012-12-01T00:00:00Z,2012-11-30,00:00:00,2012-12-01,00:00:00,12,HOURS,HOURS,0.01,12,181.61,cm,78.93,kg,23.93109583519768,kg/m^2
155,CDISCPILOT01,01-701-1115,1115,701,USA,2012-11-30,2013-01-23,2012-11-30,2013-01-23,2013-05-20,,2013-05-20,,,,,,,,,,21,NA,2012-11-23,-7,84,YEARS,>64,M,WHITE,White,NOT HISPANIC OR LATINO,Y,Xanomeline Low Dose,Xan_Lo,Xanomeline Low Dose,Xan_Lo,Xanomeline Low Dose,Xanomeline Low Dose,2012-11-30,2012-11-30T00:00:00Z,H,2013-01-23,2013-01-23T23:59:59Z,H,DISCONTINUED,2013-01-23,,2012-11-30,2013-01-23,55,,,,,54,54,mg,2012-12-02,00:00:00,2012-12-02T00:00:00Z,3,,,,,,,,Day 2,2,24-48h Post-dose,37,Day 2,Pharmacokinetic concentration of Xanomeline,XAN,1,URINE,0.005,ug/ml,<BLQ,,Day 2 Baseline,,HALFLLOQ,,Y,,PC,SEQ,18,36,XAN,XANOMELINE,<BLQ,ug/ml,<BLQ,,ug/ml,Imaginary Labs,URINE,0.01,BASELINE,3,1,2012-12-02T00:00:00,3,24-48h Post-dose,37,2012-11-30T00:00:00Z,48,24,2012-12-01T00:00:00Z,2012-11-30,00:00:00,2012-12-01,00:00:00,12,HOURS,HOURS,0.01,24,181.61,cm,78.93,kg,23.93109583519768,kg/m^2
156,CDISCPILOT01,01-701-1115,1115,701,USA,2012-11-30,2013-01-23,2012-11-30,2013-01-23,2013-05-20,,2013-05-20,,,,,,,,,,22,NA,2012-11-23,-7,84,YEARS,>64,M,WHITE,White,NOT HISPANIC OR LATINO,Y,Xanomeline Low Dose,Xan_Lo,Xanomeline Low Dose,Xan_Lo,Xanomeline Low Dose,Xanomeline Low Dose,2012-11-30,2012-11-30T00:00:00Z,H,2013-01-23,2013-01-23T23:59:59Z,H,DISCONTINUED,2013-01-23,,2012-11-30,2013-01-23,55,,,,,54,54,mg,2012-12-02,00:00:00,2012-12-02T00:00:00Z,3,,,,,,,,Day 2,2,24-48h Post-dose,37,Day 2,Pharmacokinetic concentration of Xanomeline,XAN,1,URINE,,ug/ml,<BLQ,,Day 2 Baseline,,,,Y,Y,PC,SEQ,18,36,XAN,XANOMELINE,<BLQ,ug/ml,<BLQ,,ug/ml,Imaginary Labs,URINE,0.01,BASELINE,3,1,2012-12-02T00:00:00,3,24-48h Post-dose,37,2012-11-30T00:00:00Z,48,24,2012-12-01T00:00:00Z,2012-11-30,00:00:00,2012-12-01,00:00:00,12,HOURS,HOURS,0.01,24,181.61,cm,78.93,kg,23.93109583519768,kg/m^2
157,CDISCPILOT01,01-701-1115,1115,701,USA,2012-11-30,2013-01-23,2012-11-30,2013-01-23,2013-05-20,,2013-05-20,,,,,,,,,,23,NA,2012-11-23,-7,84,YEARS,>64,M,WHITE,White,NOT HISPANIC OR LATINO,Y,Xanomeline Low Dose,Xan_Lo,Xanomeline Low Dose,Xan_Lo,Xanomeline Low Dose,Xanomeline Low Dose,2012-11-30,2012-11-30T00:00:00Z,H,2013-01-23,2013-01-23T23:59:59Z,H,DISCONTINUED,2013-01-23,,2012-11-30,2013-01-23,55,,,,,54,54,mg,2012-12-02,00:00:00,2012-12-02T00:00:00Z,3,,,,,,,,Day 3,3,48h Post-dose,48,Day 2,Pharmacokinetic concentration of Xanomeline,XAN,1,PLASMA,0.005,ug/ml,<BLQ,0.014810258428298619,Day 2 Baseline,-0.009810258428298618,HALFLLOQ,,Y,,PC,SEQ,14,48,XAN,XANOMELINE,<BLQ,ug/ml,<BLQ,,ug/ml,Imaginary Labs,PLASMA,0.01,BASELINE,3,1,2012-12-02T00:00:00,3,48h Post-dose,48,2012-11-30T00:00:00Z,48,24,2012-12-01T00:00:00Z,2012-11-30,00:00:00,2012-12-01,00:00:00,24,HOURS,HOURS,0.01,24,181.61,cm,78.93,kg,23.93109583519768,kg/m^2
158,CDISCPILOT01,01-701-1115,1115,701,USA,2012-11-30,2013-01-23,2012-11-30,2013-01-23,2013-05-20,,2013-05-20,,,,,,,,,,24,NA,2012-11-23,-7,84,YEARS,>64,M,WHITE,White,NOT HISPANIC OR LATINO,Y,Xanomeline Low Dose,Xan_Lo,Xanomeline Low Dose,Xan_Lo,Xanomeline Low Dose,Xanomeline Low Dose,2012-11-30,2012-11-30T00:00:00Z,H,2013-01-23,2013-01-23T23:59:59Z,H,DISCONTINUED,2013-01-23,,2012-11-30,2013-01-23,55,,,,,54,54,mg,2012-12-02,00:00:00,2012-12-02T00:00:00Z,3,,,,,,,,Day 3,3,48h Post-dose,48,Day 2,Pharmacokinetic concentration of Xanomeline,XAN,1,PLASMA,,ug/ml,<BLQ,0.014810258428298619,Day 2 Baseline,,,,Y,Y,PC,SEQ,14,48,XAN,XANOMELINE,<BLQ,ug/ml,<BLQ,,ug/ml,Imaginary Labs,PLASMA,0.01,BASELINE,3,1,2012-12-02T00:00:00,3,48h Post-dose,48,2012-11-30T00:00:00Z,48,24,2012-12-01T00:00:00Z,2012-11-30,00:00:00,2012-12-01,00:00:00,24,HOURS,HOURS,0.01,24,181.61,cm,78.93,kg,23.93109583519768,kg/m^2
159,CDISCPILOT01,01-701-1115,1115,701,USA,2012-11-30,2013-01-23,2012-11-30,2013-01-23,2013-05-20,,2013-05-20,,,,,,,,,,25,NA,2012-11-23,-7,84,YEARS,>64,M,WHITE,White,NOT HISPANIC OR LATINO,Y,Xanomeline Low Dose,Xan_Lo,Xanomeline Low Dose,Xan_Lo,Xanomeline Low Dose,Xanomeline Low Dose,2012-11-30,2012-11-30T00:00:00Z,H,2013-01-23,2013-01-23T23:59:59Z,H,DISCONTINUED,2013-01-23,,2012-11-30,2013-01-23,55,,,,,54,54,mg,2012-12-02,00:00:00,2012-12-02T00:00:00Z,3,,,,,,,,Day 3,3,Pre-dose,-0.5,Day 3,Pharmacokinetic concentration of Xanomeline,XAN,1,PLASMA,,ug/ml,<BLQ,0.005,Day 3 Baseline,,COPY,,Y,,PC,SEQ,14,48,XAN,XANOMELINE,<BLQ,ug/ml,<BLQ,,ug/ml,Imaginary Labs,PLASMA,0.01,BASELINE,3,1,2012-12-02T00:00:00,3,48h Post-dose,48,2012-11-30T00:00:00Z,48,0,2012-12-02T00:00:00Z,2012-11-30,00:00:00,2012-12-02,00:00:00,0,HOURS,HOURS,0.01,0,181.61,cm,78.93,kg,23.93109583519768,kg/m^2
160,CDISCPILOT01,01-701-1115,1115,701,USA,2012-11-30,2013-01-23,2012-11-30,2013-01-23,2013-05-20,,2013-05-20,,,,,,,,,,26,NA,2012-11-23,-7,84,YEARS,>64,M,WHITE,White,NOT HISPANIC OR LATINO,Y,Xanomeline Low Dose,Xan_Lo,Xanomeline Low Dose,Xan_Lo,Xanomeline Low Dose,Xanomeline Low Dose,2012-11-30,2012-11-30T00:00:00Z,H,2013-01-23,2013-01-23T23:59:59Z,H,DISCONTINUED,2013-01-23,,2012-11-30,2013-01-23,55,,,,,54,54,mg,2012-12-02,00:00:00,2012-12-02T00:00:00Z,3,,,,,,,,Day 3,3,Pre-dose,-0.5,Day 3,Pharmacokinetic concentration of Xanomeline,XAN,1,PLASMA,0.005,ug/ml,<BLQ,0.005,Day 3 Baseline,0,COPY/HALFLLOQ,Y,Y,,PC,SEQ,14,48,XAN,XANOMELINE,<BLQ,ug/ml,<BLQ,,ug/ml,Imaginary Labs,PLASMA,0.01,BASELINE,3,1,2012-12-02T00:00:00,3,48h Post-dose,48,2012-11-30T00:00:00Z,48,0,2012-12-02T00:00:00Z,2012-11-30,00:00:00,2012-12-02,00:00:00,0,HOURS,HOURS,0.01,0,181.61,cm,78.93,kg,23.93109583519768,kg/m^2
161,CDISCPILOT01,01-701-1115,1115,701,USA,2012-11-30,2013-01-23,2012-11-30,2013-01-23,2013-05-20,,2013-05-20,,,,,,,,,,27,NA,2012-11-23,-7,84,YEARS,>64,M,WHITE,White,NOT HISPANIC OR LATINO,Y,Xanomeline Low Dose,Xan_Lo,Xanomeline Low Dose,Xan_Lo,Xanomeline Low Dose,Xanomeline Low Dose,2012-11-30,2012-11-30T00:00:00Z,H,2013-01-23,2013-01-23T23:59:59Z,H,DISCONTINUED,2013-01-23,,2012-11-30,2013-01-23,55,,,,,54,54,mg,2012-12-02,00:00:00,2012-12-02T00:00:00Z,3,,2012-12-02,00:00:00,2012-12-02T00:00:00Z,2012-12-02,00:00:00,2012-12-02T00:00:00Z,Day 3,3,Dose,0,Day 3,Xanomeline Patch Dose,DOSE,2,,54,mg,,,Day 3 Baseline,,,,Y,Y,EX,SEQ,1,48,,,,,,,,,,,BASELINE,3,1,,,,,2012-11-30T00:00:00Z,48,0,2012-12-02T00:00:00Z,2012-11-30,00:00:00,2012-12-02,00:00:00,0,,,,0,181.61,cm,78.93,kg,23.93109583519768,kg/m^2
162,CDISCPILOT01,01-701-1133,1133,701,USA,2012-10-28,2013-04-29,2012-10-28,2013-04-28,2013-04-29T10:13,,,,,,,,,,,,1,NA,2012-10-23,-5,81,YEARS,>64,F,WHITE,White,NOT HISPANIC OR LATINO,Y,Xanomeline High Dose,Xan_Hi,Xanomeline High Dose,Xan_Hi,Xanomeline High Dose,Xanomeline High Dose,2012-10-28,2012-10-28T00:00:00Z,H,2013-04-28,2013-04-28T23:59:59Z,H,COMPLETED,2013-04-29,,2012-10-28,2013-04-29,183,,,,,81,54,mg,2012-10-27,23:30:00,2012-10-27T23:30:00Z,-1,,,,,,,,Day 1,1,Pre-dose,-0.5,Day 1,Pharmacokinetic concentration of Xanomeline,XAN,1,PLASMA,0,ug/ml,<BLQ,0,Day 1 Baseline,0,,Y,Y,Y,PC,SEQ,1,0,XAN,XANOMELINE,<BLQ,ug/ml,<BLQ,0,ug/ml,Imaginary Labs,PLASMA,0.01,BASELINE,3,1,2012-10-27T23:30:00,-1,Pre-dose,-0.5,2012-10-28T00:00:00Z,-0.5,-0.5,2012-10-28T00:00:00Z,2012-10-28,00:00:00,2012-10-28,00:00:00,0,HOURS,,0.01,0,162.56,cm,74.39,kg,28.150568996450495,kg/m^2
163,CDISCPILOT01,01-701-1133,1133,701,USA,2012-10-28,2013-04-29,2012-10-28,2013-04-28,2013-04-29T10:13,,,,,,,,,,,,2,NA,2012-10-23,-5,81,YEARS,>64,F,WHITE,White,NOT HISPANIC OR LATINO,Y,Xanomeline High Dose,Xan_Hi,Xanomeline High Dose,Xan_Hi,Xanomeline High Dose,Xanomeline High Dose,2012-10-28,2012-10-28T00:00:00Z,H,2013-04-28,2013-04-28T23:59:59Z,H,COMPLETED,2013-04-29,,2012-10-28,2013-04-29,183,,,,,81,54,mg,2012-10-28,00:00:00,2012-10-28T00:00:00Z,1,,2012-10-28,00:00:00,2012-10-28T00:00:00Z,2012-10-28,00:00:00,2012-10-28T00:00:00Z,Day 1,1,Dose,0,Day 1,Xanomeline Patch Dose,DOSE,2,,54,mg,,,Day 1 Baseline,,,,Y,Y,EX,SEQ,1,0,,,,,,,,,,,BASELINE,3,1,,,,,2012-10-28T00:00:00Z,0,0,2012-10-28T00:00:00Z,2012-10-28,00:00:00,2012-10-28,00:00:00,0,,,,0,162.56,cm,74.39,kg,28.150568996450495,kg/m^2
164,CDISCPILOT01,01-701-1133,1133,701,USA,2012-10-28,2013-04-29,2012-10-28,2013-04-28,2013-04-29T10:13,,,,,,,,,,,,3,NA,2012-10-23,-5,81,YEARS,>64,F,WHITE,White,NOT HISPANIC OR LATINO,Y,Xanomeline High Dose,Xan_Hi,Xanomeline High Dose,Xan_Hi,Xanomeline High Dose,Xanomeline High Dose,2012-10-28,2012-10-28T00:00:00Z,H,2013-04-28,2013-04-28T23:59:59Z,H,COMPLETED,2013-04-29,,2012-10-28,2013-04-29,183,,,,,81,54,mg,2012-10-28,00:05:00,2012-10-28T00:05:00Z,1,,,,,,,,Day 1,1,5 Min Post-dose,0.08,Day 1,Pharmacokinetic concentration of Xanomeline,XAN,1,PLASMA,0.09718634574677276,ug/ml,0.0972,0,Day 1 Baseline,0.09718634574677276,,,Y,Y,PC,SEQ,2,0.08333333333333333,XAN,XANOMELINE,0.0971863457467728,ug/ml,0.0971863457467728,0.09718634574677276,ug/ml,Imaginary Labs,PLASMA,0.01,BASELINE,3,1,2012-10-28T00:05:00,1,5 Min Post-dose,0.08,2012-10-28T00:00:00Z,0.08333333333333333,0.08333333333333333,2012-10-28T00:00:00Z,2012-10-28,00:00:00,2012-10-28,00:00:00,0.08333333333333333,HOURS,HOURS,0.01,0.08333333333333333,162.56,cm,74.39,kg,28.150568996450495,kg/m^2
165,CDISCPILOT01,01-701-1133,1133,701,USA,2012-10-28,2013-04-29,2012-10-28,2013-04-28,2013-04-29T10:13,,,,,,,,,,,,4,NA,2012-10-23,-5,81,YEARS,>64,F,WHITE,White,NOT HISPANIC OR LATINO,Y,Xanomeline High Dose,Xan_Hi,Xanomeline High Dose,Xan_Hi,Xanomeline High Dose,Xanomeline High Dose,2012-10-28,2012-10-28T00:00:00Z,H,2013-04-28,2013-04-28T23:59:59Z,H,COMPLETED,2013-04-29,,2012-10-28,2013-04-29,183,,,,,81,54,mg,2012-10-28,00:30:00,2012-10-28T00:30:00Z,1,,,,,,,,Day 1,1,30 Min Post-dose,0.5,Day 1,Pharmacokinetic concentration of Xanomeline,XAN,1,PLASMA,0.5300648116681201,ug/ml,0.53,0,Day 1 Baseline,0.5300648116681201,,,Y,Y,PC,SEQ,3,0.5,XAN,XANOMELINE,0.53006481166812,ug/ml,0.53006481166812,0.5300648116681201,ug/ml,Imaginary Labs,PLASMA,0.01,BASELINE,3,1,2012-10-28T00:30:00,1,30 Min Post-dose,0.5,2012-10-28T00:00:00Z,0.5,0.5,2012-10-28T00:00:00Z,2012-10-28,00:00:00,2012-10-28,00:00:00,0.5,HOURS,HOURS,0.01,0.5,162.56,cm,74.39,kg,28.150568996450495,kg/m^2
166,CDISCPILOT01,01-701-1133,1133,701,USA,2012-10-28,2013-04-29,2012-10-28,2013-04-28,2013-04-29T10:13,,,,,,,,,,,,5,NA,2012-10-23,-5,81,YEARS,>64,F,WHITE,White,NOT HISPANIC OR LATINO,Y,Xanomeline High Dose,Xan_Hi,Xanomeline High Dose,Xan_Hi,Xanomeline High Dose,Xanomeline High Dose,2012-10-28,2012-10-28T00:00:00Z,H,2013-04-28,2013-04-28T23:59:59Z,H,COMPLETED,2013-04-29,,2012-10-28,2013-04-29,183,,,,,81,54,mg,2012-10-28,01:00:00,2012-10-28T01:00:00Z,1,,,,,,,,Day 1,1,1h Post-dose,1,Day 1,Pharmacokinetic concentration of Xanomeline,XAN,1,PLASMA,0.9091782277696162,ug/ml,0.909,0,Day 1 Baseline,0.9091782277696162,,,Y,Y,PC,SEQ,4,1,XAN,XANOMELINE,0.909178227769616,ug/ml,0.909178227769616,0.9091782277696162,ug/ml,Imaginary Labs,PLASMA,0.01,BASELINE,3,1,2012-10-28T01:00:00,1,1h Post-dose,1,2012-10-28T00:00:00Z,1,1,2012-10-28T00:00:00Z,2012-10-28,00:00:00,2012-10-28,00:00:00,1,HOURS,HOURS,0.01,1,162.56,cm,74.39,kg,28.150568996450495,kg/m^2
167,CDISCPILOT01,01-701-1133,1133,701,USA,2012-10-28,2013-04-29,2012-10-28,2013-04-28,2013-04-29T10:13,,,,,,,,,,,,6,NA,2012-10-23,-5,81,YEARS,>64,F,WHITE,White,NOT HISPANIC OR LATINO,Y,Xanomeline High Dose,Xan_Hi,Xanomeline High Dose,Xan_Hi,Xanomeline High Dose,Xanomeline High Dose,2012-10-28,2012-10-28T00:00:00Z,H,2013-04-28,2013-04-28T23:59:59Z,H,COMPLETED,2013-04-29,,2012-10-28,2013-04-29,183,,,,,81,54,mg,2012-10-28,01:30:00,2012-10-28T01:30:00Z,1,,,,,,,,Day 1,1,1.5h Post-dose,1.5,Day 1,Pharmacokinetic concentration of Xanomeline,XAN,1,PLASMA,1.1803280553083193,ug/ml,1.18,0,Day 1 Baseline,1.1803280553083193,,,Y,Y,PC,SEQ,5,1.5,XAN,XANOMELINE,1.18032805530832,ug/ml,1.18032805530832,1.1803280553083193,ug/ml,Imaginary Labs,PLASMA,0.01,BASELINE,3,1,2012-10-28T01:30:00,1,1.5h Post-dose,1.5,2012-10-28T00:00:00Z,1.5,1.5,2012-10-28T00:00:00Z,2012-10-28,00:00:00,2012-10-28,00:00:00,1.5,HOURS,HOURS,0.01,1.5,162.56,cm,74.39,kg,28.150568996450495,kg/m^2
168,CDISCPILOT01,01-701-1133,1133,701,USA,2012-10-28,2013-04-29,2012-10-28,2013-04-28,2013-04-29T10:13,,,,,,,,,,,,7,NA,2012-10-23,-5,81,YEARS,>64,F,WHITE,White,NOT HISPANIC OR LATINO,Y,Xanomeline High Dose,Xan_Hi,Xanomeline High Dose,Xan_Hi,Xanomeline High Dose,Xanomeline High Dose,2012-10-28,2012-10-28T00:00:00Z,H,2013-04-28,2013-04-28T23:59:59Z,H,COMPLETED,2013-04-29,,2012-10-28,2013-04-29,183,,,,,81,54,mg,2012-10-28,02:00:00,2012-10-28T02:00:00Z,1,,,,,,,,Day 1,1,2h Post-dose,2,Day 1,Pharmacokinetic concentration of Xanomeline,XAN,1,PLASMA,1.374260071036787,ug/ml,1.37,0,Day 1 Baseline,1.374260071036787,,,Y,Y,PC,SEQ,6,2,XAN,XANOMELINE,1.37426007103679,ug/ml,1.37426007103679,1.374260071036787,ug/ml,Imaginary Labs,PLASMA,0.01,BASELINE,3,1,2012-10-28T02:00:00,1,2h Post-dose,2,2012-10-28T00:00:00Z,2,2,2012-10-28T00:00:00Z,2012-10-28,00:00:00,2012-10-28,00:00:00,2,HOURS,HOURS,0.01,2,162.56,cm,74.39,kg,28.150568996450495,kg/m^2
169,CDISCPILOT01,01-701-1133,1133,701,USA,2012-10-28,2013-04-29,2012-10-28,2013-04-28,2013-04-29T10:13,,,,,,,,,,,,8,NA,2012-10-23,-5,81,YEARS,>64,F,WHITE,White,NOT HISPANIC OR LATINO,Y,Xanomeline High Dose,Xan_Hi,Xanomeline High Dose,Xan_Hi,Xanomeline High Dose,Xanomeline High Dose,2012-10-28,2012-10-28T00:00:00Z,H,2013-04-28,2013-04-28T23:59:59Z,H,COMPLETED,2013-04-29,,2012-10-28,2013-04-29,183,,,,,81,54,mg,2012-10-28,04:00:00,2012-10-28T04:00:00Z,1,,,,,,,,Day 1,1,4h Post-dose,4,Day 1,Pharmacokinetic concentration of Xanomeline,XAN,1,PLASMA,1.733868319108538,ug/ml,1.73,0,Day 1 Baseline,1.733868319108538,,,Y,Y,PC,SEQ,7,4,XAN,XANOMELINE,1.73386831910854,ug/ml,1.73386831910854,1.733868319108538,ug/ml,Imaginary Labs,PLASMA,0.01,BASELINE,3,1,2012-10-28T04:00:00,1,4h Post-dose,4,2012-10-28T00:00:00Z,4,4,2012-10-28T00:00:00Z,2012-10-28,00:00:00,2012-10-28,00:00:00,4,HOURS,HOURS,0.01,4,162.56,cm,74.39,kg,28.150568996450495,kg/m^2
170,CDISCPILOT01,01-701-1133,1133,701,USA,2012-10-28,2013-04-29,2012-10-28,2013-04-28,2013-04-29T10:13,,,,,,,,,,,,9,NA,2012-10-23,-5,81,YEARS,>64,F,WHITE,White,NOT HISPANIC OR LATINO,Y,Xanomeline High Dose,Xan_Hi,Xanomeline High Dose,Xan_Hi,Xanomeline High Dose,Xanomeline High Dose,2012-10-28,2012-10-28T00:00:00Z,H,2013-04-28,2013-04-28T23:59:59Z,H,COMPLETED,2013-04-29,,2012-10-28,2013-04-29,183,,,,,81,54,mg,2012-10-28,06:00:00,2012-10-28T06:00:00Z,1,,,,,,,,Day 1,1,0-6h Post-dose,3,Day 1,Pharmacokinetic concentration of Xanomeline,XAN,1,URINE,28.201076739680257,ug/ml,28.2,,Day 1 Baseline,,,,Y,Y,PC,SEQ,15,3,XAN,XANOMELINE,28.2010767396803,ug/ml,28.2010767396803,28.201076739680257,ug/ml,Imaginary Labs,URINE,0.01,BASELINE,3,1,2012-10-28T06:00:00,1,0-6h Post-dose,3,2012-10-28T00:00:00Z,6,6,2012-10-28T00:00:00Z,2012-10-28,00:00:00,2012-10-28,00:00:00,3,HOURS,HOURS,0.01,6,162.56,cm,74.39,kg,28.150568996450495,kg/m^2
171,CDISCPILOT01,01-701-1133,1133,701,USA,2012-10-28,2013-04-29,2012-10-28,2013-04-28,2013-04-29T10:13,,,,,,,,,,,,10,NA,2012-10-23,-5,81,YEARS,>64,F,WHITE,White,NOT HISPANIC OR LATINO,Y,Xanomeline High Dose,Xan_Hi,Xanomeline High Dose,Xan_Hi,Xanomeline High Dose,Xanomeline High Dose,2012-10-28,2012-10-28T00:00:00Z,H,2013-04-28,2013-04-28T23:59:59Z,H,COMPLETED,2013-04-29,,2012-10-28,2013-04-29,183,,,,,81,54,mg,2012-10-28,06:00:00,2012-10-28T06:00:00Z,1,,,,,,,,Day 1,1,6h Post-dose,6,Day 1,Pharmacokinetic concentration of Xanomeline,XAN,1,PLASMA,1.8279684787556651,ug/ml,1.83,0,Day 1 Baseline,1.8279684787556651,,,Y,Y,PC,SEQ,8,6,XAN,XANOMELINE,1.82796847875567,ug/ml,1.82796847875567,1.8279684787556651,ug/ml,Imaginary Labs,PLASMA,0.01,BASELINE,3,1,2012-10-28T06:00:00,1,6h Post-dose,6,2012-10-28T00:00:00Z,6,6,2012-10-28T00:00:00Z,2012-10-28,00:00:00,2012-10-28,00:00:00,6,HOURS,HOURS,0.01,6,162.56,cm,74.39,kg,28.150568996450495,kg/m^2
172,CDISCPILOT01,01-701-1133,1133,701,USA,2012-10-28,2013-04-29,2012-10-28,2013-04-28,2013-04-29T10:13,,,,,,,,,,,,11,NA,2012-10-23,-5,81,YEARS,>64,F,WHITE,White,NOT HISPANIC OR LATINO,Y,Xanomeline High Dose,Xan_Hi,Xanomeline High Dose,Xan_Hi,Xanomeline High Dose,Xanomeline High Dose,2012-10-28,2012-10-28T00:00:00Z,H,2013-04-28,2013-04-28T23:59:59Z,H,COMPLETED,2013-04-29,,2012-10-28,2013-04-29,183,,,,,81,54,mg,2012-10-28,08:00:00,2012-10-28T08:00:00Z,1,,,,,,,,Day 1,1,8h Post-dose,8,Day 1,Pharmacokinetic concentration of Xanomeline,XAN,1,PLASMA,1.8525920520276775,ug/ml,1.85,0,Day 1 Baseline,1.8525920520276775,,,Y,Y,PC,SEQ,9,8,XAN,XANOMELINE,1.85259205202768,ug/ml,1.85259205202768,1.8525920520276775,ug/ml,Imaginary Labs,PLASMA,0.01,BASELINE,3,1,2012-10-28T08:00:00,1,8h Post-dose,8,2012-10-28T00:00:00Z,8,8,2012-10-28T00:00:00Z,2012-10-28,00:00:00,2012-10-28,00:00:00,8,HOURS,HOURS,0.01,8,162.56,cm,74.39,kg,28.150568996450495,kg/m^2
173,CDISCPILOT01,01-701-1133,1133,701,USA,2012-10-28,2013-04-29,2012-10-28,2013-04-28,2013-04-29T10:13,,,,,,,,,,,,12,NA,2012-10-23,-5,81,YEARS,>64,F,WHITE,White,NOT HISPANIC OR LATINO,Y,Xanomeline High Dose,Xan_Hi,Xanomeline High Dose,Xan_Hi,Xanomeline High Dose,Xanomeline High Dose,2012-10-28,2012-10-28T00:00:00Z,H,2013-04-28,2013-04-28T23:59:59Z,H,COMPLETED,2013-04-29,,2012-10-28,2013-04-29,183,,,,,81,54,mg,2012-10-28,12:00:00,2012-10-28T12:00:00Z,1,,,,,,,,Day 1,1,6-12h Post-dose,9,Day 1,Pharmacokinetic concentration of Xanomeline,XAN,1,URINE,24.179110251765934,ug/ml,24.2,,Day 1 Baseline,,,,Y,Y,PC,SEQ,16,9,XAN,XANOMELINE,24.1791102517659,ug/ml,24.1791102517659,24.179110251765934,ug/ml,Imaginary Labs,URINE,0.01,BASELINE,3,1,2012-10-28T12:00:00,1,6-12h Post-dose,9,2012-10-28T00:00:00Z,12,12,2012-10-28T00:00:00Z,2012-10-28,00:00:00,2012-10-28,00:00:00,9,HOURS,HOURS,0.01,12,162.56,cm,74.39,kg,28.150568996450495,kg/m^2
174,CDISCPILOT01,01-701-1133,1133,701,USA,2012-10-28,2013-04-29,2012-10-28,2013-04-28,2013-04-29T10:13,,,,,,,,,,,,13,NA,2012-10-23,-5,81,YEARS,>64,F,WHITE,White,NOT HISPANIC OR LATINO,Y,Xanomeline High Dose,Xan_Hi,Xanomeline High Dose,Xan_Hi,Xanomeline High Dose,Xanomeline High Dose,2012-10-28,2012-10-28T00:00:00Z,H,2013-04-28,2013-04-28T23:59:59Z,H,COMPLETED,2013-04-29,,2012-10-28,2013-04-29,183,,,,,81,54,mg,2012-10-28,12:00:00,2012-10-28T12:00:00Z,1,,,,,,,,Day 1,1,12h Post-dose,12,Day 1,Pharmacokinetic concentration of Xanomeline,XAN,1,PLASMA,0.581012280106216,ug/ml,0.581,0,Day 1 Baseline,0.581012280106216,,,Y,Y,PC,SEQ,10,12,XAN,XANOMELINE,0.581012280106216,ug/ml,0.581012280106216,0.581012280106216,ug/ml,Imaginary Labs,PLASMA,0.01,BASELINE,3,1,2012-10-28T12:00:00,1,12h Post-dose,12,2012-10-28T00:00:00Z,12,12,2012-10-28T00:00:00Z,2012-10-28,00:00:00,2012-10-28,00:00:00,12,HOURS,HOURS,0.01,12,162.56,cm,74.39,kg,28.150568996450495,kg/m^2
175,CDISCPILOT01,01-701-1133,1133,701,USA,2012-10-28,2013-04-29,2012-10-28,2013-04-28,2013-04-29T10:13,,,,,,,,,,,,14,NA,2012-10-23,-5,81,YEARS,>64,F,WHITE,White,NOT HISPANIC OR LATINO,Y,Xanomeline High Dose,Xan_Hi,Xanomeline High Dose,Xan_Hi,Xanomeline High Dose,Xanomeline High Dose,2012-10-28,2012-10-28T00:00:00Z,H,2013-04-28,2013-04-28T23:59:59Z,H,COMPLETED,2013-04-29,,2012-10-28,2013-04-29,183,,,,,81,54,mg,2012-10-28,16:00:00,2012-10-28T16:00:00Z,1,,,,,,,,Day 1,1,16h Post-dose,16,Day 1,Pharmacokinetic concentration of Xanomeline,XAN,1,PLASMA,0.18136346586455898,ug/ml,0.181,0,Day 1 Baseline,0.18136346586455898,,,Y,Y,PC,SEQ,11,16,XAN,XANOMELINE,0.181363465864559,ug/ml,0.181363465864559,0.18136346586455898,ug/ml,Imaginary Labs,PLASMA,0.01,BASELINE,3,1,2012-10-28T16:00:00,1,16h Post-dose,16,2012-10-28T00:00:00Z,16,16,2012-10-28T00:00:00Z,2012-10-28,00:00:00,2012-10-28,00:00:00,16,HOURS,HOURS,0.01,16,162.56,cm,74.39,kg,28.150568996450495,kg/m^2
176,CDISCPILOT01,01-701-1133,1133,701,USA,2012-10-28,2013-04-29,2012-10-28,2013-04-28,2013-04-29T10:13,,,,,,,,,,,,15,NA,2012-10-23,-5,81,YEARS,>64,F,WHITE,White,NOT HISPANIC OR LATINO,Y,Xanomeline High Dose,Xan_Hi,Xanomeline High Dose,Xan_Hi,Xanomeline High Dose,Xanomeline High Dose,2012-10-28,2012-10-28T00:00:00Z,H,2013-04-28,2013-04-28T23:59:59Z,H,COMPLETED,2013-04-29,,2012-10-28,2013-04-29,183,,,,,81,54,mg,2012-10-29,00:00:00,2012-10-29T00:00:00Z,2,,,,,,,,Day 1,1,12-24h Post-dose,18,Day 1,Pharmacokinetic concentration of Xanomeline,XAN,1,URINE,16.135177275937288,ug/ml,16.1,,Day 1 Baseline,,,,Y,Y,PC,SEQ,17,18,XAN,XANOMELINE,16.1351772759373,ug/ml,16.1351772759373,16.135177275937288,ug/ml,Imaginary Labs,URINE,0.01,BASELINE,3,1,2012-10-29T00:00:00,2,12-24h Post-dose,18,2012-10-28T00:00:00Z,24,24,2012-10-28T00:00:00Z,2012-10-28,00:00:00,2012-10-28,00:00:00,18,HOURS,HOURS,0.01,24,162.56,cm,74.39,kg,28.150568996450495,kg/m^2
177,CDISCPILOT01,01-701-1133,1133,701,USA,2012-10-28,2013-04-29,2012-10-28,2013-04-28,2013-04-29T10:13,,,,,,,,,,,,16,NA,2012-10-23,-5,81,YEARS,>64,F,WHITE,White,NOT HISPANIC OR LATINO,Y,Xanomeline High Dose,Xan_Hi,Xanomeline High Dose,Xan_Hi,Xanomeline High Dose,Xanomeline High Dose,2012-10-28,2012-10-28T00:00:00Z,H,2013-04-28,2013-04-28T23:59:59Z,H,COMPLETED,2013-04-29,,2012-10-28,2013-04-29,183,,,,,81,54,mg,2012-10-29,00:00:00,2012-10-29T00:00:00Z,2,,,,,,,,Day 2,2,24h Post-dose,24,Day 1,Pharmacokinetic concentration of Xanomeline,XAN,1,PLASMA,0.017671718975101242,ug/ml,0.0177,0,Day 1 Baseline,0.017671718975101242,,,Y,Y,PC,SEQ,12,24,XAN,XANOMELINE,0.0176717189751012,ug/ml,0.0176717189751012,0.017671718975101242,ug/ml,Imaginary Labs,PLASMA,0.01,BASELINE,3,1,2012-10-29T00:00:00,2,24h Post-dose,24,2012-10-28T00:00:00Z,24,24,2012-10-28T00:00:00Z,2012-10-28,00:00:00,2012-10-28,00:00:00,24,HOURS,HOURS,0.01,24,162.56,cm,74.39,kg,28.150568996450495,kg/m^2
178,CDISCPILOT01,01-701-1133,1133,701,USA,2012-10-28,2013-04-29,2012-10-28,2013-04-28,2013-04-29T10:13,,,,,,,,,,,,17,NA,2012-10-23,-5,81,YEARS,>64,F,WHITE,White,NOT HISPANIC OR LATINO,Y,Xanomeline High Dose,Xan_Hi,Xanomeline High Dose,Xan_Hi,Xanomeline High Dose,Xanomeline High Dose,2012-10-28,2012-10-28T00:00:00Z,H,2013-04-28,2013-04-28T23:59:59Z,H,COMPLETED,2013-04-29,,2012-10-28,2013-04-29,183,,,,,81,54,mg,2012-10-29,00:00:00,2012-10-29T00:00:00Z,2,,,,,,,,Day 2,2,Pre-dose,-0.5,Day 2,Pharmacokinetic concentration of Xanomeline,XAN,1,PLASMA,0.017671718975101242,ug/ml,0.0177,0.017671718975101242,Day 2 Baseline,0,COPY,Y,Y,,PC,SEQ,12,24,XAN,XANOMELINE,0.0176717189751012,ug/ml,0.0176717189751012,0.017671718975101242,ug/ml,Imaginary Labs,PLASMA,0.01,BASELINE,3,1,2012-10-29T00:00:00,2,24h Post-dose,24,2012-10-28T00:00:00Z,24,0,2012-10-29T00:00:00Z,2012-10-28,00:00:00,2012-10-29,00:00:00,0,HOURS,HOURS,0.01,0,162.56,cm,74.39,kg,28.150568996450495,kg/m^2
179,CDISCPILOT01,01-701-1133,1133,701,USA,2012-10-28,2013-04-29,2012-10-28,2013-04-28,2013-04-29T10:13,,,,,,,,,,,,18,NA,2012-10-23,-5,81,YEARS,>64,F,WHITE,White,NOT HISPANIC OR LATINO,Y,Xanomeline High Dose,Xan_Hi,Xanomeline High Dose,Xan_Hi,Xanomeline High Dose,Xanomeline High Dose,2012-10-28,2012-10-28T00:00:00Z,H,2013-04-28,2013-04-28T23:59:59Z,H,COMPLETED,2013-04-29,,2012-10-28,2013-04-29,183,,,,,81,54,mg,2012-10-29,00:00:00,2012-10-29T00:00:00Z,2,,2012-10-29,00:00:00,2012-10-29T00:00:00Z,2012-10-29,00:00:00,2012-10-29T00:00:00Z,Day 2,2,Dose,0,Day 2,Xanomeline Patch Dose,DOSE,2,,54,mg,,,Day 2 Baseline,,,,Y,Y,EX,SEQ,1,24,,,,,,,,,,,BASELINE,3,1,,,,,2012-10-28T00:00:00Z,24,0,2012-10-29T00:00:00Z,2012-10-28,00:00:00,2012-10-29,00:00:00,0,,,,0,162.56,cm,74.39,kg,28.150568996450495,kg/m^2
180,CDISCPILOT01,01-701-1133,1133,701,USA,2012-10-28,2013-04-29,2012-10-28,2013-04-28,2013-04-29T10:13,,,,,,,,,,,,19,NA,2012-10-23,-5,81,YEARS,>64,F,WHITE,White,NOT HISPANIC OR LATINO,Y,Xanomeline High Dose,Xan_Hi,Xanomeline High Dose,Xan_Hi,Xanomeline High Dose,Xanomeline High Dose,2012-10-28,2012-10-28T00:00:00Z,H,2013-04-28,2013-04-28T23:59:59Z,H,COMPLETED,2013-04-29,,2012-10-28,2013-04-29,183,,,,,81,54,mg,2012-10-29,12:00:00,2012-10-29T12:00:00Z,2,,,,,,,,Day 2,2,36h Post-dose,36,Day 2,Pharmacokinetic concentration of Xanomeline,XAN,1,PLASMA,0.005,ug/ml,<BLQ,0.017671718975101242,Day 2 Baseline,-0.012671718975101241,HALFLLOQ,,Y,,PC,SEQ,13,36,XAN,XANOMELINE,<BLQ,ug/ml,<BLQ,,ug/ml,Imaginary Labs,PLASMA,0.01,BASELINE,3,1,2012-10-29T12:00:00,2,36h Post-dose,36,2012-10-28T00:00:00Z,36,12,2012-10-29T00:00:00Z,2012-10-28,00:00:00,2012-10-29,00:00:00,12,HOURS,HOURS,0.01,12,162.56,cm,74.39,kg,28.150568996450495,kg/m^2
181,CDISCPILOT01,01-701-1133,1133,701,USA,2012-10-28,2013-04-29,2012-10-28,2013-04-28,2013-04-29T10:13,,,,,,,,,,,,20,NA,2012-10-23,-5,81,YEARS,>64,F,WHITE,White,NOT HISPANIC OR LATINO,Y,Xanomeline High Dose,Xan_Hi,Xanomeline High Dose,Xan_Hi,Xanomeline High Dose,Xanomeline High Dose,2012-10-28,2012-10-28T00:00:00Z,H,2013-04-28,2013-04-28T23:59:59Z,H,COMPLETED,2013-04-29,,2012-10-28,2013-04-29,183,,,,,81,54,mg,2012-10-29,12:00:00,2012-10-29T12:00:00Z,2,,,,,,,,Day 2,2,36h Post-dose,36,Day 2,Pharmacokinetic concentration of Xanomeline,XAN,1,PLASMA,,ug/ml,<BLQ,0.017671718975101242,Day 2 Baseline,,,,Y,Y,PC,SEQ,13,36,XAN,XANOMELINE,<BLQ,ug/ml,<BLQ,,ug/ml,Imaginary Labs,PLASMA,0.01,BASELINE,3,1,2012-10-29T12:00:00,2,36h Post-dose,36,2012-10-28T00:00:00Z,36,12,2012-10-29T00:00:00Z,2012-10-28,00:00:00,2012-10-29,00:00:00,12,HOURS,HOURS,0.01,12,162.56,cm,74.39,kg,28.150568996450495,kg/m^2
182,CDISCPILOT01,01-701-1133,1133,701,USA,2012-10-28,2013-04-29,2012-10-28,2013-04-28,2013-04-29T10:13,,,,,,,,,,,,21,NA,2012-10-23,-5,81,YEARS,>64,F,WHITE,White,NOT HISPANIC OR LATINO,Y,Xanomeline High Dose,Xan_Hi,Xanomeline High Dose,Xan_Hi,Xanomeline High Dose,Xanomeline High Dose,2012-10-28,2012-10-28T00:00:00Z,H,2013-04-28,2013-04-28T23:59:59Z,H,COMPLETED,2013-04-29,,2012-10-28,2013-04-29,183,,,,,81,54,mg,2012-10-30,00:00:00,2012-10-30T00:00:00Z,3,,,,,,,,Day 2,2,24-48h Post-dose,37,Day 2,Pharmacokinetic concentration of Xanomeline,XAN,1,URINE,0.047311324279995404,ug/ml,0.0473,,Day 2 Baseline,,,,Y,Y,PC,SEQ,18,36,XAN,XANOMELINE,0.0473113242799954,ug/ml,0.0473113242799954,0.047311324279995404,ug/ml,Imaginary Labs,URINE,0.01,BASELINE,3,1,2012-10-30T00:00:00,3,24-48h Post-dose,37,2012-10-28T00:00:00Z,48,24,2012-10-29T00:00:00Z,2012-10-28,00:00:00,2012-10-29,00:00:00,12,HOURS,HOURS,0.01,24,162.56,cm,74.39,kg,28.150568996450495,kg/m^2
183,CDISCPILOT01,01-701-1133,1133,701,USA,2012-10-28,2013-04-29,2012-10-28,2013-04-28,2013-04-29T10:13,,,,,,,,,,,,22,NA,2012-10-23,-5,81,YEARS,>64,F,WHITE,White,NOT HISPANIC OR LATINO,Y,Xanomeline High Dose,Xan_Hi,Xanomeline High Dose,Xan_Hi,Xanomeline High Dose,Xanomeline High Dose,2012-10-28,2012-10-28T00:00:00Z,H,2013-04-28,2013-04-28T23:59:59Z,H,COMPLETED,2013-04-29,,2012-10-28,2013-04-29,183,,,,,81,54,mg,2012-10-30,00:00:00,2012-10-30T00:00:00Z,3,,,,,,,,Day 3,3,48h Post-dose,48,Day 2,Pharmacokinetic concentration of Xanomeline,XAN,1,PLASMA,0.005,ug/ml,<BLQ,0.017671718975101242,Day 2 Baseline,-0.012671718975101241,HALFLLOQ,,Y,,PC,SEQ,14,48,XAN,XANOMELINE,<BLQ,ug/ml,<BLQ,,ug/ml,Imaginary Labs,PLASMA,0.01,BASELINE,3,1,2012-10-30T00:00:00,3,48h Post-dose,48,2012-10-28T00:00:00Z,48,24,2012-10-29T00:00:00Z,2012-10-28,00:00:00,2012-10-29,00:00:00,24,HOURS,HOURS,0.01,24,162.56,cm,74.39,kg,28.150568996450495,kg/m^2
184,CDISCPILOT01,01-701-1133,1133,701,USA,2012-10-28,2013-04-29,2012-10-28,2013-04-28,2013-04-29T10:13,,,,,,,,,,,,23,NA,2012-10-23,-5,81,YEARS,>64,F,WHITE,White,NOT HISPANIC OR LATINO,Y,Xanomeline High Dose,Xan_Hi,Xanomeline High Dose,Xan_Hi,Xanomeline High Dose,Xanomeline High Dose,2012-10-28,2012-10-28T00:00:00Z,H,2013-04-28,2013-04-28T23:59:59Z,H,COMPLETED,2013-04-29,,2012-10-28,2013-04-29,183,,,,,81,54,mg,2012-10-30,00:00:00,2012-10-30T00:00:00Z,3,,,,,,,,Day 3,3,48h Post-dose,48,Day 2,Pharmacokinetic concentration of Xanomeline,XAN,1,PLASMA,,ug/ml,<BLQ,0.017671718975101242,Day 2 Baseline,,,,Y,Y,PC,SEQ,14,48,XAN,XANOMELINE,<BLQ,ug/ml,<BLQ,,ug/ml,Imaginary Labs,PLASMA,0.01,BASELINE,3,1,2012-10-30T00:00:00,3,48h Post-dose,48,2012-10-28T00:00:00Z,48,24,2012-10-29T00:00:00Z,2012-10-28,00:00:00,2012-10-29,00:00:00,24,HOURS,HOURS,0.01,24,162.56,cm,74.39,kg,28.150568996450495,kg/m^2
185,CDISCPILOT01,01-701-1133,1133,701,USA,2012-10-28,2013-04-29,2012-10-28,2013-04-28,2013-04-29T10:13,,,,,,,,,,,,24,NA,2012-10-23,-5,81,YEARS,>64,F,WHITE,White,NOT HISPANIC OR LATINO,Y,Xanomeline High Dose,Xan_Hi,Xanomeline High Dose,Xan_Hi,Xanomeline High Dose,Xanomeline High Dose,2012-10-28,2012-10-28T00:00:00Z,H,2013-04-28,2013-04-28T23:59:59Z,H,COMPLETED,2013-04-29,,2012-10-28,2013-04-29,183,,,,,81,54,mg,2012-10-30,00:00:00,2012-10-30T00:00:00Z,3,,,,,,,,Day 3,3,Pre-dose,-0.5,Day 3,Pharmacokinetic concentration of Xanomeline,XAN,1,PLASMA,,ug/ml,<BLQ,0.005,Day 3 Baseline,,COPY,,Y,,PC,SEQ,14,48,XAN,XANOMELINE,<BLQ,ug/ml,<BLQ,,ug/ml,Imaginary Labs,PLASMA,0.01,BASELINE,3,1,2012-10-30T00:00:00,3,48h Post-dose,48,2012-10-28T00:00:00Z,48,0,2012-10-30T00:00:00Z,2012-10-28,00:00:00,2012-10-30,00:00:00,0,HOURS,HOURS,0.01,0,162.56,cm,74.39,kg,28.150568996450495,kg/m^2
186,CDISCPILOT01,01-701-1133,1133,701,USA,2012-10-28,2013-04-29,2012-10-28,2013-04-28,2013-04-29T10:13,,,,,,,,,,,,25,NA,2012-10-23,-5,81,YEARS,>64,F,WHITE,White,NOT HISPANIC OR LATINO,Y,Xanomeline High Dose,Xan_Hi,Xanomeline High Dose,Xan_Hi,Xanomeline High Dose,Xanomeline High Dose,2012-10-28,2012-10-28T00:00:00Z,H,2013-04-28,2013-04-28T23:59:59Z,H,COMPLETED,2013-04-29,,2012-10-28,2013-04-29,183,,,,,81,54,mg,2012-10-30,00:00:00,2012-10-30T00:00:00Z,3,,,,,,,,Day 3,3,Pre-dose,-0.5,Day 3,Pharmacokinetic concentration of Xanomeline,XAN,1,PLASMA,0.005,ug/ml,<BLQ,0.005,Day 3 Baseline,0,COPY/HALFLLOQ,Y,Y,,PC,SEQ,14,48,XAN,XANOMELINE,<BLQ,ug/ml,<BLQ,,ug/ml,Imaginary Labs,PLASMA,0.01,BASELINE,3,1,2012-10-30T00:00:00,3,48h Post-dose,48,2012-10-28T00:00:00Z,48,0,2012-10-30T00:00:00Z,2012-10-28,00:00:00,2012-10-30,00:00:00,0,HOURS,HOURS,0.01,0,162.56,cm,74.39,kg,28.150568996450495,kg/m^2
187,CDISCPILOT01,01-701-1133,1133,701,USA,2012-10-28,2013-04-29,2012-10-28,2013-04-28,2013-04-29T10:13,,,,,,,,,,,,26,NA,2012-10-23,-5,81,YEARS,>64,F,WHITE,White,NOT HISPANIC OR LATINO,Y,Xanomeline High Dose,Xan_Hi,Xanomeline High Dose,Xan_Hi,Xanomeline High Dose,Xanomeline High Dose,2012-10-28,2012-10-28T00:00:00Z,H,2013-04-28,2013-04-28T23:59:59Z,H,COMPLETED,2013-04-29,,2012-10-28,2013-04-29,183,,,,,81,54,mg,2012-10-30,00:00:00,2012-10-30T00:00:00Z,3,,2012-10-30,00:00:00,2012-10-30T00:00:00Z,2012-10-30,00:00:00,2012-10-30T00:00:00Z,Day 3,3,Dose,0,Day 3,Xanomeline Patch Dose,DOSE,2,,54,mg,,,Day 3 Baseline,,,,Y,Y,EX,SEQ,1,48,,,,,,,,,,,BASELINE,3,1,,,,,2012-10-28T00:00:00Z,48,0,2012-10-30T00:00:00Z,2012-10-28,00:00:00,2012-10-30,00:00:00,0,,,,0,162.56,cm,74.39,kg,28.150568996450495,kg/m^2
188,CDISCPILOT01,01-701-1146,1146,701,USA,2013-05-20,2013-06-30,2013-05-20,2013-06-26,2013-07-15,,,,,,,,,,,,1,NA,2013-05-07,-13,75,YEARS,>64,F,WHITE,White,NOT HISPANIC OR LATINO,Y,Xanomeline High Dose,Xan_Hi,Xanomeline High Dose,Xan_Hi,Xanomeline High Dose,Xanomeline High Dose,2013-05-20,2013-05-20T00:00:00Z,H,2013-06-26,2013-06-26T23:59:59Z,H,DISCONTINUED,2013-06-30,,2013-05-20,2013-06-30,38,,,,,81,54,mg,2013-05-19,23:30:00,2013-05-19T23:30:00Z,-1,,,,,,,,Day 1,1,Pre-dose,-0.5,Day 1,Pharmacokinetic concentration of Xanomeline,XAN,1,PLASMA,0,ug/ml,<BLQ,0,Day 1 Baseline,0,,Y,Y,Y,PC,SEQ,1,0,XAN,XANOMELINE,<BLQ,ug/ml,<BLQ,0,ug/ml,Imaginary Labs,PLASMA,0.01,BASELINE,3,1,2013-05-19T23:30:00,-1,Pre-dose,-0.5,2013-05-20T00:00:00Z,-0.5,-0.5,2013-05-20T00:00:00Z,2013-05-20,00:00:00,2013-05-20,00:00:00,0,HOURS,,0.01,0,147.32,cm,53.98,kg,24.871928459671427,kg/m^2
189,CDISCPILOT01,01-701-1146,1146,701,USA,2013-05-20,2013-06-30,2013-05-20,2013-06-26,2013-07-15,,,,,,,,,,,,2,NA,2013-05-07,-13,75,YEARS,>64,F,WHITE,White,NOT HISPANIC OR LATINO,Y,Xanomeline High Dose,Xan_Hi,Xanomeline High Dose,Xan_Hi,Xanomeline High Dose,Xanomeline High Dose,2013-05-20,2013-05-20T00:00:00Z,H,2013-06-26,2013-06-26T23:59:59Z,H,DISCONTINUED,2013-06-30,,2013-05-20,2013-06-30,38,,,,,81,54,mg,2013-05-20,00:00:00,2013-05-20T00:00:00Z,1,,2013-05-20,00:00:00,2013-05-20T00:00:00Z,2013-05-20,00:00:00,2013-05-20T00:00:00Z,Day 1,1,Dose,0,Day 1,Xanomeline Patch Dose,DOSE,2,,54,mg,,,Day 1 Baseline,,,,Y,Y,EX,SEQ,1,0,,,,,,,,,,,BASELINE,3,1,,,,,2013-05-20T00:00:00Z,0,0,2013-05-20T00:00:00Z,2013-05-20,00:00:00,2013-05-20,00:00:00,0,,,,0,147.32,cm,53.98,kg,24.871928459671427,kg/m^2
190,CDISCPILOT01,01-701-1146,1146,701,USA,2013-05-20,2013-06-30,2013-05-20,2013-06-26,2013-07-15,,,,,,,,,,,,3,NA,2013-05-07,-13,75,YEARS,>64,F,WHITE,White,NOT HISPANIC OR LATINO,Y,Xanomeline High Dose,Xan_Hi,Xanomeline High Dose,Xan_Hi,Xanomeline High Dose,Xanomeline High Dose,2013-05-20,2013-05-20T00:00:00Z,H,2013-06-26,2013-06-26T23:59:59Z,H,DISCONTINUED,2013-06-30,,2013-05-20,2013-06-30,38,,,,,81,54,mg,2013-05-20,00:05:00,2013-05-20T00:05:00Z,1,,,,,,,,Day 1,1,5 Min Post-dose,0.08,Day 1,Pharmacokinetic concentration of Xanomeline,XAN,1,PLASMA,0.0937830239315385,ug/ml,0.0938,0,Day 1 Baseline,0.0937830239315385,,,Y,Y,PC,SEQ,2,0.08333333333333333,XAN,XANOMELINE,0.0937830239315385,ug/ml,0.0937830239315385,0.0937830239315385,ug/ml,Imaginary Labs,PLASMA,0.01,BASELINE,3,1,2013-05-20T00:05:00,1,5 Min Post-dose,0.08,2013-05-20T00:00:00Z,0.08333333333333333,0.08333333333333333,2013-05-20T00:00:00Z,2013-05-20,00:00:00,2013-05-20,00:00:00,0.08333333333333333,HOURS,HOURS,0.01,0.08333333333333333,147.32,cm,53.98,kg,24.871928459671427,kg/m^2
191,CDISCPILOT01,01-701-1146,1146,701,USA,2013-05-20,2013-06-30,2013-05-20,2013-06-26,2013-07-15,,,,,,,,,,,,4,NA,2013-05-07,-13,75,YEARS,>64,F,WHITE,White,NOT HISPANIC OR LATINO,Y,Xanomeline High Dose,Xan_Hi,Xanomeline High Dose,Xan_Hi,Xanomeline High Dose,Xanomeline High Dose,2013-05-20,2013-05-20T00:00:00Z,H,2013-06-26,2013-06-26T23:59:59Z,H,DISCONTINUED,2013-06-30,,2013-05-20,2013-06-30,38,,,,,81,54,mg,2013-05-20,00:30:00,2013-05-20T00:30:00Z,1,,,,,,,,Day 1,1,30 Min Post-dose,0.5,Day 1,Pharmacokinetic concentration of Xanomeline,XAN,1,PLASMA,0.5102774776227601,ug/ml,0.51,0,Day 1 Baseline,0.5102774776227601,,,Y,Y,PC,SEQ,3,0.5,XAN,XANOMELINE,0.51027747762276,ug/ml,0.51027747762276,0.5102774776227601,ug/ml,Imaginary Labs,PLASMA,0.01,BASELINE,3,1,2013-05-20T00:30:00,1,30 Min Post-dose,0.5,2013-05-20T00:00:00Z,0.5,0.5,2013-05-20T00:00:00Z,2013-05-20,00:00:00,2013-05-20,00:00:00,0.5,HOURS,HOURS,0.01,0.5,147.32,cm,53.98,kg,24.871928459671427,kg/m^2
192,CDISCPILOT01,01-701-1146,1146,701,USA,2013-05-20,2013-06-30,2013-05-20,2013-06-26,2013-07-15,,,,,,,,,,,,5,NA,2013-05-07,-13,75,YEARS,>64,F,WHITE,White,NOT HISPANIC OR LATINO,Y,Xanomeline High Dose,Xan_Hi,Xanomeline High Dose,Xan_Hi,Xanomeline High Dose,Xanomeline High Dose,2013-05-20,2013-05-20T00:00:00Z,H,2013-06-26,2013-06-26T23:59:59Z,H,DISCONTINUED,2013-06-30,,2013-05-20,2013-06-30,38,,,,,81,54,mg,2013-05-20,01:00:00,2013-05-20T01:00:00Z,1,,,,,,,,Day 1,1,1h Post-dose,1,Day 1,Pharmacokinetic concentration of Xanomeline,XAN,1,PLASMA,0.8730158909122198,ug/ml,0.873,0,Day 1 Baseline,0.8730158909122198,,,Y,Y,PC,SEQ,4,1,XAN,XANOMELINE,0.87301589091222,ug/ml,0.87301589091222,0.8730158909122198,ug/ml,Imaginary Labs,PLASMA,0.01,BASELINE,3,1,2013-05-20T01:00:00,1,1h Post-dose,1,2013-05-20T00:00:00Z,1,1,2013-05-20T00:00:00Z,2013-05-20,00:00:00,2013-05-20,00:00:00,1,HOURS,HOURS,0.01,1,147.32,cm,53.98,kg,24.871928459671427,kg/m^2
193,CDISCPILOT01,01-701-1146,1146,701,USA,2013-05-20,2013-06-30,2013-05-20,2013-06-26,2013-07-15,,,,,,,,,,,,6,NA,2013-05-07,-13,75,YEARS,>64,F,WHITE,White,NOT HISPANIC OR LATINO,Y,Xanomeline High Dose,Xan_Hi,Xanomeline High Dose,Xan_Hi,Xanomeline High Dose,Xanomeline High Dose,2013-05-20,2013-05-20T00:00:00Z,H,2013-06-26,2013-06-26T23:59:59Z,H,DISCONTINUED,2013-06-30,,2013-05-20,2013-06-30,38,,,,,81,54,mg,2013-05-20,01:30:00,2013-05-20T01:30:00Z,1,,,,,,,,Day 1,1,1.5h Post-dose,1.5,Day 1,Pharmacokinetic concentration of Xanomeline,XAN,1,PLASMA,1.1308739431404804,ug/ml,1.13,0,Day 1 Baseline,1.1308739431404804,,,Y,Y,PC,SEQ,5,1.5,XAN,XANOMELINE,1.13087394314048,ug/ml,1.13087394314048,1.1308739431404804,ug/ml,Imaginary Labs,PLASMA,0.01,BASELINE,3,1,2013-05-20T01:30:00,1,1.5h Post-dose,1.5,2013-05-20T00:00:00Z,1.5,1.5,2013-05-20T00:00:00Z,2013-05-20,00:00:00,2013-05-20,00:00:00,1.5,HOURS,HOURS,0.01,1.5,147.32,cm,53.98,kg,24.871928459671427,kg/m^2
194,CDISCPILOT01,01-701-1146,1146,701,USA,2013-05-20,2013-06-30,2013-05-20,2013-06-26,2013-07-15,,,,,,,,,,,,7,NA,2013-05-07,-13,75,YEARS,>64,F,WHITE,White,NOT HISPANIC OR LATINO,Y,Xanomeline High Dose,Xan_Hi,Xanomeline High Dose,Xan_Hi,Xanomeline High Dose,Xanomeline High Dose,2013-05-20,2013-05-20T00:00:00Z,H,2013-06-26,2013-06-26T23:59:59Z,H,DISCONTINUED,2013-06-30,,2013-05-20,2013-06-30,38,,,,,81,54,mg,2013-05-20,02:00:00,2013-05-20T02:00:00Z,1,,,,,,,,Day 1,1,2h Post-dose,2,Day 1,Pharmacokinetic concentration of Xanomeline,XAN,1,PLASMA,1.3141762145927567,ug/ml,1.31,0,Day 1 Baseline,1.3141762145927567,,,Y,Y,PC,SEQ,6,2,XAN,XANOMELINE,1.31417621459276,ug/ml,1.31417621459276,1.3141762145927567,ug/ml,Imaginary Labs,PLASMA,0.01,BASELINE,3,1,2013-05-20T02:00:00,1,2h Post-dose,2,2013-05-20T00:00:00Z,2,2,2013-05-20T00:00:00Z,2013-05-20,00:00:00,2013-05-20,00:00:00,2,HOURS,HOURS,0.01,2,147.32,cm,53.98,kg,24.871928459671427,kg/m^2
195,CDISCPILOT01,01-701-1146,1146,701,USA,2013-05-20,2013-06-30,2013-05-20,2013-06-26,2013-07-15,,,,,,,,,,,,8,NA,2013-05-07,-13,75,YEARS,>64,F,WHITE,White,NOT HISPANIC OR LATINO,Y,Xanomeline High Dose,Xan_Hi,Xanomeline High Dose,Xan_Hi,Xanomeline High Dose,Xanomeline High Dose,2013-05-20,2013-05-20T00:00:00Z,H,2013-06-26,2013-06-26T23:59:59Z,H,DISCONTINUED,2013-06-30,,2013-05-20,2013-06-30,38,,,,,81,54,mg,2013-05-20,04:00:00,2013-05-20T04:00:00Z,1,,,,,,,,Day 1,1,4h Post-dose,4,Day 1,Pharmacokinetic concentration of Xanomeline,XAN,1,PLASMA,1.6497609500299304,ug/ml,1.65,0,Day 1 Baseline,1.6497609500299304,,,Y,Y,PC,SEQ,7,4,XAN,XANOMELINE,1.64976095002993,ug/ml,1.64976095002993,1.6497609500299304,ug/ml,Imaginary Labs,PLASMA,0.01,BASELINE,3,1,2013-05-20T04:00:00,1,4h Post-dose,4,2013-05-20T00:00:00Z,4,4,2013-05-20T00:00:00Z,2013-05-20,00:00:00,2013-05-20,00:00:00,4,HOURS,HOURS,0.01,4,147.32,cm,53.98,kg,24.871928459671427,kg/m^2
196,CDISCPILOT01,01-701-1146,1146,701,USA,2013-05-20,2013-06-30,2013-05-20,2013-06-26,2013-07-15,,,,,,,,,,,,9,NA,2013-05-07,-13,75,YEARS,>64,F,WHITE,White,NOT HISPANIC OR LATINO,Y,Xanomeline High Dose,Xan_Hi,Xanomeline High Dose,Xan_Hi,Xanomeline High Dose,Xanomeline High Dose,2013-05-20,2013-05-20T00:00:00Z,H,2013-06-26,2013-06-26T23:59:59Z,H,DISCONTINUED,2013-06-30,,2013-05-20,2013-06-30,38,,,,,81,54,mg,2013-05-20,06:00:00,2013-05-20T06:00:00Z,1,,,,,,,,Day 1,1,0-6h Post-dose,3,Day 1,Pharmacokinetic concentration of Xanomeline,XAN,1,URINE,27.550973968791983,ug/ml,27.6,,Day 1 Baseline,,,,Y,Y,PC,SEQ,15,3,XAN,XANOMELINE,27.550973968792,ug/ml,27.550973968792,27.550973968791983,ug/ml,Imaginary Labs,URINE,0.01,BASELINE,3,1,2013-05-20T06:00:00,1,0-6h Post-dose,3,2013-05-20T00:00:00Z,6,6,2013-05-20T00:00:00Z,2013-05-20,00:00:00,2013-05-20,00:00:00,3,HOURS,HOURS,0.01,6,147.32,cm,53.98,kg,24.871928459671427,kg/m^2
197,CDISCPILOT01,01-701-1146,1146,701,USA,2013-05-20,2013-06-30,2013-05-20,2013-06-26,2013-07-15,,,,,,,,,,,,10,NA,2013-05-07,-13,75,YEARS,>64,F,WHITE,White,NOT HISPANIC OR LATINO,Y,Xanomeline High Dose,Xan_Hi,Xanomeline High Dose,Xan_Hi,Xanomeline High Dose,Xanomeline High Dose,2013-05-20,2013-05-20T00:00:00Z,H,2013-06-26,2013-06-26T23:59:59Z,H,DISCONTINUED,2013-06-30,,2013-05-20,2013-06-30,38,,,,,81,54,mg,2013-05-20,06:00:00,2013-05-20T06:00:00Z,1,,,,,,,,Day 1,1,6h Post-dose,6,Day 1,Pharmacokinetic concentration of Xanomeline,XAN,1,PLASMA,1.7354550246965734,ug/ml,1.74,0,Day 1 Baseline,1.7354550246965734,,,Y,Y,PC,SEQ,8,6,XAN,XANOMELINE,1.73545502469657,ug/ml,1.73545502469657,1.7354550246965734,ug/ml,Imaginary Labs,PLASMA,0.01,BASELINE,3,1,2013-05-20T06:00:00,1,6h Post-dose,6,2013-05-20T00:00:00Z,6,6,2013-05-20T00:00:00Z,2013-05-20,00:00:00,2013-05-20,00:00:00,6,HOURS,HOURS,0.01,6,147.32,cm,53.98,kg,24.871928459671427,kg/m^2
198,CDISCPILOT01,01-701-1146,1146,701,USA,2013-05-20,2013-06-30,2013-05-20,2013-06-26,2013-07-15,,,,,,,,,,,,11,NA,2013-05-07,-13,75,YEARS,>64,F,WHITE,White,NOT HISPANIC OR LATINO,Y,Xanomeline High Dose,Xan_Hi,Xanomeline High Dose,Xan_Hi,Xanomeline High Dose,Xanomeline High Dose,2013-05-20,2013-05-20T00:00:00Z,H,2013-06-26,2013-06-26T23:59:59Z,H,DISCONTINUED,2013-06-30,,2013-05-20,2013-06-30,38,,,,,81,54,mg,2013-05-20,08:00:00,2013-05-20T08:00:00Z,1,,,,,,,,Day 1,1,8h Post-dose,8,Day 1,Pharmacokinetic concentration of Xanomeline,XAN,1,PLASMA,1.7573376482414305,ug/ml,1.76,0,Day 1 Baseline,1.7573376482414305,,,Y,Y,PC,SEQ,9,8,XAN,XANOMELINE,1.75733764824143,ug/ml,1.75733764824143,1.7573376482414305,ug/ml,Imaginary Labs,PLASMA,0.01,BASELINE,3,1,2013-05-20T08:00:00,1,8h Post-dose,8,2013-05-20T00:00:00Z,8,8,2013-05-20T00:00:00Z,2013-05-20,00:00:00,2013-05-20,00:00:00,8,HOURS,HOURS,0.01,8,147.32,cm,53.98,kg,24.871928459671427,kg/m^2
199,CDISCPILOT01,01-701-1146,1146,701,USA,2013-05-20,2013-06-30,2013-05-20,2013-06-26,2013-07-15,,,,,,,,,,,,12,NA,2013-05-07,-13,75,YEARS,>64,F,WHITE,White,NOT HISPANIC OR LATINO,Y,Xanomeline High Dose,Xan_Hi,Xanomeline High Dose,Xan_Hi,Xanomeline High Dose,Xanomeline High Dose,2013-05-20,2013-05-20T00:00:00Z,H,2013-06-26,2013-06-26T23:59:59Z,H,DISCONTINUED,2013-06-30,,2013-05-20,2013-06-30,38,,,,,81,54,mg,2013-05-20,12:00:00,2013-05-20T12:00:00Z,1,,,,,,,,Day 1,1,6-12h Post-dose,9,Day 1,Pharmacokinetic concentration of Xanomeline,XAN,1,URINE,23.455701549702532,ug/ml,23.5,,Day 1 Baseline,,,,Y,Y,PC,SEQ,16,9,XAN,XANOMELINE,23.4557015497025,ug/ml,23.4557015497025,23.455701549702532,ug/ml,Imaginary Labs,URINE,0.01,BASELINE,3,1,2013-05-20T12:00:00,1,6-12h Post-dose,9,2013-05-20T00:00:00Z,12,12,2013-05-20T00:00:00Z,2013-05-20,00:00:00,2013-05-20,00:00:00,9,HOURS,HOURS,0.01,12,147.32,cm,53.98,kg,24.871928459671427,kg/m^2
200,CDISCPILOT01,01-701-1146,1146,701,USA,2013-05-20,2013-06-30,2013-05-20,2013-06-26,2013-07-15,,,,,,,,,,,,13,NA,2013-05-07,-13,75,YEARS,>64,F,WHITE,White,NOT HISPANIC OR LATINO,Y,Xanomeline High Dose,Xan_Hi,Xanomeline High Dose,Xan_Hi,Xanomeline High Dose,Xanomeline High Dose,2013-05-20,2013-05-20T00:00:00Z,H,2013-06-26,2013-06-26T23:59:59Z,H,DISCONTINUED,2013-06-30,,2013-05-20,2013-06-30,38,,,,,81,54,mg,2013-05-20,12:00:00,2013-05-20T12:00:00Z,1,,,,,,,,Day 1,1,12h Post-dose,12,Day 1,Pharmacokinetic concentration of Xanomeline,XAN,1,PLASMA,0.5393297289393474,ug/ml,0.539,0,Day 1 Baseline,0.5393297289393474,,,Y,Y,PC,SEQ,10,12,XAN,XANOMELINE,0.539329728939347,ug/ml,0.539329728939347,0.5393297289393474,ug/ml,Imaginary Labs,PLASMA,0.01,BASELINE,3,1,2013-05-20T12:00:00,1,12h Post-dose,12,2013-05-20T00:00:00Z,12,12,2013-05-20T00:00:00Z,2013-05-20,00:00:00,2013-05-20,00:00:00,12,HOURS,HOURS,0.01,12,147.32,cm,53.98,kg,24.871928459671427,kg/m^2
201,CDISCPILOT01,01-701-1146,1146,701,USA,2013-05-20,2013-06-30,2013-05-20,2013-06-26,2013-07-15,,,,,,,,,,,,14,NA,2013-05-07,-13,75,YEARS,>64,F,WHITE,White,NOT HISPANIC OR LATINO,Y,Xanomeline High Dose,Xan_Hi,Xanomeline High Dose,Xan_Hi,Xanomeline High Dose,Xanomeline High Dose,2013-05-20,2013-05-20T00:00:00Z,H,2013-06-26,2013-06-26T23:59:59Z,H,DISCONTINUED,2013-06-30,,2013-05-20,2013-06-30,38,,,,,81,54,mg,2013-05-20,16:00:00,2013-05-20T16:00:00Z,1,,,,,,,,Day 1,1,16h Post-dose,16,Day 1,Pharmacokinetic concentration of Xanomeline,XAN,1,PLASMA,0.16481735680232676,ug/ml,0.165,0,Day 1 Baseline,0.16481735680232676,,,Y,Y,PC,SEQ,11,16,XAN,XANOMELINE,0.164817356802327,ug/ml,0.164817356802327,0.16481735680232676,ug/ml,Imaginary Labs,PLASMA,0.01,BASELINE,3,1,2013-05-20T16:00:00,1,16h Post-dose,16,2013-05-20T00:00:00Z,16,16,2013-05-20T00:00:00Z,2013-05-20,00:00:00,2013-05-20,00:00:00,16,HOURS,HOURS,0.01,16,147.32,cm,53.98,kg,24.871928459671427,kg/m^2
202,CDISCPILOT01,01-701-1146,1146,701,USA,2013-05-20,2013-06-30,2013-05-20,2013-06-26,2013-07-15,,,,,,,,,,,,15,NA,2013-05-07,-13,75,YEARS,>64,F,WHITE,White,NOT HISPANIC OR LATINO,Y,Xanomeline High Dose,Xan_Hi,Xanomeline High Dose,Xan_Hi,Xanomeline High Dose,Xanomeline High Dose,2013-05-20,2013-05-20T00:00:00Z,H,2013-06-26,2013-06-26T23:59:59Z,H,DISCONTINUED,2013-06-30,,2013-05-20,2013-06-30,38,,,,,81,54,mg,2013-05-21,00:00:00,2013-05-21T00:00:00Z,2,,,,,,,,Day 1,1,12-24h Post-dose,18,Day 1,Pharmacokinetic concentration of Xanomeline,XAN,1,URINE,15.26515671152363,ug/ml,15.3,,Day 1 Baseline,,,,Y,Y,PC,SEQ,17,18,XAN,XANOMELINE,15.2651567115236,ug/ml,15.2651567115236,15.26515671152363,ug/ml,Imaginary Labs,URINE,0.01,BASELINE,3,1,2013-05-21T00:00:00,2,12-24h Post-dose,18,2013-05-20T00:00:00Z,24,24,2013-05-20T00:00:00Z,2013-05-20,00:00:00,2013-05-20,00:00:00,18,HOURS,HOURS,0.01,24,147.32,cm,53.98,kg,24.871928459671427,kg/m^2
203,CDISCPILOT01,01-701-1146,1146,701,USA,2013-05-20,2013-06-30,2013-05-20,2013-06-26,2013-07-15,,,,,,,,,,,,16,NA,2013-05-07,-13,75,YEARS,>64,F,WHITE,White,NOT HISPANIC OR LATINO,Y,Xanomeline High Dose,Xan_Hi,Xanomeline High Dose,Xan_Hi,Xanomeline High Dose,Xanomeline High Dose,2013-05-20,2013-05-20T00:00:00Z,H,2013-06-26,2013-06-26T23:59:59Z,H,DISCONTINUED,2013-06-30,,2013-05-20,2013-06-30,38,,,,,81,54,mg,2013-05-21,00:00:00,2013-05-21T00:00:00Z,2,,,,,,,,Day 2,2,24h Post-dose,24,Day 1,Pharmacokinetic concentration of Xanomeline,XAN,1,PLASMA,0.015392179338246673,ug/ml,0.0154,0,Day 1 Baseline,0.015392179338246673,,,Y,Y,PC,SEQ,12,24,XAN,XANOMELINE,0.0153921793382467,ug/ml,0.0153921793382467,0.015392179338246673,ug/ml,Imaginary Labs,PLASMA,0.01,BASELINE,3,1,2013-05-21T00:00:00,2,24h Post-dose,24,2013-05-20T00:00:00Z,24,24,2013-05-20T00:00:00Z,2013-05-20,00:00:00,2013-05-20,00:00:00,24,HOURS,HOURS,0.01,24,147.32,cm,53.98,kg,24.871928459671427,kg/m^2
204,CDISCPILOT01,01-701-1146,1146,701,USA,2013-05-20,2013-06-30,2013-05-20,2013-06-26,2013-07-15,,,,,,,,,,,,17,NA,2013-05-07,-13,75,YEARS,>64,F,WHITE,White,NOT HISPANIC OR LATINO,Y,Xanomeline High Dose,Xan_Hi,Xanomeline High Dose,Xan_Hi,Xanomeline High Dose,Xanomeline High Dose,2013-05-20,2013-05-20T00:00:00Z,H,2013-06-26,2013-06-26T23:59:59Z,H,DISCONTINUED,2013-06-30,,2013-05-20,2013-06-30,38,,,,,81,54,mg,2013-05-21,00:00:00,2013-05-21T00:00:00Z,2,,,,,,,,Day 2,2,Pre-dose,-0.5,Day 2,Pharmacokinetic concentration of Xanomeline,XAN,1,PLASMA,0.015392179338246673,ug/ml,0.0154,0.015392179338246673,Day 2 Baseline,0,COPY,Y,Y,,PC,SEQ,12,24,XAN,XANOMELINE,0.0153921793382467,ug/ml,0.0153921793382467,0.015392179338246673,ug/ml,Imaginary Labs,PLASMA,0.01,BASELINE,3,1,2013-05-21T00:00:00,2,24h Post-dose,24,2013-05-20T00:00:00Z,24,0,2013-05-21T00:00:00Z,2013-05-20,00:00:00,2013-05-21,00:00:00,0,HOURS,HOURS,0.01,0,147.32,cm,53.98,kg,24.871928459671427,kg/m^2
205,CDISCPILOT01,01-701-1146,1146,701,USA,2013-05-20,2013-06-30,2013-05-20,2013-06-26,2013-07-15,,,,,,,,,,,,18,NA,2013-05-07,-13,75,YEARS,>64,F,WHITE,White,NOT HISPANIC OR LATINO,Y,Xanomeline High Dose,Xan_Hi,Xanomeline High Dose,Xan_Hi,Xanomeline High Dose,Xanomeline High Dose,2013-05-20,2013-05-20T00:00:00Z,H,2013-06-26,2013-06-26T23:59:59Z,H,DISCONTINUED,2013-06-30,,2013-05-20,2013-06-30,38,,,,,81,54,mg,2013-05-21,00:00:00,2013-05-21T00:00:00Z,2,,2013-05-21,00:00:00,2013-05-21T00:00:00Z,2013-05-21,00:00:00,2013-05-21T00:00:00Z,Day 2,2,Dose,0,Day 2,Xanomeline Patch Dose,DOSE,2,,54,mg,,,Day 2 Baseline,,,,Y,Y,EX,SEQ,1,24,,,,,,,,,,,BASELINE,3,1,,,,,2013-05-20T00:00:00Z,24,0,2013-05-21T00:00:00Z,2013-05-20,00:00:00,2013-05-21,00:00:00,0,,,,0,147.32,cm,53.98,kg,24.871928459671427,kg/m^2
206,CDISCPILOT01,01-701-1146,1146,701,USA,2013-05-20,2013-06-30,2013-05-20,2013-06-26,2013-07-15,,,,,,,,,,,,19,NA,2013-05-07,-13,75,YEARS,>64,F,WHITE,White,NOT HISPANIC OR LATINO,Y,Xanomeline High Dose,Xan_Hi,Xanomeline High Dose,Xan_Hi,Xanomeline High Dose,Xanomeline High Dose,2013-05-20,2013-05-20T00:00:00Z,H,2013-06-26,2013-06-26T23:59:59Z,H,DISCONTINUED,2013-06-30,,2013-05-20,2013-06-30,38,,,,,81,54,mg,2013-05-21,12:00:00,2013-05-21T12:00:00Z,2,,,,,,,,Day 2,2,36h Post-dose,36,Day 2,Pharmacokinetic concentration of Xanomeline,XAN,1,PLASMA,0.005,ug/ml,<BLQ,0.015392179338246673,Day 2 Baseline,-0.010392179338246672,HALFLLOQ,,Y,,PC,SEQ,13,36,XAN,XANOMELINE,<BLQ,ug/ml,<BLQ,,ug/ml,Imaginary Labs,PLASMA,0.01,BASELINE,3,1,2013-05-21T12:00:00,2,36h Post-dose,36,2013-05-20T00:00:00Z,36,12,2013-05-21T00:00:00Z,2013-05-20,00:00:00,2013-05-21,00:00:00,12,HOURS,HOURS,0.01,12,147.32,cm,53.98,kg,24.871928459671427,kg/m^2
207,CDISCPILOT01,01-701-1146,1146,701,USA,2013-05-20,2013-06-30,2013-05-20,2013-06-26,2013-07-15,,,,,,,,,,,,20,NA,2013-05-07,-13,75,YEARS,>64,F,WHITE,White,NOT HISPANIC OR LATINO,Y,Xanomeline High Dose,Xan_Hi,Xanomeline High Dose,Xan_Hi,Xanomeline High Dose,Xanomeline High Dose,2013-05-20,2013-05-20T00:00:00Z,H,2013-06-26,2013-06-26T23:59:59Z,H,DISCONTINUED,2013-06-30,,2013-05-20,2013-06-30,38,,,,,81,54,mg,2013-05-21,12:00:00,2013-05-21T12:00:00Z,2,,,,,,,,Day 2,2,36h Post-dose,36,Day 2,Pharmacokinetic concentration of Xanomeline,XAN,1,PLASMA,,ug/ml,<BLQ,0.015392179338246673,Day 2 Baseline,,,,Y,Y,PC,SEQ,13,36,XAN,XANOMELINE,<BLQ,ug/ml,<BLQ,,ug/ml,Imaginary Labs,PLASMA,0.01,BASELINE,3,1,2013-05-21T12:00:00,2,36h Post-dose,36,2013-05-20T00:00:00Z,36,12,2013-05-21T00:00:00Z,2013-05-20,00:00:00,2013-05-21,00:00:00,12,HOURS,HOURS,0.01,12,147.32,cm,53.98,kg,24.871928459671427,kg/m^2
208,CDISCPILOT01,01-701-1146,1146,701,USA,2013-05-20,2013-06-30,2013-05-20,2013-06-26,2013-07-15,,,,,,,,,,,,21,NA,2013-05-07,-13,75,YEARS,>64,F,WHITE,White,NOT HISPANIC OR LATINO,Y,Xanomeline High Dose,Xan_Hi,Xanomeline High Dose,Xan_Hi,Xanomeline High Dose,Xanomeline High Dose,2013-05-20,2013-05-20T00:00:00Z,H,2013-06-26,2013-06-26T23:59:59Z,H,DISCONTINUED,2013-06-30,,2013-05-20,2013-06-30,38,,,,,81,54,mg,2013-05-22,00:00:00,2013-05-22T00:00:00Z,3,,,,,,,,Day 2,2,24-48h Post-dose,37,Day 2,Pharmacokinetic concentration of Xanomeline,XAN,1,URINE,0.005,ug/ml,<BLQ,,Day 2 Baseline,,HALFLLOQ,,Y,,PC,SEQ,18,36,XAN,XANOMELINE,<BLQ,ug/ml,<BLQ,,ug/ml,Imaginary Labs,URINE,0.01,BASELINE,3,1,2013-05-22T00:00:00,3,24-48h Post-dose,37,2013-05-20T00:00:00Z,48,24,2013-05-21T00:00:00Z,2013-05-20,00:00:00,2013-05-21,00:00:00,12,HOURS,HOURS,0.01,24,147.32,cm,53.98,kg,24.871928459671427,kg/m^2
209,CDISCPILOT01,01-701-1146,1146,701,USA,2013-05-20,2013-06-30,2013-05-20,2013-06-26,2013-07-15,,,,,,,,,,,,22,NA,2013-05-07,-13,75,YEARS,>64,F,WHITE,White,NOT HISPANIC OR LATINO,Y,Xanomeline High Dose,Xan_Hi,Xanomeline High Dose,Xan_Hi,Xanomeline High Dose,Xanomeline High Dose,2013-05-20,2013-05-20T00:00:00Z,H,2013-06-26,2013-06-26T23:59:59Z,H,DISCONTINUED,2013-06-30,,2013-05-20,2013-06-30,38,,,,,81,54,mg,2013-05-22,00:00:00,2013-05-22T00:00:00Z,3,,,,,,,,Day 2,2,24-48h Post-dose,37,Day 2,Pharmacokinetic concentration of Xanomeline,XAN,1,URINE,,ug/ml,<BLQ,,Day 2 Baseline,,,,Y,Y,PC,SEQ,18,36,XAN,XANOMELINE,<BLQ,ug/ml,<BLQ,,ug/ml,Imaginary Labs,URINE,0.01,BASELINE,3,1,2013-05-22T00:00:00,3,24-48h Post-dose,37,2013-05-20T00:00:00Z,48,24,2013-05-21T00:00:00Z,2013-05-20,00:00:00,2013-05-21,00:00:00,12,HOURS,HOURS,0.01,24,147.32,cm,53.98,kg,24.871928459671427,kg/m^2
210,CDISCPILOT01,01-701-1146,1146,701,USA,2013-05-20,2013-06-30,2013-05-20,2013-06-26,2013-07-15,,,,,,,,,,,,23,NA,2013-05-07,-13,75,YEARS,>64,F,WHITE,White,NOT HISPANIC OR LATINO,Y,Xanomeline High Dose,Xan_Hi,Xanomeline High Dose,Xan_Hi,Xanomeline High Dose,Xanomeline High Dose,2013-05-20,2013-05-20T00:00:00Z,H,2013-06-26,2013-06-26T23:59:59Z,H,DISCONTINUED,2013-06-30,,2013-05-20,2013-06-30,38,,,,,81,54,mg,2013-05-22,00:00:00,2013-05-22T00:00:00Z,3,,,,,,,,Day 3,3,48h Post-dose,48,Day 2,Pharmacokinetic concentration of Xanomeline,XAN,1,PLASMA,0.005,ug/ml,<BLQ,0.015392179338246673,Day 2 Baseline,-0.010392179338246672,HALFLLOQ,,Y,,PC,SEQ,14,48,XAN,XANOMELINE,<BLQ,ug/ml,<BLQ,,ug/ml,Imaginary Labs,PLASMA,0.01,BASELINE,3,1,2013-05-22T00:00:00,3,48h Post-dose,48,2013-05-20T00:00:00Z,48,24,2013-05-21T00:00:00Z,2013-05-20,00:00:00,2013-05-21,00:00:00,24,HOURS,HOURS,0.01,24,147.32,cm,53.98,kg,24.871928459671427,kg/m^2
211,CDISCPILOT01,01-701-1146,1146,701,USA,2013-05-20,2013-06-30,2013-05-20,2013-06-26,2013-07-15,,,,,,,,,,,,24,NA,2013-05-07,-13,75,YEARS,>64,F,WHITE,White,NOT HISPANIC OR LATINO,Y,Xanomeline High Dose,Xan_Hi,Xanomeline High Dose,Xan_Hi,Xanomeline High Dose,Xanomeline High Dose,2013-05-20,2013-05-20T00:00:00Z,H,2013-06-26,2013-06-26T23:59:59Z,H,DISCONTINUED,2013-06-30,,2013-05-20,2013-06-30,38,,,,,81,54,mg,2013-05-22,00:00:00,2013-05-22T00:00:00Z,3,,,,,,,,Day 3,3,48h Post-dose,48,Day 2,Pharmacokinetic concentration of Xanomeline,XAN,1,PLASMA,,ug/ml,<BLQ,0.015392179338246673,Day 2 Baseline,,,,Y,Y,PC,SEQ,14,48,XAN,XANOMELINE,<BLQ,ug/ml,<BLQ,,ug/ml,Imaginary Labs,PLASMA,0.01,BASELINE,3,1,2013-05-22T00:00:00,3,48h Post-dose,48,2013-05-20T00:00:00Z,48,24,2013-05-21T00:00:00Z,2013-05-20,00:00:00,2013-05-21,00:00:00,24,HOURS,HOURS,0.01,24,147.32,cm,53.98,kg,24.871928459671427,kg/m^2
212,CDISCPILOT01,01-701-1146,1146,701,USA,2013-05-20,2013-06-30,2013-05-20,2013-06-26,2013-07-15,,,,,,,,,,,,25,NA,2013-05-07,-13,75,YEARS,>64,F,WHITE,White,NOT HISPANIC OR LATINO,Y,Xanomeline High Dose,Xan_Hi,Xanomeline High Dose,Xan_Hi,Xanomeline High Dose,Xanomeline High Dose,2013-05-20,2013-05-20T00:00:00Z,H,2013-06-26,2013-06-26T23:59:59Z,H,DISCONTINUED,2013-06-30,,2013-05-20,2013-06-30,38,,,,,81,54,mg,2013-05-22,00:00:00,2013-05-22T00:00:00Z,3,,,,,,,,Day 3,3,Pre-dose,-0.5,Day 3,Pharmacokinetic concentration of Xanomeline,XAN,1,PLASMA,,ug/ml,<BLQ,0.005,Day 3 Baseline,,COPY,,Y,,PC,SEQ,14,48,XAN,XANOMELINE,<BLQ,ug/ml,<BLQ,,ug/ml,Imaginary Labs,PLASMA,0.01,BASELINE,3,1,2013-05-22T00:00:00,3,48h Post-dose,48,2013-05-20T00:00:00Z,48,0,2013-05-22T00:00:00Z,2013-05-20,00:00:00,2013-05-22,00:00:00,0,HOURS,HOURS,0.01,0,147.32,cm,53.98,kg,24.871928459671427,kg/m^2
213,CDISCPILOT01,01-701-1146,1146,701,USA,2013-05-20,2013-06-30,2013-05-20,2013-06-26,2013-07-15,,,,,,,,,,,,26,NA,2013-05-07,-13,75,YEARS,>64,F,WHITE,White,NOT HISPANIC OR LATINO,Y,Xanomeline High Dose,Xan_Hi,Xanomeline High Dose,Xan_Hi,Xanomeline High Dose,Xanomeline High Dose,2013-05-20,2013-05-20T00:00:00Z,H,2013-06-26,2013-06-26T23:59:59Z,H,DISCONTINUED,2013-06-30,,2013-05-20,2013-06-30,38,,,,,81,54,mg,2013-05-22,00:00:00,2013-05-22T00:00:00Z,3,,,,,,,,Day 3,3,Pre-dose,-0.5,Day 3,Pharmacokinetic concentration of Xanomeline,XAN,1,PLASMA,0.005,ug/ml,<BLQ,0.005,Day 3 Baseline,0,COPY/HALFLLOQ,Y,Y,,PC,SEQ,14,48,XAN,XANOMELINE,<BLQ,ug/ml,<BLQ,,ug/ml,Imaginary Labs,PLASMA,0.01,BASELINE,3,1,2013-05-22T00:00:00,3,48h Post-dose,48,2013-05-20T00:00:00Z,48,0,2013-05-22T00:00:00Z,2013-05-20,00:00:00,2013-05-22,00:00:00,0,HOURS,HOURS,0.01,0,147.32,cm,53.98,kg,24.871928459671427,kg/m^2
214,CDISCPILOT01,01-701-1146,1146,701,USA,2013-05-20,2013-06-30,2013-05-20,2013-06-26,2013-07-15,,,,,,,,,,,,27,NA,2013-05-07,-13,75,YEARS,>64,F,WHITE,White,NOT HISPANIC OR LATINO,Y,Xanomeline High Dose,Xan_Hi,Xanomeline High Dose,Xan_Hi,Xanomeline High Dose,Xanomeline High Dose,2013-05-20,2013-05-20T00:00:00Z,H,2013-06-26,2013-06-26T23:59:59Z,H,DISCONTINUED,2013-06-30,,2013-05-20,2013-06-30,38,,,,,81,54,mg,2013-05-22,00:00:00,2013-05-22T00:00:00Z,3,,2013-05-22,00:00:00,2013-05-22T00:00:00Z,2013-05-22,00:00:00,2013-05-22T00:00:00Z,Day 3,3,Dose,0,Day 3,Xanomeline Patch Dose,DOSE,2,,54,mg,,,Day 3 Baseline,,,,Y,Y,EX,SEQ,1,48,,,,,,,,,,,BASELINE,3,1,,,,,2013-05-20T00:00:00Z,48,0,2013-05-22T00:00:00Z,2013-05-20,00:00:00,2013-05-22,00:00:00,0,,,,0,147.32,cm,53.98,kg,24.871928459671427,kg/m^2
215,CDISCPILOT01,01-701-1148,1148,701,USA,2013-08-23,2014-02-20,2013-08-23,2014-02-20,2014-02-20T15:07,,,,,,,,,,,,1,NA,2013-08-14,-9,57,YEARS,18-64,M,WHITE,White,NOT HISPANIC OR LATINO,Y,Xanomeline High Dose,Xan_Hi,Xanomeline High Dose,Xan_Hi,Xanomeline High Dose,Xanomeline High Dose,2013-08-23,2013-08-23T00:00:00Z,H,2014-02-20,2014-02-20T23:59:59Z,H,COMPLETED,2014-02-20,,2013-08-23,2014-02-20,182,,,,,81,54,mg,2013-08-22,23:30:00,2013-08-22T23:30:00Z,-1,,,,,,,,Day 1,1,Pre-dose,-0.5,Day 1,Pharmacokinetic concentration of Xanomeline,XAN,1,PLASMA,0,ug/ml,<BLQ,0,Day 1 Baseline,0,,Y,Y,Y,PC,SEQ,1,0,XAN,XANOMELINE,<BLQ,ug/ml,<BLQ,0,ug/ml,Imaginary Labs,PLASMA,0.01,BASELINE,3,1,2013-08-22T23:30:00,-1,Pre-dose,-0.5,2013-08-23T00:00:00Z,-0.5,-0.5,2013-08-23T00:00:00Z,2013-08-23,00:00:00,2013-08-23,00:00:00,0,HOURS,,0.01,0,175.26,cm,87.09,kg,28.3532388110775,kg/m^2
216,CDISCPILOT01,01-701-1148,1148,701,USA,2013-08-23,2014-02-20,2013-08-23,2014-02-20,2014-02-20T15:07,,,,,,,,,,,,2,NA,2013-08-14,-9,57,YEARS,18-64,M,WHITE,White,NOT HISPANIC OR LATINO,Y,Xanomeline High Dose,Xan_Hi,Xanomeline High Dose,Xan_Hi,Xanomeline High Dose,Xanomeline High Dose,2013-08-23,2013-08-23T00:00:00Z,H,2014-02-20,2014-02-20T23:59:59Z,H,COMPLETED,2014-02-20,,2013-08-23,2014-02-20,182,,,,,81,54,mg,2013-08-23,00:00:00,2013-08-23T00:00:00Z,1,,2013-08-23,00:00:00,2013-08-23T00:00:00Z,2013-08-23,00:00:00,2013-08-23T00:00:00Z,Day 1,1,Dose,0,Day 1,Xanomeline Patch Dose,DOSE,2,,54,mg,,,Day 1 Baseline,,,,Y,Y,EX,SEQ,1,0,,,,,,,,,,,BASELINE,3,1,,,,,2013-08-23T00:00:00Z,0,0,2013-08-23T00:00:00Z,2013-08-23,00:00:00,2013-08-23,00:00:00,0,,,,0,175.26,cm,87.09,kg,28.3532388110775,kg/m^2
217,CDISCPILOT01,01-701-1148,1148,701,USA,2013-08-23,2014-02-20,2013-08-23,2014-02-20,2014-02-20T15:07,,,,,,,,,,,,3,NA,2013-08-14,-9,57,YEARS,18-64,M,WHITE,White,NOT HISPANIC OR LATINO,Y,Xanomeline High Dose,Xan_Hi,Xanomeline High Dose,Xan_Hi,Xanomeline High Dose,Xanomeline High Dose,2013-08-23,2013-08-23T00:00:00Z,H,2014-02-20,2014-02-20T23:59:59Z,H,COMPLETED,2014-02-20,,2013-08-23,2014-02-20,182,,,,,81,54,mg,2013-08-23,00:05:00,2013-08-23T00:05:00Z,1,,,,,,,,Day 1,1,5 Min Post-dose,0.08,Day 1,Pharmacokinetic concentration of Xanomeline,XAN,1,PLASMA,0.10455927821183313,ug/ml,0.105,0,Day 1 Baseline,0.10455927821183313,,,Y,Y,PC,SEQ,2,0.08333333333333333,XAN,XANOMELINE,0.104559278211833,ug/ml,0.104559278211833,0.10455927821183313,ug/ml,Imaginary Labs,PLASMA,0.01,BASELINE,3,1,2013-08-23T00:05:00,1,5 Min Post-dose,0.08,2013-08-23T00:00:00Z,0.08333333333333333,0.08333333333333333,2013-08-23T00:00:00Z,2013-08-23,00:00:00,2013-08-23,00:00:00,0.08333333333333333,HOURS,HOURS,0.01,0.08333333333333333,175.26,cm,87.09,kg,28.3532388110775,kg/m^2
