rownames,PROJID,PROJIDN,STUDYID,STUDYIDN,USUBJID,USUBJIDN,SUBJID,SUBJIDN,SITEID,SITEIDN,RECSEQ,AFRLT,APRLT,NFRLT,NPRLT,EVID,CMT,DV,PARAMCD,PARAM,PARAMN,ASEQ,AVAL,AVALU,MDV,ALLOQ,BLQFL,BLQFN,AMT,DOSEA,II,SS,FORM,FORMN,ROUTE,ROUTEN,COHORT,COHORTC,UDTC,WTBL,HTBL,BMIBL,BSABL,AGE,SEX,SEXN,RACE,RACEN,ETHNIC,ETHNICN,COUNTRY,COUNTRYL,COUNTRYN,CREATBL,CRCLBL,EGFRBL,TBILBL,ASTBL,ALTBL,DOSEP,DVL
1,XANOMELINE,1,CDISCPILOT01,1,01-710-1002,1002,1002,1002,710,710,1,-0.5,-0.5,0,0,0,2,0,XAN,Pharmacokinetic concentration of Xanomeline,1,1,0,ug/ml,0,0.01,Y,1,,54,0,0,PATCH,3,TRANSDERMAL,3,1,Xanomeline Low Dose,2014-01-13T23:30:00,70.31,165.1,25.7942527719375,1.795687813129616,88,M,1,WHITE,5,NOT HISPANIC OR LATINO,2,USA,United States of America,235,123.75999999999999,36.336680672268905,48.35650892092162,11.969999999999999,20,14,54,
2,XANOMELINE,1,CDISCPILOT01,1,01-710-1002,1002,1002,1002,710,710,2,0,0,0,0,1,1,,DOSE,Xanomeline Patch Dose,2,2,,,1,,N,0,54,54,1,1,PATCH,3,TRANSDERMAL,3,1,Xanomeline Low Dose,2014-01-14T00:00:00,70.31,165.1,25.7942527719375,1.795687813129616,88,M,1,WHITE,5,NOT HISPANIC OR LATINO,2,USA,United States of America,235,123.75999999999999,36.336680672268905,48.35650892092162,11.969999999999999,20,14,54,
3,XANOMELINE,1,CDISCPILOT01,1,01-710-1002,1002,1002,1002,710,710,3,0.08333333333333333,0.08333333333333333,0.08333333333333333,0.08333333333333333,0,2,0.1054968835284415,XAN,Pharmacokinetic concentration of Xanomeline,1,3,0.1054968835284415,ug/ml,0,0.01,N,0,,54,0,0,PATCH,3,TRANSDERMAL,3,1,Xanomeline Low Dose,2014-01-14T00:05:00,70.31,165.1,25.7942527719375,1.795687813129616,88,M,1,WHITE,5,NOT HISPANIC OR LATINO,2,USA,United States of America,235,123.75999999999999,36.336680672268905,48.35650892092162,11.969999999999999,20,14,54,-2.249073866517103
4,XANOMELINE,1,CDISCPILOT01,1,01-710-1002,1002,1002,1002,710,710,4,0.5,0.5,0.5,0.5,0,2,0.5700370105953074,XAN,Pharmacokinetic concentration of Xanomeline,1,4,0.5700370105953074,ug/ml,0,0.01,N,0,,54,0,0,PATCH,3,TRANSDERMAL,3,1,Xanomeline Low Dose,2014-01-14T00:30:00,70.31,165.1,25.7942527719375,1.795687813129616,88,M,1,WHITE,5,NOT HISPANIC OR LATINO,2,USA,United States of America,235,123.75999999999999,36.336680672268905,48.35650892092162,11.969999999999999,20,14,54,-0.5620539893924984
5,XANOMELINE,1,CDISCPILOT01,1,01-710-1002,1002,1002,1002,710,710,5,1,1,1,1,0,2,0.9681276804105233,XAN,Pharmacokinetic concentration of Xanomeline,1,5,0.9681276804105233,ug/ml,0,0.01,N,0,,54,0,0,PATCH,3,TRANSDERMAL,3,1,Xanomeline Low Dose,2014-01-14T01:00:00,70.31,165.1,25.7942527719375,1.795687813129616,88,M,1,WHITE,5,NOT HISPANIC OR LATINO,2,USA,United States of America,235,123.75999999999999,36.336680672268905,48.35650892092162,11.969999999999999,20,14,54,-0.032391299153224494
6,XANOMELINE,1,CDISCPILOT01,1,01-710-1002,1002,1002,1002,710,710,6,1.5,1.5,1.5,1.5,0,2,1.2461380173681638,XAN,Pharmacokinetic concentration of Xanomeline,1,6,1.2461380173681638,ug/ml,0,0.01,N,0,,54,0,0,PATCH,3,TRANSDERMAL,3,1,Xanomeline Low Dose,2014-01-14T01:30:00,70.31,165.1,25.7942527719375,1.795687813129616,88,M,1,WHITE,5,NOT HISPANIC OR LATINO,2,USA,United States of America,235,123.75999999999999,36.336680672268905,48.35650892092162,11.969999999999999,20,14,54,0.22004918258416178
7,XANOMELINE,1,CDISCPILOT01,1,01-710-1002,1002,1002,1002,710,710,7,2,2,2,2,0,2,1.4402891324675877,XAN,Pharmacokinetic concentration of Xanomeline,1,7,1.4402891324675877,ug/ml,0,0.01,N,0,,54,0,0,PATCH,3,TRANSDERMAL,3,1,Xanomeline Low Dose,2014-01-14T02:00:00,70.31,165.1,25.7942527719375,1.795687813129616,88,M,1,WHITE,5,NOT HISPANIC OR LATINO,2,USA,United States of America,235,123.75999999999999,36.336680672268905,48.35650892092162,11.969999999999999,20,14,54,0.3648438798688355
8,XANOMELINE,1,CDISCPILOT01,1,01-710-1002,1002,1002,1002,710,710,8,4,4,4,4,0,2,1.7828718611974579,XAN,Pharmacokinetic concentration of Xanomeline,1,8,1.7828718611974579,ug/ml,0,0.01,N,0,,54,0,0,PATCH,3,TRANSDERMAL,3,1,Xanomeline Low Dose,2014-01-14T04:00:00,70.31,165.1,25.7942527719375,1.795687813129616,88,M,1,WHITE,5,NOT HISPANIC OR LATINO,2,USA,United States of America,235,123.75999999999999,36.336680672268905,48.35650892092162,11.969999999999999,20,14,54,0.5782254693312354
9,XANOMELINE,1,CDISCPILOT01,1,01-710-1002,1002,1002,1002,710,710,9,6,6,6,6,0,2,1.8643575319411725,XAN,Pharmacokinetic concentration of Xanomeline,1,9,1.8643575319411725,ug/ml,0,0.01,N,0,,54,0,0,PATCH,3,TRANSDERMAL,3,1,Xanomeline Low Dose,2014-01-14T06:00:00,70.31,165.1,25.7942527719375,1.795687813129616,88,M,1,WHITE,5,NOT HISPANIC OR LATINO,2,USA,United States of America,235,123.75999999999999,36.336680672268905,48.35650892092162,11.969999999999999,20,14,54,0.6229165068517244
10,XANOMELINE,1,CDISCPILOT01,1,01-710-1002,1002,1002,1002,710,710,10,6,6,3,3,0,3,25.77350622690152,XAN,Pharmacokinetic concentration of Xanomeline,1,10,25.77350622690152,ug/ml,0,0.01,N,0,,54,0,0,PATCH,3,TRANSDERMAL,3,1,Xanomeline Low Dose,2014-01-14T06:00:00,70.31,165.1,25.7942527719375,1.795687813129616,88,M,1,WHITE,5,NOT HISPANIC OR LATINO,2,USA,United States of America,235,123.75999999999999,36.336680672268905,48.35650892092162,11.969999999999999,20,14,54,3.2493470738841888
11,XANOMELINE,1,CDISCPILOT01,1,01-710-1002,1002,1002,1002,710,710,11,8,8,8,8,0,2,1.8837394621428805,XAN,Pharmacokinetic concentration of Xanomeline,1,11,1.8837394621428805,ug/ml,0,0.01,N,0,,54,0,0,PATCH,3,TRANSDERMAL,3,1,Xanomeline Low Dose,2014-01-14T08:00:00,70.31,165.1,25.7942527719375,1.795687813129616,88,M,1,WHITE,5,NOT HISPANIC OR LATINO,2,USA,United States of America,235,123.75999999999999,36.336680672268905,48.35650892092162,11.969999999999999,20,14,54,0.6332588768581863
12,XANOMELINE,1,CDISCPILOT01,1,01-710-1002,1002,1002,1002,710,710,12,12,12,12,12,0,2,0.5429821298350845,XAN,Pharmacokinetic concentration of Xanomeline,1,12,0.5429821298350845,ug/ml,0,0.01,N,0,,54,0,0,PATCH,3,TRANSDERMAL,3,1,Xanomeline Low Dose,2014-01-14T12:00:00,70.31,165.1,25.7942527719375,1.795687813129616,88,M,1,WHITE,5,NOT HISPANIC OR LATINO,2,USA,United States of America,235,123.75999999999999,36.336680672268905,48.35650892092162,11.969999999999999,20,14,54,-0.6106788696540507
13,XANOMELINE,1,CDISCPILOT01,1,01-710-1002,1002,1002,1002,710,710,13,12,12,9,9,0,3,21.46524826716501,XAN,Pharmacokinetic concentration of Xanomeline,1,13,21.46524826716501,ug/ml,0,0.01,N,0,,54,0,0,PATCH,3,TRANSDERMAL,3,1,Xanomeline Low Dose,2014-01-14T12:00:00,70.31,165.1,25.7942527719375,1.795687813129616,88,M,1,WHITE,5,NOT HISPANIC OR LATINO,2,USA,United States of America,235,123.75999999999999,36.336680672268905,48.35650892092162,11.969999999999999,20,14,54,3.066435267748235
14,XANOMELINE,1,CDISCPILOT01,1,01-710-1002,1002,1002,1002,710,710,14,16,16,16,16,0,2,0.15601196381147497,XAN,Pharmacokinetic concentration of Xanomeline,1,14,0.15601196381147497,ug/ml,0,0.01,N,0,,54,0,0,PATCH,3,TRANSDERMAL,3,1,Xanomeline Low Dose,2014-01-14T16:00:00,70.31,165.1,25.7942527719375,1.795687813129616,88,M,1,WHITE,5,NOT HISPANIC OR LATINO,2,USA,United States of America,235,123.75999999999999,36.336680672268905,48.35650892092162,11.969999999999999,20,14,54,-1.8578225835740134
15,XANOMELINE,1,CDISCPILOT01,1,01-710-1002,1002,1002,1002,710,710,15,24,24,24,24,0,2,0.012879607769941187,XAN,Pharmacokinetic concentration of Xanomeline,1,15,0.012879607769941187,ug/ml,0,0.01,N,0,,54,0,0,PATCH,3,TRANSDERMAL,3,1,Xanomeline Low Dose,2014-01-15T00:00:00,70.31,165.1,25.7942527719375,1.795687813129616,88,M,1,WHITE,5,NOT HISPANIC OR LATINO,2,USA,United States of America,235,123.75999999999999,36.336680672268905,48.35650892092162,11.969999999999999,20,14,54,-4.352110011413939
16,XANOMELINE,1,CDISCPILOT01,1,01-710-1002,1002,1002,1002,710,710,16,24,24,18,18,0,3,12.848732347691989,XAN,Pharmacokinetic concentration of Xanomeline,1,16,12.848732347691989,ug/ml,0,0.01,N,0,,54,0,0,PATCH,3,TRANSDERMAL,3,1,Xanomeline Low Dose,2014-01-15T00:00:00,70.31,165.1,25.7942527719375,1.795687813129616,88,M,1,WHITE,5,NOT HISPANIC OR LATINO,2,USA,United States of America,235,123.75999999999999,36.336680672268905,48.35650892092162,11.969999999999999,20,14,54,2.5532451564899397
17,XANOMELINE,1,CDISCPILOT01,1,01-710-1002,1002,1002,1002,710,710,17,24,0,24,0,1,1,,DOSE,Xanomeline Patch Dose,2,17,,,1,,N,0,54,54,1,1,PATCH,3,TRANSDERMAL,3,1,Xanomeline Low Dose,2014-01-15T00:00:00,70.31,165.1,25.7942527719375,1.795687813129616,88,M,1,WHITE,5,NOT HISPANIC OR LATINO,2,USA,United States of America,235,123.75999999999999,36.336680672268905,48.35650892092162,11.969999999999999,20,14,54,
18,XANOMELINE,1,CDISCPILOT01,1,01-710-1002,1002,1002,1002,710,710,18,36,12,36,12,0,2,,XAN,Pharmacokinetic concentration of Xanomeline,1,18,,ug/ml,1,0.01,Y,1,,54,0,0,PATCH,3,TRANSDERMAL,3,1,Xanomeline Low Dose,2014-01-15T12:00:00,70.31,165.1,25.7942527719375,1.795687813129616,88,M,1,WHITE,5,NOT HISPANIC OR LATINO,2,USA,United States of America,235,123.75999999999999,36.336680672268905,48.35650892092162,11.969999999999999,20,14,54,
19,XANOMELINE,1,CDISCPILOT01,1,01-710-1002,1002,1002,1002,710,710,19,48,24,48,24,0,2,,XAN,Pharmacokinetic concentration of Xanomeline,1,19,,ug/ml,1,0.01,Y,1,,54,0,0,PATCH,3,TRANSDERMAL,3,1,Xanomeline Low Dose,2014-01-16T00:00:00,70.31,165.1,25.7942527719375,1.795687813129616,88,M,1,WHITE,5,NOT HISPANIC OR LATINO,2,USA,United States of America,235,123.75999999999999,36.336680672268905,48.35650892092162,11.969999999999999,20,14,54,
20,XANOMELINE,1,CDISCPILOT01,1,01-710-1002,1002,1002,1002,710,710,20,48,24,36,12,0,3,,XAN,Pharmacokinetic concentration of Xanomeline,1,20,,ug/ml,1,0.01,Y,1,,54,0,0,PATCH,3,TRANSDERMAL,3,1,Xanomeline Low Dose,2014-01-16T00:00:00,70.31,165.1,25.7942527719375,1.795687813129616,88,M,1,WHITE,5,NOT HISPANIC OR LATINO,2,USA,United States of America,235,123.75999999999999,36.336680672268905,48.35650892092162,11.969999999999999,20,14,54,
21,XANOMELINE,1,CDISCPILOT01,1,01-710-1002,1002,1002,1002,710,710,21,48,0,48,0,1,1,,DOSE,Xanomeline Patch Dose,2,21,,,1,,N,0,54,54,1,1,PATCH,3,TRANSDERMAL,3,1,Xanomeline Low Dose,2014-01-16T00:00:00,70.31,165.1,25.7942527719375,1.795687813129616,88,M,1,WHITE,5,NOT HISPANIC OR LATINO,2,USA,United States of America,235,123.75999999999999,36.336680672268905,48.35650892092162,11.969999999999999,20,14,54,
22,XANOMELINE,1,CDISCPILOT01,1,01-717-1004,1004,1004,1004,717,717,22,-0.5,-0.5,0,0,0,2,0,XAN,Pharmacokinetic concentration of Xanomeline,1,1,0,ug/ml,0,0.01,Y,1,,54,0,0,PATCH,3,TRANSDERMAL,3,1,Xanomeline Low Dose,2014-01-13T23:30:00,55.79,135.89,30.212131347487436,1.4511779793594506,80,F,2,WHITE,5,NOT HISPANIC OR LATINO,2,USA,United States of America,235,88.39999999999999,39.381176470588244,56.967058124640054,6.84,24,24,54,
23,XANOMELINE,1,CDISCPILOT01,1,01-717-1004,1004,1004,1004,717,717,23,0,0,0,0,1,1,,DOSE,Xanomeline Patch Dose,2,2,,,1,,N,0,54,54,1,1,PATCH,3,TRANSDERMAL,3,1,Xanomeline Low Dose,2014-01-14T00:00:00,55.79,135.89,30.212131347487436,1.4511779793594506,80,F,2,WHITE,5,NOT HISPANIC OR LATINO,2,USA,United States of America,235,88.39999999999999,39.381176470588244,56.967058124640054,6.84,24,24,54,
24,XANOMELINE,1,CDISCPILOT01,1,01-717-1004,1004,1004,1004,717,717,24,0.08333333333333333,0.08333333333333333,0.08333333333333333,0.08333333333333333,0,2,0.10902769114027815,XAN,Pharmacokinetic concentration of Xanomeline,1,3,0.10902769114027815,ug/ml,0,0.01,N,0,,54,0,0,PATCH,3,TRANSDERMAL,3,1,Xanomeline Low Dose,2014-01-14T00:05:00,55.79,135.89,30.212131347487436,1.4511779793594506,80,F,2,WHITE,5,NOT HISPANIC OR LATINO,2,USA,United States of America,235,88.39999999999999,39.381176470588244,56.967058124640054,6.84,24,24,54,-2.216153381858993
25,XANOMELINE,1,CDISCPILOT01,1,01-717-1004,1004,1004,1004,717,717,25,0.5,0.5,0.5,0.5,0,2,0.5876724387070895,XAN,Pharmacokinetic concentration of Xanomeline,1,4,0.5876724387070895,ug/ml,0,0.01,N,0,,54,0,0,PATCH,3,TRANSDERMAL,3,1,Xanomeline Low Dose,2014-01-14T00:30:00,55.79,135.89,30.212131347487436,1.4511779793594506,80,F,2,WHITE,5,NOT HISPANIC OR LATINO,2,USA,United States of America,235,88.39999999999999,39.381176470588244,56.967058124640054,6.84,24,24,54,-0.5315855633373283
26,XANOMELINE,1,CDISCPILOT01,1,01-717-1004,1004,1004,1004,717,717,26,1,1,1,1,0,2,0.9955110293003914,XAN,Pharmacokinetic concentration of Xanomeline,1,5,0.9955110293003914,ug/ml,0,0.01,N,0,,54,0,0,PATCH,3,TRANSDERMAL,3,1,Xanomeline Low Dose,2014-01-14T01:00:00,55.79,135.89,30.212131347487436,1.4511779793594506,80,F,2,WHITE,5,NOT HISPANIC OR LATINO,2,USA,United States of America,235,88.39999999999999,39.381176470588244,56.967058124640054,6.84,24,24,54,-0.00449907638266342
27,XANOMELINE,1,CDISCPILOT01,1,01-717-1004,1004,1004,1004,717,717,27,1.5,1.5,1.5,1.5,0,2,1.2785467904177086,XAN,Pharmacokinetic concentration of Xanomeline,1,6,1.2785467904177086,ug/ml,0,0.01,N,0,,54,0,0,PATCH,3,TRANSDERMAL,3,1,Xanomeline Low Dose,2014-01-14T01:30:00,55.79,135.89,30.212131347487436,1.4511779793594506,80,F,2,WHITE,5,NOT HISPANIC OR LATINO,2,USA,United States of America,235,88.39999999999999,39.381176470588244,56.967058124640054,6.84,24,24,54,0.2457241129814186
28,XANOMELINE,1,CDISCPILOT01,1,01-717-1004,1004,1004,1004,717,717,28,2,2,2,2,0,2,1.4749706794732298,XAN,Pharmacokinetic concentration of Xanomeline,1,7,1.4749706794732298,ug/ml,0,0.01,N,0,,54,0,0,PATCH,3,TRANSDERMAL,3,1,Xanomeline Low Dose,2014-01-14T02:00:00,55.79,135.89,30.212131347487436,1.4511779793594506,80,F,2,WHITE,5,NOT HISPANIC OR LATINO,2,USA,United States of America,235,88.39999999999999,39.381176470588244,56.967058124640054,6.84,24,24,54,0.38863811127097264
29,XANOMELINE,1,CDISCPILOT01,1,01-717-1004,1004,1004,1004,717,717,29,4,4,4,4,0,2,1.817103993097744,XAN,Pharmacokinetic concentration of Xanomeline,1,8,1.817103993097744,ug/ml,0,0.01,N,0,,54,0,0,PATCH,3,TRANSDERMAL,3,1,Xanomeline Low Dose,2014-01-14T04:00:00,55.79,135.89,30.212131347487436,1.4511779793594506,80,F,2,WHITE,5,NOT HISPANIC OR LATINO,2,USA,United States of America,235,88.39999999999999,39.381176470588244,56.967058124640054,6.84,24,24,54,0.597244021181738
30,XANOMELINE,1,CDISCPILOT01,1,01-717-1004,1004,1004,1004,717,717,30,6,6,6,6,0,2,1.8964650311988505,XAN,Pharmacokinetic concentration of Xanomeline,1,9,1.8964650311988505,ug/ml,0,0.01,N,0,,54,0,0,PATCH,3,TRANSDERMAL,3,1,Xanomeline Low Dose,2014-01-14T06:00:00,55.79,135.89,30.212131347487436,1.4511779793594506,80,F,2,WHITE,5,NOT HISPANIC OR LATINO,2,USA,United States of America,235,88.39999999999999,39.381176470588244,56.967058124640054,6.84,24,24,54,0.6399916433788011
31,XANOMELINE,1,CDISCPILOT01,1,01-717-1004,1004,1004,1004,717,717,31,6,6,3,3,0,3,25.181305725274207,XAN,Pharmacokinetic concentration of Xanomeline,1,10,25.181305725274207,ug/ml,0,0.01,N,0,,54,0,0,PATCH,3,TRANSDERMAL,3,1,Xanomeline Low Dose,2014-01-14T06:00:00,55.79,135.89,30.212131347487436,1.4511779793594506,80,F,2,WHITE,5,NOT HISPANIC OR LATINO,2,USA,United States of America,235,88.39999999999999,39.381176470588244,56.967058124640054,6.84,24,24,54,3.2261018829220296
32,XANOMELINE,1,CDISCPILOT01,1,01-717-1004,1004,1004,1004,717,717,32,8,8,8,8,0,2,1.914873569969201,XAN,Pharmacokinetic concentration of Xanomeline,1,11,1.914873569969201,ug/ml,0,0.01,N,0,,54,0,0,PATCH,3,TRANSDERMAL,3,1,Xanomeline Low Dose,2014-01-14T08:00:00,55.79,135.89,30.212131347487436,1.4511779793594506,80,F,2,WHITE,5,NOT HISPANIC OR LATINO,2,USA,United States of America,235,88.39999999999999,39.381176470588244,56.967058124640054,6.84,24,24,54,0.6496515995493221
33,XANOMELINE,1,CDISCPILOT01,1,01-717-1004,1004,1004,1004,717,717,33,12,12,12,12,0,2,0.5398863635594102,XAN,Pharmacokinetic concentration of Xanomeline,1,12,0.5398863635594102,ug/ml,0,0.01,N,0,,54,0,0,PATCH,3,TRANSDERMAL,3,1,Xanomeline Low Dose,2014-01-14T12:00:00,55.79,135.89,30.212131347487436,1.4511779793594506,80,F,2,WHITE,5,NOT HISPANIC OR LATINO,2,USA,United States of America,235,88.39999999999999,39.381176470588244,56.967058124640054,6.84,24,24,54,-0.6163965994219128
34,XANOMELINE,1,CDISCPILOT01,1,01-717-1004,1004,1004,1004,717,717,34,12,12,9,9,0,3,20.79772695559782,XAN,Pharmacokinetic concentration of Xanomeline,1,13,20.79772695559782,ug/ml,0,0.01,N,0,,54,0,0,PATCH,3,TRANSDERMAL,3,1,Xanomeline Low Dose,2014-01-14T12:00:00,55.79,135.89,30.212131347487436,1.4511779793594506,80,F,2,WHITE,5,NOT HISPANIC OR LATINO,2,USA,United States of America,235,88.39999999999999,39.381176470588244,56.967058124640054,6.84,24,24,54,3.0348436997547967
35,XANOMELINE,1,CDISCPILOT01,1,01-717-1004,1004,1004,1004,717,717,35,16,16,16,16,0,2,0.15177684034104547,XAN,Pharmacokinetic concentration of Xanomeline,1,14,0.15177684034104547,ug/ml,0,0.01,N,0,,54,0,0,PATCH,3,TRANSDERMAL,3,1,Xanomeline Low Dose,2014-01-14T16:00:00,55.79,135.89,30.212131347487436,1.4511779793594506,80,F,2,WHITE,5,NOT HISPANIC OR LATINO,2,USA,United States of America,235,88.39999999999999,39.381176470588244,56.967058124640054,6.84,24,24,54,-1.8853439925834086
36,XANOMELINE,1,CDISCPILOT01,1,01-717-1004,1004,1004,1004,717,717,36,24,24,24,24,0,2,0.01199531911663486,XAN,Pharmacokinetic concentration of Xanomeline,1,15,0.01199531911663486,ug/ml,0,0.01,N,0,,54,0,0,PATCH,3,TRANSDERMAL,3,1,Xanomeline Low Dose,2014-01-15T00:00:00,55.79,135.89,30.212131347487436,1.4511779793594506,80,F,2,WHITE,5,NOT HISPANIC OR LATINO,2,USA,United States of America,235,88.39999999999999,39.381176470588244,56.967058124640054,6.84,24,24,54,-4.4232387789064
37,XANOMELINE,1,CDISCPILOT01,1,01-717-1004,1004,1004,1004,717,717,37,24,24,18,18,0,3,12.030569416245047,XAN,Pharmacokinetic concentration of Xanomeline,1,16,12.030569416245047,ug/ml,0,0.01,N,0,,54,0,0,PATCH,3,TRANSDERMAL,3,1,Xanomeline Low Dose,2014-01-15T00:00:00,55.79,135.89,30.212131347487436,1.4511779793594506,80,F,2,WHITE,5,NOT HISPANIC OR LATINO,2,USA,United States of America,235,88.39999999999999,39.381176470588244,56.967058124640054,6.84,24,24,54,2.4874508618876163
38,XANOMELINE,1,CDISCPILOT01,1,01-717-1004,1004,1004,1004,717,717,38,24,0,24,0,1,1,,DOSE,Xanomeline Patch Dose,2,17,,,1,,N,0,54,54,1,1,PATCH,3,TRANSDERMAL,3,1,Xanomeline Low Dose,2014-01-15T00:00:00,55.79,135.89,30.212131347487436,1.4511779793594506,80,F,2,WHITE,5,NOT HISPANIC OR LATINO,2,USA,United States of America,235,88.39999999999999,39.381176470588244,56.967058124640054,6.84,24,24,54,
39,XANOMELINE,1,CDISCPILOT01,1,01-717-1004,1004,1004,1004,717,717,39,36,12,36,12,0,2,,XAN,Pharmacokinetic concentration of Xanomeline,1,18,,ug/ml,1,0.01,Y,1,,54,0,0,PATCH,3,TRANSDERMAL,3,1,Xanomeline Low Dose,2014-01-15T12:00:00,55.79,135.89,30.212131347487436,1.4511779793594506,80,F,2,WHITE,5,NOT HISPANIC OR LATINO,2,USA,United States of America,235,88.39999999999999,39.381176470588244,56.967058124640054,6.84,24,24,54,
40,XANOMELINE,1,CDISCPILOT01,1,01-717-1004,1004,1004,1004,717,717,40,48,24,48,24,0,2,,XAN,Pharmacokinetic concentration of Xanomeline,1,19,,ug/ml,1,0.01,Y,1,,54,0,0,PATCH,3,TRANSDERMAL,3,1,Xanomeline Low Dose,2014-01-16T00:00:00,55.79,135.89,30.212131347487436,1.4511779793594506,80,F,2,WHITE,5,NOT HISPANIC OR LATINO,2,USA,United States of America,235,88.39999999999999,39.381176470588244,56.967058124640054,6.84,24,24,54,
41,XANOMELINE,1,CDISCPILOT01,1,01-717-1004,1004,1004,1004,717,717,41,48,24,36,12,0,3,,XAN,Pharmacokinetic concentration of Xanomeline,1,20,,ug/ml,1,0.01,Y,1,,54,0,0,PATCH,3,TRANSDERMAL,3,1,Xanomeline Low Dose,2014-01-16T00:00:00,55.79,135.89,30.212131347487436,1.4511779793594506,80,F,2,WHITE,5,NOT HISPANIC OR LATINO,2,USA,United States of America,235,88.39999999999999,39.381176470588244,56.967058124640054,6.84,24,24,54,
42,XANOMELINE,1,CDISCPILOT01,1,01-717-1004,1004,1004,1004,717,717,42,48,0,48,0,1,1,,DOSE,Xanomeline Patch Dose,2,21,,,1,,N,0,54,54,1,1,PATCH,3,TRANSDERMAL,3,1,Xanomeline Low Dose,2014-01-16T00:00:00,55.79,135.89,30.212131347487436,1.4511779793594506,80,F,2,WHITE,5,NOT HISPANIC OR LATINO,2,USA,United States of America,235,88.39999999999999,39.381176470588244,56.967058124640054,6.84,24,24,54,
43,XANOMELINE,1,CDISCPILOT01,1,01-710-1006,1006,1006,1006,710,710,43,-0.5,-0.5,0,0,0,2,0,XAN,Pharmacokinetic concentration of Xanomeline,1,1,0,ug/ml,0,0.01,Y,1,,54,0,0,PATCH,3,TRANSDERMAL,3,2,Xanomeline High Dose,2013-02-09T23:30:00,72.58,170.18,25.061088215292937,1.8523007015300967,77,M,1,WHITE,5,NOT HISPANIC OR LATINO,2,USA,United States of America,235,141.44,39.76402856334841,44.113923601693756,8.549999999999999,28,14,81,
44,XANOMELINE,1,CDISCPILOT01,1,01-710-1006,1006,1006,1006,710,710,44,0,0,0,0,1,1,,DOSE,Xanomeline Patch Dose,2,2,,,1,,N,0,54,54,1,1,PATCH,3,TRANSDERMAL,3,2,Xanomeline High Dose,2013-02-10T00:00:00,72.58,170.18,25.061088215292937,1.8523007015300967,77,M,1,WHITE,5,NOT HISPANIC OR LATINO,2,USA,United States of America,235,141.44,39.76402856334841,44.113923601693756,8.549999999999999,28,14,81,
45,XANOMELINE,1,CDISCPILOT01,1,01-710-1006,1006,1006,1006,710,710,45,0.08333333333333333,0.08333333333333333,0.08333333333333333,0.08333333333333333,0,2,0.1074435739303217,XAN,Pharmacokinetic concentration of Xanomeline,1,3,0.1074435739303217,ug/ml,0,0.01,N,0,,54,0,0,PATCH,3,TRANSDERMAL,3,2,Xanomeline High Dose,2013-02-10T00:05:00,72.58,170.18,25.061088215292937,1.8523007015300967,77,M,1,WHITE,5,NOT HISPANIC OR LATINO,2,USA,United States of America,235,141.44,39.76402856334841,44.113923601693756,8.549999999999999,28,14,81,-2.230789462890753
46,XANOMELINE,1,CDISCPILOT01,1,01-710-1006,1006,1006,1006,710,710,46,0.5,0.5,0.5,0.5,0,2,0.5806372495705047,XAN,Pharmacokinetic concentration of Xanomeline,1,4,0.5806372495705047,ug/ml,0,0.01,N,0,,54,0,0,PATCH,3,TRANSDERMAL,3,2,Xanomeline High Dose,2013-02-10T00:30:00,72.58,170.18,25.061088215292937,1.8523007015300967,77,M,1,WHITE,5,NOT HISPANIC OR LATINO,2,USA,United States of America,235,141.44,39.76402856334841,44.113923601693756,8.549999999999999,28,14,81,-0.5436290724214992
47,XANOMELINE,1,CDISCPILOT01,1,01-710-1006,1006,1006,1006,710,710,47,1,1,1,1,0,2,0.986276470896335,XAN,Pharmacokinetic concentration of Xanomeline,1,5,0.986276470896335,ug/ml,0,0.01,N,0,,54,0,0,PATCH,3,TRANSDERMAL,3,2,Xanomeline High Dose,2013-02-10T01:00:00,72.58,170.18,25.061088215292937,1.8523007015300967,77,M,1,WHITE,5,NOT HISPANIC OR LATINO,2,USA,United States of America,235,141.44,39.76402856334841,44.113923601693756,8.549999999999999,28,14,81,-0.013818567236651163
48,XANOMELINE,1,CDISCPILOT01,1,01-710-1006,1006,1006,1006,710,710,48,1.5,1.5,1.5,1.5,0,2,1.2696602496661915,XAN,Pharmacokinetic concentration of Xanomeline,1,6,1.2696602496661915,ug/ml,0,0.01,N,0,,54,0,0,PATCH,3,TRANSDERMAL,3,2,Xanomeline High Dose,2013-02-10T01:30:00,72.58,170.18,25.061088215292937,1.8523007015300967,77,M,1,WHITE,5,NOT HISPANIC OR LATINO,2,USA,United States of America,235,141.44,39.76402856334841,44.113923601693756,8.549999999999999,28,14,81,0.23874934473277482
49,XANOMELINE,1,CDISCPILOT01,1,01-710-1006,1006,1006,1006,710,710,49,2,2,2,2,0,2,1.4676351047785798,XAN,Pharmacokinetic concentration of Xanomeline,1,7,1.4676351047785798,ug/ml,0,0.01,N,0,,54,0,0,PATCH,3,TRANSDERMAL,3,2,Xanomeline High Dose,2013-02-10T02:00:00,72.58,170.18,25.061088215292937,1.8523007015300967,77,M,1,WHITE,5,NOT HISPANIC OR LATINO,2,USA,United States of America,235,141.44,39.76402856334841,44.113923601693756,8.549999999999999,28,14,81,0.3836523330674936
50,XANOMELINE,1,CDISCPILOT01,1,01-710-1006,1006,1006,1006,710,710,50,4,4,4,4,0,2,1.8172245227279404,XAN,Pharmacokinetic concentration of Xanomeline,1,8,1.8172245227279404,ug/ml,0,0.01,N,0,,54,0,0,PATCH,3,TRANSDERMAL,3,2,Xanomeline High Dose,2013-02-10T04:00:00,72.58,170.18,25.061088215292937,1.8523007015300967,77,M,1,WHITE,5,NOT HISPANIC OR LATINO,2,USA,United States of America,235,141.44,39.76402856334841,44.113923601693756,8.549999999999999,28,14,81,0.5973103495996098
51,XANOMELINE,1,CDISCPILOT01,1,01-710-1006,1006,1006,1006,710,710,51,6,6,6,6,0,2,1.9004964209976476,XAN,Pharmacokinetic concentration of Xanomeline,1,9,1.9004964209976476,ug/ml,0,0.01,N,0,,54,0,0,PATCH,3,TRANSDERMAL,3,2,Xanomeline High Dose,2013-02-10T06:00:00,72.58,170.18,25.061088215292937,1.8523007015300967,77,M,1,WHITE,5,NOT HISPANIC OR LATINO,2,USA,United States of America,235,141.44,39.76402856334841,44.113923601693756,8.549999999999999,28,14,81,0.6421151262555208
52,XANOMELINE,1,CDISCPILOT01,1,01-710-1006,1006,1006,1006,710,710,52,6,6,3,3,0,3,25.8079662508997,XAN,Pharmacokinetic concentration of Xanomeline,1,10,25.8079662508997,ug/ml,0,0.01,N,0,,54,0,0,PATCH,3,TRANSDERMAL,3,2,Xanomeline High Dose,2013-02-10T06:00:00,72.58,170.18,25.061088215292937,1.8523007015300967,77,M,1,WHITE,5,NOT HISPANIC OR LATINO,2,USA,United States of America,235,141.44,39.76402856334841,44.113923601693756,8.549999999999999,28,14,81,3.2506832136828234
53,XANOMELINE,1,CDISCPILOT01,1,01-710-1006,1006,1006,1006,710,710,53,8,8,8,8,0,2,1.9203317154471062,XAN,Pharmacokinetic concentration of Xanomeline,1,11,1.9203317154471062,ug/ml,0,0.01,N,0,,54,0,0,PATCH,3,TRANSDERMAL,3,2,Xanomeline High Dose,2013-02-10T08:00:00,72.58,170.18,25.061088215292937,1.8523007015300967,77,M,1,WHITE,5,NOT HISPANIC OR LATINO,2,USA,United States of America,235,141.44,39.76402856334841,44.113923601693756,8.549999999999999,28,14,81,0.6524979395789727
54,XANOMELINE,1,CDISCPILOT01,1,01-710-1006,1006,1006,1006,710,710,54,12,12,12,12,0,2,0.5542315614059441,XAN,Pharmacokinetic concentration of Xanomeline,1,12,0.5542315614059441,ug/ml,0,0.01,N,0,,54,0,0,PATCH,3,TRANSDERMAL,3,2,Xanomeline High Dose,2013-02-10T12:00:00,72.58,170.18,25.061088215292937,1.8523007015300967,77,M,1,WHITE,5,NOT HISPANIC OR LATINO,2,USA,United States of America,235,141.44,39.76402856334841,44.113923601693756,8.549999999999999,28,14,81,-0.5901726986873708
55,XANOMELINE,1,CDISCPILOT01,1,01-710-1006,1006,1006,1006,710,710,55,12,12,9,9,0,3,21.504021537649898,XAN,Pharmacokinetic concentration of Xanomeline,1,13,21.504021537649898,ug/ml,0,0.01,N,0,,54,0,0,PATCH,3,TRANSDERMAL,3,2,Xanomeline High Dose,2013-02-10T12:00:00,72.58,170.18,25.061088215292937,1.8523007015300967,77,M,1,WHITE,5,NOT HISPANIC OR LATINO,2,USA,United States of America,235,141.44,39.76402856334841,44.113923601693756,8.549999999999999,28,14,81,3.068239965905058
56,XANOMELINE,1,CDISCPILOT01,1,01-710-1006,1006,1006,1006,710,710,56,16,16,16,16,0,2,0.15944315347543941,XAN,Pharmacokinetic concentration of Xanomeline,1,14,0.15944315347543941,ug/ml,0,0.01,N,0,,54,0,0,PATCH,3,TRANSDERMAL,3,2,Xanomeline High Dose,2013-02-10T16:00:00,72.58,170.18,25.061088215292937,1.8523007015300967,77,M,1,WHITE,5,NOT HISPANIC OR LATINO,2,USA,United States of America,235,141.44,39.76402856334841,44.113923601693756,8.549999999999999,28,14,81,-1.8360678248271312
57,XANOMELINE,1,CDISCPILOT01,1,01-710-1006,1006,1006,1006,710,710,57,24,24,24,24,0,2,0.01319578158833427,XAN,Pharmacokinetic concentration of Xanomeline,1,15,0.01319578158833427,ug/ml,0,0.01,N,0,,54,0,0,PATCH,3,TRANSDERMAL,3,2,Xanomeline High Dose,2013-02-11T00:00:00,72.58,170.18,25.061088215292937,1.8523007015300967,77,M,1,WHITE,5,NOT HISPANIC OR LATINO,2,USA,United States of America,235,141.44,39.76402856334841,44.113923601693756,8.549999999999999,28,14,81,-4.327858077106652
58,XANOMELINE,1,CDISCPILOT01,1,01-710-1006,1006,1006,1006,710,710,58,24,24,18,18,0,3,12.896132111150294,XAN,Pharmacokinetic concentration of Xanomeline,1,16,12.896132111150294,ug/ml,0,0.01,N,0,,54,0,0,PATCH,3,TRANSDERMAL,3,2,Xanomeline High Dose,2013-02-11T00:00:00,72.58,170.18,25.061088215292937,1.8523007015300967,77,M,1,WHITE,5,NOT HISPANIC OR LATINO,2,USA,United States of America,235,141.44,39.76402856334841,44.113923601693756,8.549999999999999,28,14,81,2.556927430062784
59,XANOMELINE,1,CDISCPILOT01,1,01-710-1006,1006,1006,1006,710,710,59,24,0,24,0,1,1,,DOSE,Xanomeline Patch Dose,2,17,,,1,,N,0,54,54,1,1,PATCH,3,TRANSDERMAL,3,2,Xanomeline High Dose,2013-02-11T00:00:00,72.58,170.18,25.061088215292937,1.8523007015300967,77,M,1,WHITE,5,NOT HISPANIC OR LATINO,2,USA,United States of America,235,141.44,39.76402856334841,44.113923601693756,8.549999999999999,28,14,81,
60,XANOMELINE,1,CDISCPILOT01,1,01-710-1006,1006,1006,1006,710,710,60,36,12,36,12,0,2,,XAN,Pharmacokinetic concentration of Xanomeline,1,18,,ug/ml,1,0.01,Y,1,,54,0,0,PATCH,3,TRANSDERMAL,3,2,Xanomeline High Dose,2013-02-11T12:00:00,72.58,170.18,25.061088215292937,1.8523007015300967,77,M,1,WHITE,5,NOT HISPANIC OR LATINO,2,USA,United States of America,235,141.44,39.76402856334841,44.113923601693756,8.549999999999999,28,14,81,
61,XANOMELINE,1,CDISCPILOT01,1,01-710-1006,1006,1006,1006,710,710,61,48,24,48,24,0,2,,XAN,Pharmacokinetic concentration of Xanomeline,1,19,,ug/ml,1,0.01,Y,1,,54,0,0,PATCH,3,TRANSDERMAL,3,2,Xanomeline High Dose,2013-02-12T00:00:00,72.58,170.18,25.061088215292937,1.8523007015300967,77,M,1,WHITE,5,NOT HISPANIC OR LATINO,2,USA,United States of America,235,141.44,39.76402856334841,44.113923601693756,8.549999999999999,28,14,81,
62,XANOMELINE,1,CDISCPILOT01,1,01-710-1006,1006,1006,1006,710,710,62,48,24,36,12,0,3,,XAN,Pharmacokinetic concentration of Xanomeline,1,20,,ug/ml,1,0.01,Y,1,,54,0,0,PATCH,3,TRANSDERMAL,3,2,Xanomeline High Dose,2013-02-12T00:00:00,72.58,170.18,25.061088215292937,1.8523007015300967,77,M,1,WHITE,5,NOT HISPANIC OR LATINO,2,USA,United States of America,235,141.44,39.76402856334841,44.113923601693756,8.549999999999999,28,14,81,
63,XANOMELINE,1,CDISCPILOT01,1,01-710-1006,1006,1006,1006,710,710,63,48,0,48,0,1,1,,DOSE,Xanomeline Patch Dose,2,21,,,1,,N,0,54,54,1,1,PATCH,3,TRANSDERMAL,3,2,Xanomeline High Dose,2013-02-12T00:00:00,72.58,170.18,25.061088215292937,1.8523007015300967,77,M,1,WHITE,5,NOT HISPANIC OR LATINO,2,USA,United States of America,235,141.44,39.76402856334841,44.113923601693756,8.549999999999999,28,14,81,
64,XANOMELINE,1,CDISCPILOT01,1,01-709-1007,1007,1007,1007,709,709,64,-0.5,-0.5,0,0,0,2,0,XAN,Pharmacokinetic concentration of Xanomeline,1,1,0,ug/ml,0,0.01,Y,1,,54,0,0,PATCH,3,TRANSDERMAL,3,1,Xanomeline Low Dose,2012-07-30T23:30:00,59.88,158.75,23.760431520863044,1.6249743587720598,54,F,2,WHITE,5,NOT HISPANIC OR LATINO,2,USA,United States of America,235,106.08,50.487058823529416,53.806221413665575,8.549999999999999,20,18,54,
65,XANOMELINE,1,CDISCPILOT01,1,01-709-1007,1007,1007,1007,709,709,65,0,0,0,0,1,1,,DOSE,Xanomeline Patch Dose,2,2,,,1,,N,0,54,54,1,1,PATCH,3,TRANSDERMAL,3,1,Xanomeline Low Dose,2012-07-31T00:00:00,59.88,158.75,23.760431520863044,1.6249743587720598,54,F,2,WHITE,5,NOT HISPANIC OR LATINO,2,USA,United States of America,235,106.08,50.487058823529416,53.806221413665575,8.549999999999999,20,18,54,
66,XANOMELINE,1,CDISCPILOT01,1,01-709-1007,1007,1007,1007,709,709,66,0.08333333333333333,0.08333333333333333,0.08333333333333333,0.08333333333333333,0,2,0.09577681555613855,XAN,Pharmacokinetic concentration of Xanomeline,1,3,0.09577681555613855,ug/ml,0,0.01,N,0,,54,0,0,PATCH,3,TRANSDERMAL,3,1,Xanomeline Low Dose,2012-07-31T00:05:00,59.88,158.75,23.760431520863044,1.6249743587720598,54,F,2,WHITE,5,NOT HISPANIC OR LATINO,2,USA,United States of America,235,106.08,50.487058823529416,53.806221413665575,8.549999999999999,20,18,54,-2.345734632102754
67,XANOMELINE,1,CDISCPILOT01,1,01-709-1007,1007,1007,1007,709,709,67,0.5,0.5,0.5,0.5,0,2,0.51998016077761,XAN,Pharmacokinetic concentration of Xanomeline,1,4,0.51998016077761,ug/ml,0,0.01,N,0,,54,0,0,PATCH,3,TRANSDERMAL,3,1,Xanomeline Low Dose,2012-07-31T00:30:00,59.88,158.75,23.760431520863044,1.6249743587720598,54,F,2,WHITE,5,NOT HISPANIC OR LATINO,2,USA,United States of America,235,106.08,50.487058823529416,53.806221413665575,8.549999999999999,20,18,54,-0.6539646204852334
68,XANOMELINE,1,CDISCPILOT01,1,01-709-1007,1007,1007,1007,709,709,68,1,1,1,1,0,2,0.8875470799985202,XAN,Pharmacokinetic concentration of Xanomeline,1,5,0.8875470799985202,ug/ml,0,0.01,N,0,,54,0,0,PATCH,3,TRANSDERMAL,3,1,Xanomeline Low Dose,2012-07-31T01:00:00,59.88,158.75,23.760431520863044,1.6249743587720598,54,F,2,WHITE,5,NOT HISPANIC OR LATINO,2,USA,United States of America,235,106.08,50.487058823529416,53.806221413665575,8.549999999999999,20,18,54,-0.11929371115389892
69,XANOMELINE,1,CDISCPILOT01,1,01-709-1007,1007,1007,1007,709,709,69,1.5,1.5,1.5,1.5,0,2,1.1473751470992075,XAN,Pharmacokinetic concentration of Xanomeline,1,6,1.1473751470992075,ug/ml,0,0.01,N,0,,54,0,0,PATCH,3,TRANSDERMAL,3,1,Xanomeline Low Dose,2012-07-31T01:30:00,59.88,158.75,23.760431520863044,1.6249743587720598,54,F,2,WHITE,5,NOT HISPANIC OR LATINO,2,USA,United States of America,235,106.08,50.487058823529416,53.806221413665575,8.549999999999999,20,18,54,0.13747685276210597
70,XANOMELINE,1,CDISCPILOT01,1,01-709-1007,1007,1007,1007,709,709,70,2,2,2,2,0,2,1.3310440817149065,XAN,Pharmacokinetic concentration of Xanomeline,1,7,1.3310440817149065,ug/ml,0,0.01,N,0,,54,0,0,PATCH,3,TRANSDERMAL,3,1,Xanomeline Low Dose,2012-07-31T02:00:00,59.88,158.75,23.760431520863044,1.6249743587720598,54,F,2,WHITE,5,NOT HISPANIC OR LATINO,2,USA,United States of America,235,106.08,50.487058823529416,53.806221413665575,8.549999999999999,20,18,54,0.2859636581094029
71,XANOMELINE,1,CDISCPILOT01,1,01-709-1007,1007,1007,1007,709,709,71,4,4,4,4,0,2,1.6633905100991393,XAN,Pharmacokinetic concentration of Xanomeline,1,8,1.6633905100991393,ug/ml,0,0.01,N,0,,54,0,0,PATCH,3,TRANSDERMAL,3,1,Xanomeline Low Dose,2012-07-31T04:00:00,59.88,158.75,23.760431520863044,1.6249743587720598,54,F,2,WHITE,5,NOT HISPANIC OR LATINO,2,USA,United States of America,235,106.08,50.487058823529416,53.806221413665575,8.549999999999999,20,18,54,0.5088579953136192
72,XANOMELINE,1,CDISCPILOT01,1,01-709-1007,1007,1007,1007,709,709,72,6,6,6,6,0,2,1.7463735983207165,XAN,Pharmacokinetic concentration of Xanomeline,1,9,1.7463735983207165,ug/ml,0,0.01,N,0,,54,0,0,PATCH,3,TRANSDERMAL,3,1,Xanomeline Low Dose,2012-07-31T06:00:00,59.88,158.75,23.760431520863044,1.6249743587720598,54,F,2,WHITE,5,NOT HISPANIC OR LATINO,2,USA,United States of America,235,106.08,50.487058823529416,53.806221413665575,8.549999999999999,20,18,54,0.5575414083660267
73,XANOMELINE,1,CDISCPILOT01,1,01-709-1007,1007,1007,1007,709,709,73,6,6,3,3,0,3,26.97159077949109,XAN,Pharmacokinetic concentration of Xanomeline,1,10,26.97159077949109,ug/ml,0,0.01,N,0,,54,0,0,PATCH,3,TRANSDERMAL,3,1,Xanomeline Low Dose,2012-07-31T06:00:00,59.88,158.75,23.760431520863044,1.6249743587720598,54,F,2,WHITE,5,NOT HISPANIC OR LATINO,2,USA,United States of America,235,106.08,50.487058823529416,53.806221413665575,8.549999999999999,20,18,54,3.294784118708117
74,XANOMELINE,1,CDISCPILOT01,1,01-709-1007,1007,1007,1007,709,709,74,8,8,8,8,0,2,1.7670935229014273,XAN,Pharmacokinetic concentration of Xanomeline,1,11,1.7670935229014273,ug/ml,0,0.01,N,0,,54,0,0,PATCH,3,TRANSDERMAL,3,1,Xanomeline Low Dose,2012-07-31T08:00:00,59.88,158.75,23.760431520863044,1.6249743587720598,54,F,2,WHITE,5,NOT HISPANIC OR LATINO,2,USA,United States of America,235,106.08,50.487058823529416,53.806221413665575,8.549999999999999,20,18,54,0.5693361194420006
75,XANOMELINE,1,CDISCPILOT01,1,01-709-1007,1007,1007,1007,709,709,75,12,12,12,12,0,2,0.5316578129141862,XAN,Pharmacokinetic concentration of Xanomeline,1,12,0.5316578129141862,ug/ml,0,0.01,N,0,,54,0,0,PATCH,3,TRANSDERMAL,3,1,Xanomeline Low Dose,2012-07-31T12:00:00,59.88,158.75,23.760431520863044,1.6249743587720598,54,F,2,WHITE,5,NOT HISPANIC OR LATINO,2,USA,United States of America,235,106.08,50.487058823529416,53.806221413665575,8.549999999999999,20,18,54,-0.6317552053959437
76,XANOMELINE,1,CDISCPILOT01,1,01-709-1007,1007,1007,1007,709,709,76,12,12,9,9,0,3,22.808967619857142,XAN,Pharmacokinetic concentration of Xanomeline,1,13,22.808967619857142,ug/ml,0,0.01,N,0,,54,0,0,PATCH,3,TRANSDERMAL,3,1,Xanomeline Low Dose,2012-07-31T12:00:00,59.88,158.75,23.760431520863044,1.6249743587720598,54,F,2,WHITE,5,NOT HISPANIC OR LATINO,2,USA,United States of America,235,106.08,50.487058823529416,53.806221413665575,8.549999999999999,20,18,54,3.1271537752920744
77,XANOMELINE,1,CDISCPILOT01,1,01-709-1007,1007,1007,1007,709,709,77,16,16,16,16,0,2,0.15933586877517866,XAN,Pharmacokinetic concentration of Xanomeline,1,14,0.15933586877517866,ug/ml,0,0.01,N,0,,54,0,0,PATCH,3,TRANSDERMAL,3,1,Xanomeline Low Dose,2012-07-31T16:00:00,59.88,158.75,23.760431520863044,1.6249743587720598,54,F,2,WHITE,5,NOT HISPANIC OR LATINO,2,USA,United States of America,235,106.08,50.487058823529416,53.806221413665575,8.549999999999999,20,18,54,-1.8367409224704694
78,XANOMELINE,1,CDISCPILOT01,1,01-709-1007,1007,1007,1007,709,709,78,24,24,24,24,0,2,0.01431120679592892,XAN,Pharmacokinetic concentration of Xanomeline,1,15,0.01431120679592892,ug/ml,0,0.01,N,0,,54,0,0,PATCH,3,TRANSDERMAL,3,1,Xanomeline Low Dose,2012-08-01T00:00:00,59.88,158.75,23.760431520863044,1.6249743587720598,54,F,2,WHITE,5,NOT HISPANIC OR LATINO,2,USA,United States of America,235,106.08,50.487058823529416,53.806221413665575,8.549999999999999,20,18,54,-4.246712356619521
79,XANOMELINE,1,CDISCPILOT01,1,01-709-1007,1007,1007,1007,709,709,79,24,24,18,18,0,3,14.483721300589245,XAN,Pharmacokinetic concentration of Xanomeline,1,16,14.483721300589245,ug/ml,0,0.01,N,0,,54,0,0,PATCH,3,TRANSDERMAL,3,1,Xanomeline Low Dose,2012-08-01T00:00:00,59.88,158.75,23.760431520863044,1.6249743587720598,54,F,2,WHITE,5,NOT HISPANIC OR LATINO,2,USA,United States of America,235,106.08,50.487058823529416,53.806221413665575,8.549999999999999,20,18,54,2.673025349836829
80,XANOMELINE,1,CDISCPILOT01,1,01-709-1007,1007,1007,1007,709,709,80,24,0,24,0,1,1,,DOSE,Xanomeline Patch Dose,2,17,,,1,,N,0,54,54,1,1,PATCH,3,TRANSDERMAL,3,1,Xanomeline Low Dose,2012-08-01T00:00:00,59.88,158.75,23.760431520863044,1.6249743587720598,54,F,2,WHITE,5,NOT HISPANIC OR LATINO,2,USA,United States of America,235,106.08,50.487058823529416,53.806221413665575,8.549999999999999,20,18,54,
81,XANOMELINE,1,CDISCPILOT01,1,01-709-1007,1007,1007,1007,709,709,81,36,12,36,12,0,2,,XAN,Pharmacokinetic concentration of Xanomeline,1,18,,ug/ml,1,0.01,Y,1,,54,0,0,PATCH,3,TRANSDERMAL,3,1,Xanomeline Low Dose,2012-08-01T12:00:00,59.88,158.75,23.760431520863044,1.6249743587720598,54,F,2,WHITE,5,NOT HISPANIC OR LATINO,2,USA,United States of America,235,106.08,50.487058823529416,53.806221413665575,8.549999999999999,20,18,54,
82,XANOMELINE,1,CDISCPILOT01,1,01-709-1007,1007,1007,1007,709,709,82,48,24,48,24,0,2,,XAN,Pharmacokinetic concentration of Xanomeline,1,19,,ug/ml,1,0.01,Y,1,,54,0,0,PATCH,3,TRANSDERMAL,3,1,Xanomeline Low Dose,2012-08-02T00:00:00,59.88,158.75,23.760431520863044,1.6249743587720598,54,F,2,WHITE,5,NOT HISPANIC OR LATINO,2,USA,United States of America,235,106.08,50.487058823529416,53.806221413665575,8.549999999999999,20,18,54,
83,XANOMELINE,1,CDISCPILOT01,1,01-709-1007,1007,1007,1007,709,709,83,48,24,36,12,0,3,,XAN,Pharmacokinetic concentration of Xanomeline,1,20,,ug/ml,1,0.01,Y,1,,54,0,0,PATCH,3,TRANSDERMAL,3,1,Xanomeline Low Dose,2012-08-02T00:00:00,59.88,158.75,23.760431520863044,1.6249743587720598,54,F,2,WHITE,5,NOT HISPANIC OR LATINO,2,USA,United States of America,235,106.08,50.487058823529416,53.806221413665575,8.549999999999999,20,18,54,
84,XANOMELINE,1,CDISCPILOT01,1,01-709-1007,1007,1007,1007,709,709,84,48,0,48,0,1,1,,DOSE,Xanomeline Patch Dose,2,21,,,1,,N,0,54,54,1,1,PATCH,3,TRANSDERMAL,3,1,Xanomeline Low Dose,2012-08-02T00:00:00,59.88,158.75,23.760431520863044,1.6249743587720598,54,F,2,WHITE,5,NOT HISPANIC OR LATINO,2,USA,United States of America,235,106.08,50.487058823529416,53.806221413665575,8.549999999999999,20,18,54,
85,XANOMELINE,1,CDISCPILOT01,1,01-704-1008,1008,1008,1008,704,704,85,-0.5,-0.5,0,0,0,2,0,XAN,Pharmacokinetic concentration of Xanomeline,1,1,0,ug/ml,0,0.01,Y,1,,54,0,0,PATCH,3,TRANSDERMAL,3,2,Xanomeline High Dose,2013-01-12T23:30:00,46.72,148,21.32943754565376,1.3858972224198702,76,F,2,WHITE,5,NOT HISPANIC OR LATINO,2,USA,United States of America,235,79.55999999999999,39.08601307189543,66.27302761921288,22.23,19,16,81,
86,XANOMELINE,1,CDISCPILOT01,1,01-704-1008,1008,1008,1008,704,704,86,0,0,0,0,1,1,,DOSE,Xanomeline Patch Dose,2,2,,,1,,N,0,54,54,1,1,PATCH,3,TRANSDERMAL,3,2,Xanomeline High Dose,2013-01-13T00:00:00,46.72,148,21.32943754565376,1.3858972224198702,76,F,2,WHITE,5,NOT HISPANIC OR LATINO,2,USA,United States of America,235,79.55999999999999,39.08601307189543,66.27302761921288,22.23,19,16,81,
87,XANOMELINE,1,CDISCPILOT01,1,01-704-1008,1008,1008,1008,704,704,87,0.08333333333333333,0.08333333333333333,0.08333333333333333,0.08333333333333333,0,2,0.11212621949544703,XAN,Pharmacokinetic concentration of Xanomeline,1,3,0.11212621949544703,ug/ml,0,0.01,N,0,,54,0,0,PATCH,3,TRANSDERMAL,3,2,Xanomeline High Dose,2013-01-13T00:05:00,46.72,148,21.32943754565376,1.3858972224198702,76,F,2,WHITE,5,NOT HISPANIC OR LATINO,2,USA,United States of America,235,79.55999999999999,39.08601307189543,66.27302761921288,22.23,19,16,81,-2.188130082448748
88,XANOMELINE,1,CDISCPILOT01,1,01-704-1008,1008,1008,1008,704,704,88,0.5,0.5,0.5,0.5,0,2,0.6029066976257713,XAN,Pharmacokinetic concentration of Xanomeline,1,4,0.6029066976257713,ug/ml,0,0.01,N,0,,54,0,0,PATCH,3,TRANSDERMAL,3,2,Xanomeline High Dose,2013-01-13T00:30:00,46.72,148,21.32943754565376,1.3858972224198702,76,F,2,WHITE,5,NOT HISPANIC OR LATINO,2,USA,United States of America,235,79.55999999999999,39.08601307189543,66.27302761921288,22.23,19,16,81,-0.5059928245324405
89,XANOMELINE,1,CDISCPILOT01,1,01-704-1008,1008,1008,1008,704,704,89,1,1,1,1,0,2,1.018719214291086,XAN,Pharmacokinetic concentration of Xanomeline,1,5,1.018719214291086,ug/ml,0,0.01,N,0,,54,0,0,PATCH,3,TRANSDERMAL,3,2,Xanomeline High Dose,2013-01-13T01:00:00,46.72,148,21.32943754565376,1.3858972224198702,76,F,2,WHITE,5,NOT HISPANIC OR LATINO,2,USA,United States of America,235,79.55999999999999,39.08601307189543,66.27302761921288,22.23,19,16,81,0.018546166015554626
90,XANOMELINE,1,CDISCPILOT01,1,01-704-1008,1008,1008,1008,704,704,90,1.5,1.5,1.5,1.5,0,2,1.305496670399001,XAN,Pharmacokinetic concentration of Xanomeline,1,6,1.305496670399001,ug/ml,0,0.01,N,0,,54,0,0,PATCH,3,TRANSDERMAL,3,2,Xanomeline High Dose,2013-01-13T01:30:00,46.72,148,21.32943754565376,1.3858972224198702,76,F,2,WHITE,5,NOT HISPANIC OR LATINO,2,USA,United States of America,235,79.55999999999999,39.08601307189543,66.27302761921288,22.23,19,16,81,0.2665835587125846
91,XANOMELINE,1,CDISCPILOT01,1,01-704-1008,1008,1008,1008,704,704,91,2,2,2,2,0,2,1.5032812632998507,XAN,Pharmacokinetic concentration of Xanomeline,1,7,1.5032812632998507,ug/ml,0,0.01,N,0,,54,0,0,PATCH,3,TRANSDERMAL,3,2,Xanomeline High Dose,2013-01-13T02:00:00,46.72,148,21.32943754565376,1.3858972224198702,76,F,2,WHITE,5,NOT HISPANIC OR LATINO,2,USA,United States of America,235,79.55999999999999,39.08601307189543,66.27302761921288,22.23,19,16,81,0.4076502278607152
92,XANOMELINE,1,CDISCPILOT01,1,01-704-1008,1008,1008,1008,704,704,92,4,4,4,4,0,2,1.8433995976854631,XAN,Pharmacokinetic concentration of Xanomeline,1,8,1.8433995976854631,ug/ml,0,0.01,N,0,,54,0,0,PATCH,3,TRANSDERMAL,3,2,Xanomeline High Dose,2013-01-13T04:00:00,46.72,148,21.32943754565376,1.3858972224198702,76,F,2,WHITE,5,NOT HISPANIC OR LATINO,2,USA,United States of America,235,79.55999999999999,39.08601307189543,66.27302761921288,22.23,19,16,81,0.6116114743314787
93,XANOMELINE,1,CDISCPILOT01,1,01-704-1008,1008,1008,1008,704,704,93,6,6,6,6,0,2,1.920351585453416,XAN,Pharmacokinetic concentration of Xanomeline,1,9,1.920351585453416,ug/ml,0,0.01,N,0,,54,0,0,PATCH,3,TRANSDERMAL,3,2,Xanomeline High Dose,2013-01-13T06:00:00,46.72,148,21.32943754565376,1.3858972224198702,76,F,2,WHITE,5,NOT HISPANIC OR LATINO,2,USA,United States of America,235,79.55999999999999,39.08601307189543,66.27302761921288,22.23,19,16,81,0.6525082866993954
94,XANOMELINE,1,CDISCPILOT01,1,01-704-1008,1008,1008,1008,704,704,94,6,6,3,3,0,3,24.610807578774814,XAN,Pharmacokinetic concentration of Xanomeline,1,10,24.610807578774814,ug/ml,0,0.01,N,0,,54,0,0,PATCH,3,TRANSDERMAL,3,2,Xanomeline High Dose,2013-01-13T06:00:00,46.72,148,21.32943754565376,1.3858972224198702,76,F,2,WHITE,5,NOT HISPANIC OR LATINO,2,USA,United States of America,235,79.55999999999999,39.08601307189543,66.27302761921288,22.23,19,16,81,3.2031856789305846
95,XANOMELINE,1,CDISCPILOT01,1,01-704-1008,1008,1008,1008,704,704,95,8,8,8,8,0,2,1.9377620212422895,XAN,Pharmacokinetic concentration of Xanomeline,1,11,1.9377620212422895,ug/ml,0,0.01,N,0,,54,0,0,PATCH,3,TRANSDERMAL,3,2,Xanomeline High Dose,2013-01-13T08:00:00,46.72,148,21.32943754565376,1.3858972224198702,76,F,2,WHITE,5,NOT HISPANIC OR LATINO,2,USA,United States of America,235,79.55999999999999,39.08601307189543,66.27302761921288,22.23,19,16,81,0.6615337098719113
96,XANOMELINE,1,CDISCPILOT01,1,01-704-1008,1008,1008,1008,704,704,96,12,12,12,12,0,2,0.5344963645722324,XAN,Pharmacokinetic concentration of Xanomeline,1,12,0.5344963645722324,ug/ml,0,0.01,N,0,,54,0,0,PATCH,3,TRANSDERMAL,3,2,Xanomeline High Dose,2013-01-13T12:00:00,46.72,148,21.32943754565376,1.3858972224198702,76,F,2,WHITE,5,NOT HISPANIC OR LATINO,2,USA,United States of America,235,79.55999999999999,39.08601307189543,66.27302761921288,22.23,19,16,81,-0.6264303500888443
97,XANOMELINE,1,CDISCPILOT01,1,01-704-1008,1008,1008,1008,704,704,97,12,12,9,9,0,3,20.152471856350722,XAN,Pharmacokinetic concentration of Xanomeline,1,13,20.152471856350722,ug/ml,0,0.01,N,0,,54,0,0,PATCH,3,TRANSDERMAL,3,2,Xanomeline High Dose,2013-01-13T12:00:00,46.72,148,21.32943754565376,1.3858972224198702,76,F,2,WHITE,5,NOT HISPANIC OR LATINO,2,USA,United States of America,235,79.55999999999999,39.08601307189543,66.27302761921288,22.23,19,16,81,3.0033269536407508
98,XANOMELINE,1,CDISCPILOT01,1,01-704-1008,1008,1008,1008,704,704,98,16,16,16,16,0,2,0.1470447673860129,XAN,Pharmacokinetic concentration of Xanomeline,1,14,0.1470447673860129,ug/ml,0,0.01,N,0,,54,0,0,PATCH,3,TRANSDERMAL,3,2,Xanomeline High Dose,2013-01-13T16:00:00,46.72,148,21.32943754565376,1.3858972224198702,76,F,2,WHITE,5,NOT HISPANIC OR LATINO,2,USA,United States of America,235,79.55999999999999,39.08601307189543,66.27302761921288,22.23,19,16,81,-1.9170181985254022
99,XANOMELINE,1,CDISCPILOT01,1,01-704-1008,1008,1008,1008,704,704,99,24,24,24,24,0,2,0.011129078677771156,XAN,Pharmacokinetic concentration of Xanomeline,1,15,0.011129078677771156,ug/ml,0,0.01,N,0,,54,0,0,PATCH,3,TRANSDERMAL,3,2,Xanomeline High Dose,2013-01-14T00:00:00,46.72,148,21.32943754565376,1.3858972224198702,76,F,2,WHITE,5,NOT HISPANIC OR LATINO,2,USA,United States of America,235,79.55999999999999,39.08601307189543,66.27302761921288,22.23,19,16,81,-4.4981938953985185
100,XANOMELINE,1,CDISCPILOT01,1,01-704-1008,1008,1008,1008,704,704,100,24,24,18,18,0,3,11.235800411502545,XAN,Pharmacokinetic concentration of Xanomeline,1,16,11.235800411502545,ug/ml,0,0.01,N,0,,54,0,0,PATCH,3,TRANSDERMAL,3,2,Xanomeline High Dose,2013-01-14T00:00:00,46.72,148,21.32943754565376,1.3858972224198702,76,F,2,WHITE,5,NOT HISPANIC OR LATINO,2,USA,United States of America,235,79.55999999999999,39.08601307189543,66.27302761921288,22.23,19,16,81,2.4191051457790076
101,XANOMELINE,1,CDISCPILOT01,1,01-704-1008,1008,1008,1008,704,704,101,24,0,24,0,1,1,,DOSE,Xanomeline Patch Dose,2,17,,,1,,N,0,54,54,1,1,PATCH,3,TRANSDERMAL,3,2,Xanomeline High Dose,2013-01-14T00:00:00,46.72,148,21.32943754565376,1.3858972224198702,76,F,2,WHITE,5,NOT HISPANIC OR LATINO,2,USA,United States of America,235,79.55999999999999,39.08601307189543,66.27302761921288,22.23,19,16,81,
102,XANOMELINE,1,CDISCPILOT01,1,01-704-1008,1008,1008,1008,704,704,102,36,12,36,12,0,2,,XAN,Pharmacokinetic concentration of Xanomeline,1,18,,ug/ml,1,0.01,Y,1,,54,0,0,PATCH,3,TRANSDERMAL,3,2,Xanomeline High Dose,2013-01-14T12:00:00,46.72,148,21.32943754565376,1.3858972224198702,76,F,2,WHITE,5,NOT HISPANIC OR LATINO,2,USA,United States of America,235,79.55999999999999,39.08601307189543,66.27302761921288,22.23,19,16,81,
103,XANOMELINE,1,CDISCPILOT01,1,01-704-1008,1008,1008,1008,704,704,103,48,24,48,24,0,2,,XAN,Pharmacokinetic concentration of Xanomeline,1,19,,ug/ml,1,0.01,Y,1,,54,0,0,PATCH,3,TRANSDERMAL,3,2,Xanomeline High Dose,2013-01-15T00:00:00,46.72,148,21.32943754565376,1.3858972224198702,76,F,2,WHITE,5,NOT HISPANIC OR LATINO,2,USA,United States of America,235,79.55999999999999,39.08601307189543,66.27302761921288,22.23,19,16,81,
104,XANOMELINE,1,CDISCPILOT01,1,01-704-1008,1008,1008,1008,704,704,104,48,24,36,12,0,3,,XAN,Pharmacokinetic concentration of Xanomeline,1,20,,ug/ml,1,0.01,Y,1,,54,0,0,PATCH,3,TRANSDERMAL,3,2,Xanomeline High Dose,2013-01-15T00:00:00,46.72,148,21.32943754565376,1.3858972224198702,76,F,2,WHITE,5,NOT HISPANIC OR LATINO,2,USA,United States of America,235,79.55999999999999,39.08601307189543,66.27302761921288,22.23,19,16,81,
105,XANOMELINE,1,CDISCPILOT01,1,01-704-1008,1008,1008,1008,704,704,105,48,0,48,0,1,1,,DOSE,Xanomeline Patch Dose,2,21,,,1,,N,0,54,54,1,1,PATCH,3,TRANSDERMAL,3,2,Xanomeline High Dose,2013-01-15T00:00:00,46.72,148,21.32943754565376,1.3858972224198702,76,F,2,WHITE,5,NOT HISPANIC OR LATINO,2,USA,United States of America,235,79.55999999999999,39.08601307189543,66.27302761921288,22.23,19,16,81,
106,XANOMELINE,1,CDISCPILOT01,1,01-704-1009,1009,1009,1009,704,704,106,-0.5,-0.5,0,0,0,2,0,XAN,Pharmacokinetic concentration of Xanomeline,1,1,0,ug/ml,0,0.01,Y,1,,54,0,0,PATCH,3,TRANSDERMAL,3,1,Xanomeline Low Dose,2013-08-26T23:30:00,66.68,179.07,20.79456902739569,1.8212013434360665,83,M,1,WHITE,5,NOT HISPANIC OR LATINO,2,USA,United States of America,235,132.6,35.2559185520362,45.920235800772645,10.26,27,24,54,
107,XANOMELINE,1,CDISCPILOT01,1,01-704-1009,1009,1009,1009,704,704,107,0,0,0,0,1,1,,DOSE,Xanomeline Patch Dose,2,2,,,1,,N,0,54,54,1,1,PATCH,3,TRANSDERMAL,3,1,Xanomeline Low Dose,2013-08-27T00:00:00,66.68,179.07,20.79456902739569,1.8212013434360665,83,M,1,WHITE,5,NOT HISPANIC OR LATINO,2,USA,United States of America,235,132.6,35.2559185520362,45.920235800772645,10.26,27,24,54,
108,XANOMELINE,1,CDISCPILOT01,1,01-704-1009,1009,1009,1009,704,704,108,0.08333333333333333,0.08333333333333333,0.08333333333333333,0.08333333333333333,0,2,0.1089127247916478,XAN,Pharmacokinetic concentration of Xanomeline,1,3,0.1089127247916478,ug/ml,0,0.01,N,0,,54,0,0,PATCH,3,TRANSDERMAL,3,1,Xanomeline Low Dose,2013-08-27T00:05:00,66.68,179.07,20.79456902739569,1.8212013434360665,83,M,1,WHITE,5,NOT HISPANIC OR LATINO,2,USA,United States of America,235,132.6,35.2559185520362,45.920235800772645,10.26,27,24,54,-2.2172084074613134
109,XANOMELINE,1,CDISCPILOT01,1,01-704-1009,1009,1009,1009,704,704,109,0.5,0.5,0.5,0.5,0,2,0.5863717119948852,XAN,Pharmacokinetic concentration of Xanomeline,1,4,0.5863717119948852,ug/ml,0,0.01,N,0,,54,0,0,PATCH,3,TRANSDERMAL,3,1,Xanomeline Low Dose,2013-08-27T00:30:00,66.68,179.07,20.79456902739569,1.8212013434360665,83,M,1,WHITE,5,NOT HISPANIC OR LATINO,2,USA,United States of America,235,132.6,35.2559185520362,45.920235800772645,10.26,27,24,54,-0.53380136969115
110,XANOMELINE,1,CDISCPILOT01,1,01-704-1009,1009,1009,1009,704,704,110,1,1,1,1,0,2,0.992099107050601,XAN,Pharmacokinetic concentration of Xanomeline,1,5,0.992099107050601,ug/ml,0,0.01,N,0,,54,0,0,PATCH,3,TRANSDERMAL,3,1,Xanomeline Low Dose,2013-08-27T01:00:00,66.68,179.07,20.79456902739569,1.8212013434360665,83,M,1,WHITE,5,NOT HISPANIC OR LATINO,2,USA,United States of America,235,132.6,35.2559185520362,45.920235800772645,10.26,27,24,54,-0.007932270386557302
111,XANOMELINE,1,CDISCPILOT01,1,01-704-1009,1009,1009,1009,704,704,111,1.5,1.5,1.5,1.5,0,2,1.2728335212989688,XAN,Pharmacokinetic concentration of Xanomeline,1,6,1.2728335212989688,ug/ml,0,0.01,N,0,,54,0,0,PATCH,3,TRANSDERMAL,3,1,Xanomeline Low Dose,2013-08-27T01:30:00,66.68,179.07,20.79456902739569,1.8212013434360665,83,M,1,WHITE,5,NOT HISPANIC OR LATINO,2,USA,United States of America,235,132.6,35.2559185520362,45.920235800772645,10.26,27,24,54,0.2412455343531599
112,XANOMELINE,1,CDISCPILOT01,1,01-704-1009,1009,1009,1009,704,704,112,2,2,2,2,0,2,1.4670817093774484,XAN,Pharmacokinetic concentration of Xanomeline,1,7,1.4670817093774484,ug/ml,0,0.01,N,0,,54,0,0,PATCH,3,TRANSDERMAL,3,1,Xanomeline Low Dose,2013-08-27T02:00:00,66.68,179.07,20.79456902739569,1.8212013434360665,83,M,1,WHITE,5,NOT HISPANIC OR LATINO,2,USA,United States of America,235,132.6,35.2559185520362,45.920235800772645,10.26,27,24,54,0.3832751958902223
113,XANOMELINE,1,CDISCPILOT01,1,01-704-1009,1009,1009,1009,704,704,113,4,4,4,4,0,2,1.8033605878119394,XAN,Pharmacokinetic concentration of Xanomeline,1,8,1.8033605878119394,ug/ml,0,0.01,N,0,,54,0,0,PATCH,3,TRANSDERMAL,3,1,Xanomeline Low Dose,2013-08-27T04:00:00,66.68,179.07,20.79456902739569,1.8212013434360665,83,M,1,WHITE,5,NOT HISPANIC OR LATINO,2,USA,United States of America,235,132.6,35.2559185520362,45.920235800772645,10.26,27,24,54,0.5896519174653199
114,XANOMELINE,1,CDISCPILOT01,1,01-704-1009,1009,1009,1009,704,704,114,6,6,6,6,0,2,1.8804411507815002,XAN,Pharmacokinetic concentration of Xanomeline,1,9,1.8804411507815002,ug/ml,0,0.01,N,0,,54,0,0,PATCH,3,TRANSDERMAL,3,1,Xanomeline Low Dose,2013-08-27T06:00:00,66.68,179.07,20.79456902739569,1.8212013434360665,83,M,1,WHITE,5,NOT HISPANIC OR LATINO,2,USA,United States of America,235,132.6,35.2559185520362,45.920235800772645,10.26,27,24,54,0.6315064039857674
115,XANOMELINE,1,CDISCPILOT01,1,01-704-1009,1009,1009,1009,704,704,115,6,6,3,3,0,3,24.906848122033963,XAN,Pharmacokinetic concentration of Xanomeline,1,10,24.906848122033963,ug/ml,0,0.01,N,0,,54,0,0,PATCH,3,TRANSDERMAL,3,1,Xanomeline Low Dose,2013-08-27T06:00:00,66.68,179.07,20.79456902739569,1.8212013434360665,83,M,1,WHITE,5,NOT HISPANIC OR LATINO,2,USA,United States of America,235,132.6,35.2559185520362,45.920235800772645,10.26,27,24,54,3.2151427906395083
116,XANOMELINE,1,CDISCPILOT01,1,01-704-1009,1009,1009,1009,704,704,116,8,8,8,8,0,2,1.8981092636744776,XAN,Pharmacokinetic concentration of Xanomeline,1,11,1.8981092636744776,ug/ml,0,0.01,N,0,,54,0,0,PATCH,3,TRANSDERMAL,3,1,Xanomeline Low Dose,2013-08-27T08:00:00,66.68,179.07,20.79456902739569,1.8212013434360665,83,M,1,WHITE,5,NOT HISPANIC OR LATINO,2,USA,United States of America,235,132.6,35.2559185520362,45.920235800772645,10.26,27,24,54,0.6408582663255464
117,XANOMELINE,1,CDISCPILOT01,1,01-704-1009,1009,1009,1009,704,704,117,12,12,12,12,0,2,0.5295877699415718,XAN,Pharmacokinetic concentration of Xanomeline,1,12,0.5295877699415718,ug/ml,0,0.01,N,0,,54,0,0,PATCH,3,TRANSDERMAL,3,1,Xanomeline Low Dose,2013-08-27T12:00:00,66.68,179.07,20.79456902739569,1.8212013434360665,83,M,1,WHITE,5,NOT HISPANIC OR LATINO,2,USA,United States of America,235,132.6,35.2559185520362,45.920235800772645,10.26,27,24,54,-0.6356563676366136
118,XANOMELINE,1,CDISCPILOT01,1,01-704-1009,1009,1009,1009,704,704,118,12,12,9,9,0,3,20.487579130561766,XAN,Pharmacokinetic concentration of Xanomeline,1,13,20.487579130561766,ug/ml,0,0.01,N,0,,54,0,0,PATCH,3,TRANSDERMAL,3,1,Xanomeline Low Dose,2013-08-27T12:00:00,66.68,179.07,20.79456902739569,1.8212013434360665,83,M,1,WHITE,5,NOT HISPANIC OR LATINO,2,USA,United States of America,235,132.6,35.2559185520362,45.920235800772645,10.26,27,24,54,3.0198188064450036
119,XANOMELINE,1,CDISCPILOT01,1,01-704-1009,1009,1009,1009,704,704,119,16,16,16,16,0,2,0.14735136933960832,XAN,Pharmacokinetic concentration of Xanomeline,1,14,0.14735136933960832,ug/ml,0,0.01,N,0,,54,0,0,PATCH,3,TRANSDERMAL,3,1,Xanomeline Low Dose,2013-08-27T16:00:00,66.68,179.07,20.79456902739569,1.8212013434360665,83,M,1,WHITE,5,NOT HISPANIC OR LATINO,2,USA,United States of America,235,132.6,35.2559185520362,45.920235800772645,10.26,27,24,54,-1.914935276732633
120,XANOMELINE,1,CDISCPILOT01,1,01-704-1009,1009,1009,1009,704,704,120,24,24,24,24,0,2,0.011407399046787198,XAN,Pharmacokinetic concentration of Xanomeline,1,15,0.011407399046787198,ug/ml,0,0.01,N,0,,54,0,0,PATCH,3,TRANSDERMAL,3,1,Xanomeline Low Dose,2013-08-28T00:00:00,66.68,179.07,20.79456902739569,1.8212013434360665,83,M,1,WHITE,5,NOT HISPANIC OR LATINO,2,USA,United States of America,235,132.6,35.2559185520362,45.920235800772645,10.26,27,24,54,-4.473493094924672
121,XANOMELINE,1,CDISCPILOT01,1,01-704-1009,1009,1009,1009,704,704,121,24,24,18,18,0,3,11.649041147617368,XAN,Pharmacokinetic concentration of Xanomeline,1,16,11.649041147617368,ug/ml,0,0.01,N,0,,54,0,0,PATCH,3,TRANSDERMAL,3,1,Xanomeline Low Dose,2013-08-28T00:00:00,66.68,179.07,20.79456902739569,1.8212013434360665,83,M,1,WHITE,5,NOT HISPANIC OR LATINO,2,USA,United States of America,235,132.6,35.2559185520362,45.920235800772645,10.26,27,24,54,2.4552238716989256
122,XANOMELINE,1,CDISCPILOT01,1,01-704-1009,1009,1009,1009,704,704,122,24,0,24,0,1,1,,DOSE,Xanomeline Patch Dose,2,17,,,1,,N,0,54,54,1,1,PATCH,3,TRANSDERMAL,3,1,Xanomeline Low Dose,2013-08-28T00:00:00,66.68,179.07,20.79456902739569,1.8212013434360665,83,M,1,WHITE,5,NOT HISPANIC OR LATINO,2,USA,United States of America,235,132.6,35.2559185520362,45.920235800772645,10.26,27,24,54,
123,XANOMELINE,1,CDISCPILOT01,1,01-704-1009,1009,1009,1009,704,704,123,36,12,36,12,0,2,,XAN,Pharmacokinetic concentration of Xanomeline,1,18,,ug/ml,1,0.01,Y,1,,54,0,0,PATCH,3,TRANSDERMAL,3,1,Xanomeline Low Dose,2013-08-28T12:00:00,66.68,179.07,20.79456902739569,1.8212013434360665,83,M,1,WHITE,5,NOT HISPANIC OR LATINO,2,USA,United States of America,235,132.6,35.2559185520362,45.920235800772645,10.26,27,24,54,
124,XANOMELINE,1,CDISCPILOT01,1,01-704-1009,1009,1009,1009,704,704,124,48,24,48,24,0,2,,XAN,Pharmacokinetic concentration of Xanomeline,1,19,,ug/ml,1,0.01,Y,1,,54,0,0,PATCH,3,TRANSDERMAL,3,1,Xanomeline Low Dose,2013-08-29T00:00:00,66.68,179.07,20.79456902739569,1.8212013434360665,83,M,1,WHITE,5,NOT HISPANIC OR LATINO,2,USA,United States of America,235,132.6,35.2559185520362,45.920235800772645,10.26,27,24,54,
125,XANOMELINE,1,CDISCPILOT01,1,01-704-1009,1009,1009,1009,704,704,125,48,24,36,12,0,3,,XAN,Pharmacokinetic concentration of Xanomeline,1,20,,ug/ml,1,0.01,Y,1,,54,0,0,PATCH,3,TRANSDERMAL,3,1,Xanomeline Low Dose,2013-08-29T00:00:00,66.68,179.07,20.79456902739569,1.8212013434360665,83,M,1,WHITE,5,NOT HISPANIC OR LATINO,2,USA,United States of America,235,132.6,35.2559185520362,45.920235800772645,10.26,27,24,54,
126,XANOMELINE,1,CDISCPILOT01,1,01-704-1009,1009,1009,1009,704,704,126,48,0,48,0,1,1,,DOSE,Xanomeline Patch Dose,2,21,,,1,,N,0,54,54,1,1,PATCH,3,TRANSDERMAL,3,1,Xanomeline Low Dose,2013-08-29T00:00:00,66.68,179.07,20.79456902739569,1.8212013434360665,83,M,1,WHITE,5,NOT HISPANIC OR LATINO,2,USA,United States of America,235,132.6,35.2559185520362,45.920235800772645,10.26,27,24,54,
127,XANOMELINE,1,CDISCPILOT01,1,01-711-1012,1012,1012,1012,711,711,127,-0.5,-0.5,0,0,0,2,0,XAN,Pharmacokinetic concentration of Xanomeline,1,1,0,ug/ml,0,0.01,Y,1,,54,0,0,PATCH,3,TRANSDERMAL,3,2,Xanomeline High Dose,2013-04-02T23:30:00,80.97,170.18,27.958064381265764,1.9564334472026728,67,F,2,WHITE,5,NOT HISPANIC OR LATINO,2,USA,United States of America,235,97.24,63.2172192513369,55.08909892575761,8.549999999999999,19,13,81,
128,XANOMELINE,1,CDISCPILOT01,1,01-711-1012,1012,1012,1012,711,711,128,0,0,0,0,1,1,,DOSE,Xanomeline Patch Dose,2,2,,,1,,N,0,54,54,1,1,PATCH,3,TRANSDERMAL,3,2,Xanomeline High Dose,2013-04-03T00:00:00,80.97,170.18,27.958064381265764,1.9564334472026728,67,F,2,WHITE,5,NOT HISPANIC OR LATINO,2,USA,United States of America,235,97.24,63.2172192513369,55.08909892575761,8.549999999999999,19,13,81,
129,XANOMELINE,1,CDISCPILOT01,1,01-711-1012,1012,1012,1012,711,711,129,0.08333333333333333,0.08333333333333333,0.08333333333333333,0.08333333333333333,0,2,0.10433801392516714,XAN,Pharmacokinetic concentration of Xanomeline,1,3,0.10433801392516714,ug/ml,0,0.01,N,0,,54,0,0,PATCH,3,TRANSDERMAL,3,2,Xanomeline High Dose,2013-04-03T00:05:00,80.97,170.18,27.958064381265764,1.9564334472026728,67,F,2,WHITE,5,NOT HISPANIC OR LATINO,2,USA,United States of America,235,97.24,63.2172192513369,55.08909892575761,8.549999999999999,19,13,81,-2.260119516213798
130,XANOMELINE,1,CDISCPILOT01,1,01-711-1012,1012,1012,1012,711,711,130,0.5,0.5,0.5,0.5,0,2,0.5653615668730912,XAN,Pharmacokinetic concentration of Xanomeline,1,4,0.5653615668730912,ug/ml,0,0.01,N,0,,54,0,0,PATCH,3,TRANSDERMAL,3,2,Xanomeline High Dose,2013-04-03T00:30:00,80.97,170.18,27.958064381265764,1.9564334472026728,67,F,2,WHITE,5,NOT HISPANIC OR LATINO,2,USA,United States of America,235,97.24,63.2172192513369,55.08909892575761,8.549999999999999,19,13,81,-0.5702898111425551
131,XANOMELINE,1,CDISCPILOT01,1,01-711-1012,1012,1012,1012,711,711,131,1,1,1,1,0,2,0.9630331655721092,XAN,Pharmacokinetic concentration of Xanomeline,1,5,0.9630331655721092,ug/ml,0,0.01,N,0,,54,0,0,PATCH,3,TRANSDERMAL,3,2,Xanomeline High Dose,2013-04-03T01:00:00,80.97,170.18,27.958064381265764,1.9564334472026728,67,F,2,WHITE,5,NOT HISPANIC OR LATINO,2,USA,United States of America,235,97.24,63.2172192513369,55.08909892575761,8.549999999999999,19,13,81,-0.03766742793062243
132,XANOMELINE,1,CDISCPILOT01,1,01-711-1012,1012,1012,1012,711,711,132,1.5,1.5,1.5,1.5,0,2,1.2427527462406192,XAN,Pharmacokinetic concentration of Xanomeline,1,6,1.2427527462406192,ug/ml,0,0.01,N,0,,54,0,0,PATCH,3,TRANSDERMAL,3,2,Xanomeline High Dose,2013-04-03T01:30:00,80.97,170.18,27.958064381265764,1.9564334472026728,67,F,2,WHITE,5,NOT HISPANIC OR LATINO,2,USA,United States of America,235,97.24,63.2172192513369,55.08909892575761,8.549999999999999,19,13,81,0.2173288757995931
133,XANOMELINE,1,CDISCPILOT01,1,01-711-1012,1012,1012,1012,711,711,133,2,2,2,2,0,2,1.4395056550863574,XAN,Pharmacokinetic concentration of Xanomeline,1,7,1.4395056550863574,ug/ml,0,0.01,N,0,,54,0,0,PATCH,3,TRANSDERMAL,3,2,Xanomeline High Dose,2013-04-03T02:00:00,80.97,170.18,27.958064381265764,1.9564334472026728,67,F,2,WHITE,5,NOT HISPANIC OR LATINO,2,USA,United States of America,235,97.24,63.2172192513369,55.08909892575761,8.549999999999999,19,13,81,0.36429975956974575
134,XANOMELINE,1,CDISCPILOT01,1,01-711-1012,1012,1012,1012,711,711,134,4,4,4,4,0,2,1.7918818393799787,XAN,Pharmacokinetic concentration of Xanomeline,1,8,1.7918818393799787,ug/ml,0,0.01,N,0,,54,0,0,PATCH,3,TRANSDERMAL,3,2,Xanomeline High Dose,2013-04-03T04:00:00,80.97,170.18,27.958064381265764,1.9564334472026728,67,F,2,WHITE,5,NOT HISPANIC OR LATINO,2,USA,United States of America,235,97.24,63.2172192513369,55.08909892575761,8.549999999999999,19,13,81,0.5832663745327493
135,XANOMELINE,1,CDISCPILOT01,1,01-711-1012,1012,1012,1012,711,711,135,6,6,6,6,0,2,1.878139906389714,XAN,Pharmacokinetic concentration of Xanomeline,1,9,1.878139906389714,ug/ml,0,0.01,N,0,,54,0,0,PATCH,3,TRANSDERMAL,3,2,Xanomeline High Dose,2013-04-03T06:00:00,80.97,170.18,27.958064381265764,1.9564334472026728,67,F,2,WHITE,5,NOT HISPANIC OR LATINO,2,USA,United States of America,235,97.24,63.2172192513369,55.08909892575761,8.549999999999999,19,13,81,0.6302818755563755
136,XANOMELINE,1,CDISCPILOT01,1,01-711-1012,1012,1012,1012,711,711,136,6,6,3,3,0,3,26.473796791519334,XAN,Pharmacokinetic concentration of Xanomeline,1,10,26.473796791519334,ug/ml,0,0.01,N,0,,54,0,0,PATCH,3,TRANSDERMAL,3,2,Xanomeline High Dose,2013-04-03T06:00:00,80.97,170.18,27.958064381265764,1.9564334472026728,67,F,2,WHITE,5,NOT HISPANIC OR LATINO,2,USA,United States of America,235,97.24,63.2172192513369,55.08909892575761,8.549999999999999,19,13,81,3.2761554434866174
137,XANOMELINE,1,CDISCPILOT01,1,01-711-1012,1012,1012,1012,711,711,137,8,8,8,8,0,2,1.8992549943437178,XAN,Pharmacokinetic concentration of Xanomeline,1,11,1.8992549943437178,ug/ml,0,0.01,N,0,,54,0,0,PATCH,3,TRANSDERMAL,3,2,Xanomeline High Dose,2013-04-03T08:00:00,80.97,170.18,27.958064381265764,1.9564334472026728,67,F,2,WHITE,5,NOT HISPANIC OR LATINO,2,USA,United States of America,235,97.24,63.2172192513369,55.08909892575761,8.549999999999999,19,13,81,0.6414617010377089
138,XANOMELINE,1,CDISCPILOT01,1,01-711-1012,1012,1012,1012,711,711,138,12,12,12,12,0,2,0.5615049918133952,XAN,Pharmacokinetic concentration of Xanomeline,1,12,0.5615049918133952,ug/ml,0,0.01,N,0,,54,0,0,PATCH,3,TRANSDERMAL,3,2,Xanomeline High Dose,2013-04-03T12:00:00,80.97,170.18,27.958064381265764,1.9564334472026728,67,F,2,WHITE,5,NOT HISPANIC OR LATINO,2,USA,United States of America,235,97.24,63.2172192513369,55.08909892575761,8.549999999999999,19,13,81,-0.5771346147035388
139,XANOMELINE,1,CDISCPILOT01,1,01-711-1012,1012,1012,1012,711,711,139,12,12,9,9,0,3,22.251729606819637,XAN,Pharmacokinetic concentration of Xanomeline,1,13,22.251729606819637,ug/ml,0,0.01,N,0,,54,0,0,PATCH,3,TRANSDERMAL,3,2,Xanomeline High Dose,2013-04-03T12:00:00,80.97,170.18,27.958064381265764,1.9564334472026728,67,F,2,WHITE,5,NOT HISPANIC OR LATINO,2,USA,United States of America,235,97.24,63.2172192513369,55.08909892575761,8.549999999999999,19,13,81,3.1024197407289913
140,XANOMELINE,1,CDISCPILOT01,1,01-711-1012,1012,1012,1012,711,711,140,16,16,16,16,0,2,0.16540999993262107,XAN,Pharmacokinetic concentration of Xanomeline,1,14,0.16540999993262107,ug/ml,0,0.01,N,0,,54,0,0,PATCH,3,TRANSDERMAL,3,2,Xanomeline High Dose,2013-04-03T16:00:00,80.97,170.18,27.958064381265764,1.9564334472026728,67,F,2,WHITE,5,NOT HISPANIC OR LATINO,2,USA,United States of America,235,97.24,63.2172192513369,55.08909892575761,8.549999999999999,19,13,81,-1.7993280391353523
141,XANOMELINE,1,CDISCPILOT01,1,01-711-1012,1012,1012,1012,711,711,141,24,24,24,24,0,2,0.014354168545302666,XAN,Pharmacokinetic concentration of Xanomeline,1,15,0.014354168545302666,ug/ml,0,0.01,N,0,,54,0,0,PATCH,3,TRANSDERMAL,3,2,Xanomeline High Dose,2013-04-04T00:00:00,80.97,170.18,27.958064381265764,1.9564334472026728,67,F,2,WHITE,5,NOT HISPANIC OR LATINO,2,USA,United States of America,235,97.24,63.2172192513369,55.08909892575761,8.549999999999999,19,13,81,-4.243714887998979
142,XANOMELINE,1,CDISCPILOT01,1,01-711-1012,1012,1012,1012,711,711,142,24,24,18,18,0,3,13.807595237420237,XAN,Pharmacokinetic concentration of Xanomeline,1,16,13.807595237420237,ug/ml,0,0.01,N,0,,54,0,0,PATCH,3,TRANSDERMAL,3,2,Xanomeline High Dose,2013-04-04T00:00:00,80.97,170.18,27.958064381265764,1.9564334472026728,67,F,2,WHITE,5,NOT HISPANIC OR LATINO,2,USA,United States of America,235,97.24,63.2172192513369,55.08909892575761,8.549999999999999,19,13,81,2.6252188202831053
143,XANOMELINE,1,CDISCPILOT01,1,01-711-1012,1012,1012,1012,711,711,143,24,0,24,0,1,1,,DOSE,Xanomeline Patch Dose,2,17,,,1,,N,0,54,54,1,1,PATCH,3,TRANSDERMAL,3,2,Xanomeline High Dose,2013-04-04T00:00:00,80.97,170.18,27.958064381265764,1.9564334472026728,67,F,2,WHITE,5,NOT HISPANIC OR LATINO,2,USA,United States of America,235,97.24,63.2172192513369,55.08909892575761,8.549999999999999,19,13,81,
144,XANOMELINE,1,CDISCPILOT01,1,01-711-1012,1012,1012,1012,711,711,144,36,12,36,12,0,2,,XAN,Pharmacokinetic concentration of Xanomeline,1,18,,ug/ml,1,0.01,Y,1,,54,0,0,PATCH,3,TRANSDERMAL,3,2,Xanomeline High Dose,2013-04-04T12:00:00,80.97,170.18,27.958064381265764,1.9564334472026728,67,F,2,WHITE,5,NOT HISPANIC OR LATINO,2,USA,United States of America,235,97.24,63.2172192513369,55.08909892575761,8.549999999999999,19,13,81,
145,XANOMELINE,1,CDISCPILOT01,1,01-711-1012,1012,1012,1012,711,711,145,48,24,48,24,0,2,,XAN,Pharmacokinetic concentration of Xanomeline,1,19,,ug/ml,1,0.01,Y,1,,54,0,0,PATCH,3,TRANSDERMAL,3,2,Xanomeline High Dose,2013-04-05T00:00:00,80.97,170.18,27.958064381265764,1.9564334472026728,67,F,2,WHITE,5,NOT HISPANIC OR LATINO,2,USA,United States of America,235,97.24,63.2172192513369,55.08909892575761,8.549999999999999,19,13,81,
146,XANOMELINE,1,CDISCPILOT01,1,01-711-1012,1012,1012,1012,711,711,146,48,24,36,12,0,3,,XAN,Pharmacokinetic concentration of Xanomeline,1,20,,ug/ml,1,0.01,Y,1,,54,0,0,PATCH,3,TRANSDERMAL,3,2,Xanomeline High Dose,2013-04-05T00:00:00,80.97,170.18,27.958064381265764,1.9564334472026728,67,F,2,WHITE,5,NOT HISPANIC OR LATINO,2,USA,United States of America,235,97.24,63.2172192513369,55.08909892575761,8.549999999999999,19,13,81,
147,XANOMELINE,1,CDISCPILOT01,1,01-711-1012,1012,1012,1012,711,711,147,48,0,48,0,1,1,,DOSE,Xanomeline Patch Dose,2,21,,,1,,N,0,54,54,1,1,PATCH,3,TRANSDERMAL,3,2,Xanomeline High Dose,2013-04-05T00:00:00,80.97,170.18,27.958064381265764,1.9564334472026728,67,F,2,WHITE,5,NOT HISPANIC OR LATINO,2,USA,United States of America,235,97.24,63.2172192513369,55.08909892575761,8.549999999999999,19,13,81,
148,XANOMELINE,1,CDISCPILOT01,1,01-704-1017,1017,1017,1017,704,704,148,-0.5,-0.5,0,0,0,2,0,XAN,Pharmacokinetic concentration of Xanomeline,1,1,0,ug/ml,0,0.01,Y,1,,54,0,0,PATCH,3,TRANSDERMAL,3,2,Xanomeline High Dose,2013-10-05T23:30:00,63.05,170.18,21.770482391488283,1.7264164072178854,77,M,1,WHITE,5,NOT HISPANIC OR LATINO,2,USA,United States of America,235,159.11999999999998,30.704779411764708,38.29946080017663,11.969999999999999,13,10,81,
149,XANOMELINE,1,CDISCPILOT01,1,01-704-1017,1017,1017,1017,704,704,149,0,0,0,0,1,1,,DOSE,Xanomeline Patch Dose,2,2,,,1,,N,0,54,54,1,1,PATCH,3,TRANSDERMAL,3,2,Xanomeline High Dose,2013-10-06T00:00:00,63.05,170.18,21.770482391488283,1.7264164072178854,77,M,1,WHITE,5,NOT HISPANIC OR LATINO,2,USA,United States of America,235,159.11999999999998,30.704779411764708,38.29946080017663,11.969999999999999,13,10,81,
150,XANOMELINE,1,CDISCPILOT01,1,01-704-1017,1017,1017,1017,704,704,150,0.08333333333333333,0.08333333333333333,0.08333333333333333,0.08333333333333333,0,2,0.09886195731261839,XAN,Pharmacokinetic concentration of Xanomeline,1,3,0.09886195731261839,ug/ml,0,0.01,N,0,,54,0,0,PATCH,3,TRANSDERMAL,3,2,Xanomeline High Dose,2013-10-06T00:05:00,63.05,170.18,21.770482391488283,1.7264164072178854,77,M,1,WHITE,5,NOT HISPANIC OR LATINO,2,USA,United States of America,235,159.11999999999998,30.704779411764708,38.29946080017663,11.969999999999999,13,10,81,-2.3140307724664395
151,XANOMELINE,1,CDISCPILOT01,1,01-704-1017,1017,1017,1017,704,704,151,0.5,0.5,0.5,0.5,0,2,0.540730869988226,XAN,Pharmacokinetic concentration of Xanomeline,1,4,0.540730869988226,ug/ml,0,0.01,N,0,,54,0,0,PATCH,3,TRANSDERMAL,3,2,Xanomeline High Dose,2013-10-06T00:30:00,63.05,170.18,21.770482391488283,1.7264164072178854,77,M,1,WHITE,5,NOT HISPANIC OR LATINO,2,USA,United States of America,235,159.11999999999998,30.704779411764708,38.29946080017663,11.969999999999999,13,10,81,-0.61483359158801
152,XANOMELINE,1,CDISCPILOT01,1,01-704-1017,1017,1017,1017,704,704,152,1,1,1,1,0,2,0.9302650916708624,XAN,Pharmacokinetic concentration of Xanomeline,1,5,0.9302650916708624,ug/ml,0,0.01,N,0,,54,0,0,PATCH,3,TRANSDERMAL,3,2,Xanomeline High Dose,2013-10-06T01:00:00,63.05,170.18,21.770482391488283,1.7264164072178854,77,M,1,WHITE,5,NOT HISPANIC OR LATINO,2,USA,United States of America,235,159.11999999999998,30.704779411764708,38.29946080017663,11.969999999999999,13,10,81,-0.0722856886450093
153,XANOMELINE,1,CDISCPILOT01,1,01-704-1017,1017,1017,1017,704,704,153,1.5,1.5,1.5,1.5,0,2,1.2108795678985673,XAN,Pharmacokinetic concentration of Xanomeline,1,6,1.2108795678985673,ug/ml,0,0.01,N,0,,54,0,0,PATCH,3,TRANSDERMAL,3,2,Xanomeline High Dose,2013-10-06T01:30:00,63.05,170.18,21.770482391488283,1.7264164072178854,77,M,1,WHITE,5,NOT HISPANIC OR LATINO,2,USA,United States of America,235,159.11999999999998,30.704779411764708,38.29946080017663,11.969999999999999,13,10,81,0.19134701115210792
154,XANOMELINE,1,CDISCPILOT01,1,01-704-1017,1017,1017,1017,704,704,154,2,2,2,2,0,2,1.4130299307817142,XAN,Pharmacokinetic concentration of Xanomeline,1,7,1.4130299307817142,ug/ml,0,0.01,N,0,,54,0,0,PATCH,3,TRANSDERMAL,3,2,Xanomeline High Dose,2013-10-06T02:00:00,63.05,170.18,21.770482391488283,1.7264164072178854,77,M,1,WHITE,5,NOT HISPANIC OR LATINO,2,USA,United States of America,235,159.11999999999998,30.704779411764708,38.29946080017663,11.969999999999999,13,10,81,0.3457362859137954
155,XANOMELINE,1,CDISCPILOT01,1,01-704-1017,1017,1017,1017,704,704,155,4,4,4,4,0,2,1.7935776964250532,XAN,Pharmacokinetic concentration of Xanomeline,1,8,1.7935776964250532,ug/ml,0,0.01,N,0,,54,0,0,PATCH,3,TRANSDERMAL,3,2,Xanomeline High Dose,2013-10-06T04:00:00,63.05,170.18,21.770482391488283,1.7264164072178854,77,M,1,WHITE,5,NOT HISPANIC OR LATINO,2,USA,United States of America,235,159.11999999999998,30.704779411764708,38.29946080017663,11.969999999999999,13,10,81,0.5842123381698232
156,XANOMELINE,1,CDISCPILOT01,1,01-704-1017,1017,1017,1017,704,704,156,6,6,6,6,0,2,1.8960642742260074,XAN,Pharmacokinetic concentration of Xanomeline,1,9,1.8960642742260074,ug/ml,0,0.01,N,0,,54,0,0,PATCH,3,TRANSDERMAL,3,2,Xanomeline High Dose,2013-10-06T06:00:00,63.05,170.18,21.770482391488283,1.7264164072178854,77,M,1,WHITE,5,NOT HISPANIC OR LATINO,2,USA,United States of America,235,159.11999999999998,30.704779411764708,38.29946080017663,11.969999999999999,13,10,81,0.6397803031664729
157,XANOMELINE,1,CDISCPILOT01,1,01-704-1017,1017,1017,1017,704,704,157,6,6,3,3,0,3,28.99420503356866,XAN,Pharmacokinetic concentration of Xanomeline,1,10,28.99420503356866,ug/ml,0,0.01,N,0,,54,0,0,PATCH,3,TRANSDERMAL,3,2,Xanomeline High Dose,2013-10-06T06:00:00,63.05,170.18,21.770482391488283,1.7264164072178854,77,M,1,WHITE,5,NOT HISPANIC OR LATINO,2,USA,United States of America,235,159.11999999999998,30.704779411764708,38.29946080017663,11.969999999999999,13,10,81,3.3670959835898464
158,XANOMELINE,1,CDISCPILOT01,1,01-704-1017,1017,1017,1017,704,704,158,8,8,8,8,0,2,1.923665273568611,XAN,Pharmacokinetic concentration of Xanomeline,1,11,1.923665273568611,ug/ml,0,0.01,N,0,,54,0,0,PATCH,3,TRANSDERMAL,3,2,Xanomeline High Dose,2013-10-06T08:00:00,63.05,170.18,21.770482391488283,1.7264164072178854,77,M,1,WHITE,5,NOT HISPANIC OR LATINO,2,USA,United States of America,235,159.11999999999998,30.704779411764708,38.29946080017663,11.969999999999999,13,10,81,0.6542323628715532
159,XANOMELINE,1,CDISCPILOT01,1,01-704-1017,1017,1017,1017,704,704,159,12,12,12,12,0,2,0.6189243164360254,XAN,Pharmacokinetic concentration of Xanomeline,1,12,0.6189243164360254,ug/ml,0,0.01,N,0,,54,0,0,PATCH,3,TRANSDERMAL,3,2,Xanomeline High Dose,2013-10-06T12:00:00,63.05,170.18,21.770482391488283,1.7264164072178854,77,M,1,WHITE,5,NOT HISPANIC OR LATINO,2,USA,United States of America,235,159.11999999999998,30.704779411764708,38.29946080017663,11.969999999999999,13,10,81,-0.47977228124288945
160,XANOMELINE,1,CDISCPILOT01,1,01-704-1017,1017,1017,1017,704,704,160,12,12,9,9,0,3,25.058565448805687,XAN,Pharmacokinetic concentration of Xanomeline,1,13,25.058565448805687,ug/ml,0,0.01,N,0,,54,0,0,PATCH,3,TRANSDERMAL,3,2,Xanomeline High Dose,2013-10-06T12:00:00,63.05,170.18,21.770482391488283,1.7264164072178854,77,M,1,WHITE,5,NOT HISPANIC OR LATINO,2,USA,United States of America,235,159.11999999999998,30.704779411764708,38.29946080017663,11.969999999999999,13,10,81,3.221215703168797
161,XANOMELINE,1,CDISCPILOT01,1,01-704-1017,1017,1017,1017,704,704,161,16,16,16,16,0,2,0.19808652236730268,XAN,Pharmacokinetic concentration of Xanomeline,1,14,0.19808652236730268,ug/ml,0,0.01,N,0,,54,0,0,PATCH,3,TRANSDERMAL,3,2,Xanomeline High Dose,2013-10-06T16:00:00,63.05,170.18,21.770482391488283,1.7264164072178854,77,M,1,WHITE,5,NOT HISPANIC OR LATINO,2,USA,United States of America,235,159.11999999999998,30.704779411764708,38.29946080017663,11.969999999999999,13,10,81,-1.6190513620832354
162,XANOMELINE,1,CDISCPILOT01,1,01-704-1017,1017,1017,1017,704,704,162,24,24,24,24,0,2,0.020290357135153095,XAN,Pharmacokinetic concentration of Xanomeline,1,15,0.020290357135153095,ug/ml,0,0.01,N,0,,54,0,0,PATCH,3,TRANSDERMAL,3,2,Xanomeline High Dose,2013-10-07T00:00:00,63.05,170.18,21.770482391488283,1.7264164072178854,77,M,1,WHITE,5,NOT HISPANIC OR LATINO,2,USA,United States of America,235,159.11999999999998,30.704779411764708,38.29946080017663,11.969999999999999,13,10,81,-3.8976095237639274
163,XANOMELINE,1,CDISCPILOT01,1,01-704-1017,1017,1017,1017,704,704,163,24,24,18,18,0,3,17.187286279279736,XAN,Pharmacokinetic concentration of Xanomeline,1,16,17.187286279279736,ug/ml,0,0.01,N,0,,54,0,0,PATCH,3,TRANSDERMAL,3,2,Xanomeline High Dose,2013-10-07T00:00:00,63.05,170.18,21.770482391488283,1.7264164072178854,77,M,1,WHITE,5,NOT HISPANIC OR LATINO,2,USA,United States of America,235,159.11999999999998,30.704779411764708,38.29946080017663,11.969999999999999,13,10,81,2.8441699406893908
164,XANOMELINE,1,CDISCPILOT01,1,01-704-1017,1017,1017,1017,704,704,164,24,0,24,0,1,1,,DOSE,Xanomeline Patch Dose,2,17,,,1,,N,0,54,54,1,1,PATCH,3,TRANSDERMAL,3,2,Xanomeline High Dose,2013-10-07T00:00:00,63.05,170.18,21.770482391488283,1.7264164072178854,77,M,1,WHITE,5,NOT HISPANIC OR LATINO,2,USA,United States of America,235,159.11999999999998,30.704779411764708,38.29946080017663,11.969999999999999,13,10,81,
165,XANOMELINE,1,CDISCPILOT01,1,01-704-1017,1017,1017,1017,704,704,165,36,12,36,12,0,2,,XAN,Pharmacokinetic concentration of Xanomeline,1,18,,ug/ml,1,0.01,Y,1,,54,0,0,PATCH,3,TRANSDERMAL,3,2,Xanomeline High Dose,2013-10-07T12:00:00,63.05,170.18,21.770482391488283,1.7264164072178854,77,M,1,WHITE,5,NOT HISPANIC OR LATINO,2,USA,United States of America,235,159.11999999999998,30.704779411764708,38.29946080017663,11.969999999999999,13,10,81,
166,XANOMELINE,1,CDISCPILOT01,1,01-704-1017,1017,1017,1017,704,704,166,48,24,48,24,0,2,,XAN,Pharmacokinetic concentration of Xanomeline,1,19,,ug/ml,1,0.01,Y,1,,54,0,0,PATCH,3,TRANSDERMAL,3,2,Xanomeline High Dose,2013-10-08T00:00:00,63.05,170.18,21.770482391488283,1.7264164072178854,77,M,1,WHITE,5,NOT HISPANIC OR LATINO,2,USA,United States of America,235,159.11999999999998,30.704779411764708,38.29946080017663,11.969999999999999,13,10,81,
167,XANOMELINE,1,CDISCPILOT01,1,01-704-1017,1017,1017,1017,704,704,167,48,24,36,12,0,3,1.4447279402278355,XAN,Pharmacokinetic concentration of Xanomeline,1,20,1.4447279402278355,ug/ml,0,0.01,N,0,,54,0,0,PATCH,3,TRANSDERMAL,3,2,Xanomeline High Dose,2013-10-08T00:00:00,63.05,170.18,21.770482391488283,1.7264164072178854,77,M,1,WHITE,5,NOT HISPANIC OR LATINO,2,USA,United States of America,235,159.11999999999998,30.704779411764708,38.29946080017663,11.969999999999999,13,10,81,0.36792102717918296
168,XANOMELINE,1,CDISCPILOT01,1,01-704-1017,1017,1017,1017,704,704,168,48,0,48,0,1,1,,DOSE,Xanomeline Patch Dose,2,21,,,1,,N,0,54,54,1,1,PATCH,3,TRANSDERMAL,3,2,Xanomeline High Dose,2013-10-08T00:00:00,63.05,170.18,21.770482391488283,1.7264164072178854,77,M,1,WHITE,5,NOT HISPANIC OR LATINO,2,USA,United States of America,235,159.11999999999998,30.704779411764708,38.29946080017663,11.969999999999999,13,10,81,
169,XANOMELINE,1,CDISCPILOT01,1,01-708-1019,1019,1019,1019,708,708,169,-0.5,-0.5,0,0,0,2,0,XAN,Pharmacokinetic concentration of Xanomeline,1,1,0,ug/ml,0,0.01,Y,1,,54,0,0,PATCH,3,TRANSDERMAL,3,1,Xanomeline Low Dose,2013-12-19T23:30:00,74.39,182.88,22.242424886084336,1.9439681067342642,68,M,1,WHITE,5,NOT HISPANIC OR LATINO,2,USA,United States of America,235,123.75999999999999,53.23188752424047,54.76146920889094,6.84,19,14,54,
170,XANOMELINE,1,CDISCPILOT01,1,01-708-1019,1019,1019,1019,708,708,170,0,0,0,0,1,1,,DOSE,Xanomeline Patch Dose,2,2,,,1,,N,0,54,54,1,1,PATCH,3,TRANSDERMAL,3,1,Xanomeline Low Dose,2013-12-20T00:00:00,74.39,182.88,22.242424886084336,1.9439681067342642,68,M,1,WHITE,5,NOT HISPANIC OR LATINO,2,USA,United States of America,235,123.75999999999999,53.23188752424047,54.76146920889094,6.84,19,14,54,
171,XANOMELINE,1,CDISCPILOT01,1,01-708-1019,1019,1019,1019,708,708,171,0.08333333333333333,0.08333333333333333,0.08333333333333333,0.08333333333333333,0,2,0.09865613394071482,XAN,Pharmacokinetic concentration of Xanomeline,1,3,0.09865613394071482,ug/ml,0,0.01,N,0,,54,0,0,PATCH,3,TRANSDERMAL,3,1,Xanomeline Low Dose,2013-12-20T00:05:00,74.39,182.88,22.242424886084336,1.9439681067342642,68,M,1,WHITE,5,NOT HISPANIC OR LATINO,2,USA,United States of America,235,123.75999999999999,53.23188752424047,54.76146920889094,6.84,19,14,54,-2.3161148696253004
172,XANOMELINE,1,CDISCPILOT01,1,01-708-1019,1019,1019,1019,708,708,172,0.5,0.5,0.5,0.5,0,2,0.5376488681310827,XAN,Pharmacokinetic concentration of Xanomeline,1,4,0.5376488681310827,ug/ml,0,0.01,N,0,,54,0,0,PATCH,3,TRANSDERMAL,3,1,Xanomeline Low Dose,2013-12-20T00:30:00,74.39,182.88,22.242424886084336,1.9439681067342642,68,M,1,WHITE,5,NOT HISPANIC OR LATINO,2,USA,United States of America,235,123.75999999999999,53.23188752424047,54.76146920889094,6.84,19,14,54,-0.6205495933629527
173,XANOMELINE,1,CDISCPILOT01,1,01-708-1019,1019,1019,1019,708,708,173,1,1,1,1,0,2,0.921400396528963,XAN,Pharmacokinetic concentration of Xanomeline,1,5,0.921400396528963,ug/ml,0,0.01,N,0,,54,0,0,PATCH,3,TRANSDERMAL,3,1,Xanomeline Low Dose,2013-12-20T01:00:00,74.39,182.88,22.242424886084336,1.9439681067342642,68,M,1,WHITE,5,NOT HISPANIC OR LATINO,2,USA,United States of America,235,123.75999999999999,53.23188752424047,54.76146920889094,6.84,19,14,54,-0.08186059612555849
174,XANOMELINE,1,CDISCPILOT01,1,01-708-1019,1019,1019,1019,708,708,174,1.5,1.5,1.5,1.5,0,2,1.1953063680222473,XAN,Pharmacokinetic concentration of Xanomeline,1,6,1.1953063680222473,ug/ml,0,0.01,N,0,,54,0,0,PATCH,3,TRANSDERMAL,3,1,Xanomeline Low Dose,2013-12-20T01:30:00,74.39,182.88,22.242424886084336,1.9439681067342642,68,M,1,WHITE,5,NOT HISPANIC OR LATINO,2,USA,United States of America,235,123.75999999999999,53.23188752424047,54.76146920889094,6.84,19,14,54,0.17840252743905616
175,XANOMELINE,1,CDISCPILOT01,1,01-708-1019,1019,1019,1019,708,708,175,2,2,2,2,0,2,1.3908091234976425,XAN,Pharmacokinetic concentration of Xanomeline,1,7,1.3908091234976425,ug/ml,0,0.01,N,0,,54,0,0,PATCH,3,TRANSDERMAL,3,1,Xanomeline Low Dose,2013-12-20T02:00:00,74.39,182.88,22.242424886084336,1.9439681067342642,68,M,1,WHITE,5,NOT HISPANIC OR LATINO,2,USA,United States of America,235,123.75999999999999,53.23188752424047,54.76146920889094,6.84,19,14,54,0.32988568102194465
176,XANOMELINE,1,CDISCPILOT01,1,01-708-1019,1019,1019,1019,708,708,176,4,4,4,4,0,2,1.751780744941618,XAN,Pharmacokinetic concentration of Xanomeline,1,8,1.751780744941618,ug/ml,0,0.01,N,0,,54,0,0,PATCH,3,TRANSDERMAL,3,1,Xanomeline Low Dose,2013-12-20T04:00:00,74.39,182.88,22.242424886084336,1.9439681067342642,68,M,1,WHITE,5,NOT HISPANIC OR LATINO,2,USA,United States of America,235,123.75999999999999,53.23188752424047,54.76146920889094,6.84,19,14,54,0.5606328391015698
177,XANOMELINE,1,CDISCPILOT01,1,01-708-1019,1019,1019,1019,708,708,177,6,6,6,6,0,2,1.8454675847001967,XAN,Pharmacokinetic concentration of Xanomeline,1,9,1.8454675847001967,ug/ml,0,0.01,N,0,,54,0,0,PATCH,3,TRANSDERMAL,3,1,Xanomeline Low Dose,2013-12-20T06:00:00,74.39,182.88,22.242424886084336,1.9439681067342642,68,M,1,WHITE,5,NOT HISPANIC OR LATINO,2,USA,United States of America,235,123.75999999999999,53.23188752424047,54.76146920889094,6.84,19,14,54,0.6127326788255016
178,XANOMELINE,1,CDISCPILOT01,1,01-708-1019,1019,1019,1019,708,708,178,6,6,3,3,0,3,27.98095673150577,XAN,Pharmacokinetic concentration of Xanomeline,1,10,27.98095673150577,ug/ml,0,0.01,N,0,,54,0,0,PATCH,3,TRANSDERMAL,3,1,Xanomeline Low Dose,2013-12-20T06:00:00,74.39,182.88,22.242424886084336,1.9439681067342642,68,M,1,WHITE,5,NOT HISPANIC OR LATINO,2,USA,United States of America,235,123.75999999999999,53.23188752424047,54.76146920889094,6.84,19,14,54,3.3315241620589644
179,XANOMELINE,1,CDISCPILOT01,1,01-708-1019,1019,1019,1019,708,708,179,8,8,8,8,0,2,1.869783135902916,XAN,Pharmacokinetic concentration of Xanomeline,1,11,1.869783135902916,ug/ml,0,0.01,N,0,,54,0,0,PATCH,3,TRANSDERMAL,3,1,Xanomeline Low Dose,2013-12-20T08:00:00,74.39,182.88,22.242424886084336,1.9439681067342642,68,M,1,WHITE,5,NOT HISPANIC OR LATINO,2,USA,United States of America,235,123.75999999999999,53.23188752424047,54.76146920889094,6.84,19,14,54,0.6258224540360501
180,XANOMELINE,1,CDISCPILOT01,1,01-708-1019,1019,1019,1019,708,708,180,12,12,12,12,0,2,0.582161410904313,XAN,Pharmacokinetic concentration of Xanomeline,1,12,0.582161410904313,ug/ml,0,0.01,N,0,,54,0,0,PATCH,3,TRANSDERMAL,3,1,Xanomeline Low Dose,2013-12-20T12:00:00,74.39,182.88,22.242424886084336,1.9439681067342642,68,M,1,WHITE,5,NOT HISPANIC OR LATINO,2,USA,United States of America,235,123.75999999999999,53.23188752424047,54.76146920889094,6.84,19,14,54,-0.5410075313783012
181,XANOMELINE,1,CDISCPILOT01,1,01-708-1019,1019,1019,1019,708,708,181,12,12,9,9,0,3,23.93443188434661,XAN,Pharmacokinetic concentration of Xanomeline,1,13,23.93443188434661,ug/ml,0,0.01,N,0,,54,0,0,PATCH,3,TRANSDERMAL,3,1,Xanomeline Low Dose,2013-12-20T12:00:00,74.39,182.88,22.242424886084336,1.9439681067342642,68,M,1,WHITE,5,NOT HISPANIC OR LATINO,2,USA,United States of America,235,123.75999999999999,53.23188752424047,54.76146920889094,6.84,19,14,54,3.1753180867928394
182,XANOMELINE,1,CDISCPILOT01,1,01-708-1019,1019,1019,1019,708,708,182,16,16,16,16,0,2,0.18043486952143575,XAN,Pharmacokinetic concentration of Xanomeline,1,14,0.18043486952143575,ug/ml,0,0.01,N,0,,54,0,0,PATCH,3,TRANSDERMAL,3,1,Xanomeline Low Dose,2013-12-20T16:00:00,74.39,182.88,22.242424886084336,1.9439681067342642,68,M,1,WHITE,5,NOT HISPANIC OR LATINO,2,USA,United States of America,235,123.75999999999999,53.23188752424047,54.76146920889094,6.84,19,14,54,-1.7123854000015932
183,XANOMELINE,1,CDISCPILOT01,1,01-708-1019,1019,1019,1019,708,708,183,24,24,24,24,0,2,0.017333033674148086,XAN,Pharmacokinetic concentration of Xanomeline,1,15,0.017333033674148086,ug/ml,0,0.01,N,0,,54,0,0,PATCH,3,TRANSDERMAL,3,1,Xanomeline Low Dose,2013-12-21T00:00:00,74.39,182.88,22.242424886084336,1.9439681067342642,68,M,1,WHITE,5,NOT HISPANIC OR LATINO,2,USA,United States of America,235,123.75999999999999,53.23188752424047,54.76146920889094,6.84,19,14,54,-4.055141137248177
184,XANOMELINE,1,CDISCPILOT01,1,01-708-1019,1019,1019,1019,708,708,184,24,24,18,18,0,3,15.841382190028284,XAN,Pharmacokinetic concentration of Xanomeline,1,16,15.841382190028284,ug/ml,0,0.01,N,0,,54,0,0,PATCH,3,TRANSDERMAL,3,1,Xanomeline Low Dose,2013-12-21T00:00:00,74.39,182.88,22.242424886084336,1.9439681067342642,68,M,1,WHITE,5,NOT HISPANIC OR LATINO,2,USA,United States of America,235,123.75999999999999,53.23188752424047,54.76146920889094,6.84,19,14,54,2.7626256420508764
185,XANOMELINE,1,CDISCPILOT01,1,01-708-1019,1019,1019,1019,708,708,185,24,0,24,0,1,1,,DOSE,Xanomeline Patch Dose,2,17,,,1,,N,0,54,54,1,1,PATCH,3,TRANSDERMAL,3,1,Xanomeline Low Dose,2013-12-21T00:00:00,74.39,182.88,22.242424886084336,1.9439681067342642,68,M,1,WHITE,5,NOT HISPANIC OR LATINO,2,USA,United States of America,235,123.75999999999999,53.23188752424047,54.76146920889094,6.84,19,14,54,
186,XANOMELINE,1,CDISCPILOT01,1,01-708-1019,1019,1019,1019,708,708,186,36,12,36,12,0,2,,XAN,Pharmacokinetic concentration of Xanomeline,1,18,,ug/ml,1,0.01,Y,1,,54,0,0,PATCH,3,TRANSDERMAL,3,1,Xanomeline Low Dose,2013-12-21T12:00:00,74.39,182.88,22.242424886084336,1.9439681067342642,68,M,1,WHITE,5,NOT HISPANIC OR LATINO,2,USA,United States of America,235,123.75999999999999,53.23188752424047,54.76146920889094,6.84,19,14,54,
187,XANOMELINE,1,CDISCPILOT01,1,01-708-1019,1019,1019,1019,708,708,187,48,24,48,24,0,2,,XAN,Pharmacokinetic concentration of Xanomeline,1,19,,ug/ml,1,0.01,Y,1,,54,0,0,PATCH,3,TRANSDERMAL,3,1,Xanomeline Low Dose,2013-12-22T00:00:00,74.39,182.88,22.242424886084336,1.9439681067342642,68,M,1,WHITE,5,NOT HISPANIC OR LATINO,2,USA,United States of America,235,123.75999999999999,53.23188752424047,54.76146920889094,6.84,19,14,54,
188,XANOMELINE,1,CDISCPILOT01,1,01-708-1019,1019,1019,1019,708,708,188,48,24,36,12,0,3,,XAN,Pharmacokinetic concentration of Xanomeline,1,20,,ug/ml,1,0.01,Y,1,,54,0,0,PATCH,3,TRANSDERMAL,3,1,Xanomeline Low Dose,2013-12-22T00:00:00,74.39,182.88,22.242424886084336,1.9439681067342642,68,M,1,WHITE,5,NOT HISPANIC OR LATINO,2,USA,United States of America,235,123.75999999999999,53.23188752424047,54.76146920889094,6.84,19,14,54,
189,XANOMELINE,1,CDISCPILOT01,1,01-708-1019,1019,1019,1019,708,708,189,48,0,48,0,1,1,,DOSE,Xanomeline Patch Dose,2,21,,,1,,N,0,54,54,1,1,PATCH,3,TRANSDERMAL,3,1,Xanomeline Low Dose,2013-12-22T00:00:00,74.39,182.88,22.242424886084336,1.9439681067342642,68,M,1,WHITE,5,NOT HISPANIC OR LATINO,2,USA,United States of America,235,123.75999999999999,53.23188752424047,54.76146920889094,6.84,19,14,54,
190,XANOMELINE,1,CDISCPILOT01,1,01-709-1020,1020,1020,1020,709,709,190,-0.5,-0.5,0,0,0,2,0,XAN,Pharmacokinetic concentration of Xanomeline,1,1,0,ug/ml,0,0.01,Y,1,,54,0,0,PATCH,3,TRANSDERMAL,3,1,Xanomeline Low Dose,2012-11-30T23:30:00,54.43,144.78,25.966964830205438,1.4795246421289057,72,F,2,WHITE,5,NOT HISPANIC OR LATINO,2,USA,United States of America,235,70.72,54.43,78.25712137139918,11.969999999999999,13,10,54,
191,XANOMELINE,1,CDISCPILOT01,1,01-709-1020,1020,1020,1020,709,709,191,0,0,0,0,1,1,,DOSE,Xanomeline Patch Dose,2,2,,,1,,N,0,54,54,1,1,PATCH,3,TRANSDERMAL,3,1,Xanomeline Low Dose,2012-12-01T00:00:00,54.43,144.78,25.966964830205438,1.4795246421289057,72,F,2,WHITE,5,NOT HISPANIC OR LATINO,2,USA,United States of America,235,70.72,54.43,78.25712137139918,11.969999999999999,13,10,54,
192,XANOMELINE,1,CDISCPILOT01,1,01-709-1020,1020,1020,1020,709,709,192,0.08333333333333333,0.08333333333333333,0.08333333333333333,0.08333333333333333,0,2,0.10630712375009872,XAN,Pharmacokinetic concentration of Xanomeline,1,3,0.10630712375009872,ug/ml,0,0.01,N,0,,54,0,0,PATCH,3,TRANSDERMAL,3,1,Xanomeline Low Dose,2012-12-01T00:05:00,54.43,144.78,25.966964830205438,1.4795246421289057,72,F,2,WHITE,5,NOT HISPANIC OR LATINO,2,USA,United States of America,235,70.72,54.43,78.25712137139918,11.969999999999999,13,10,54,-2.2414229803566386
193,XANOMELINE,1,CDISCPILOT01,1,01-709-1020,1020,1020,1020,709,709,193,0.5,0.5,0.5,0.5,0,2,0.5714218699531961,XAN,Pharmacokinetic concentration of Xanomeline,1,4,0.5714218699531961,ug/ml,0,0.01,N,0,,54,0,0,PATCH,3,TRANSDERMAL,3,1,Xanomeline Low Dose,2012-12-01T00:30:00,54.43,144.78,25.966964830205438,1.4795246421289057,72,F,2,WHITE,5,NOT HISPANIC OR LATINO,2,USA,United States of America,235,70.72,54.43,78.25712137139918,11.969999999999999,13,10,54,-0.5596275155860981
194,XANOMELINE,1,CDISCPILOT01,1,01-709-1020,1020,1020,1020,709,709,194,1,1,1,1,0,2,0.965174589171952,XAN,Pharmacokinetic concentration of Xanomeline,1,5,0.965174589171952,ug/ml,0,0.01,N,0,,54,0,0,PATCH,3,TRANSDERMAL,3,1,Xanomeline Low Dose,2012-12-01T01:00:00,54.43,144.78,25.966964830205438,1.4795246421289057,72,F,2,WHITE,5,NOT HISPANIC OR LATINO,2,USA,United States of America,235,70.72,54.43,78.25712137139918,11.969999999999999,13,10,54,-0.035446272585745904
195,XANOMELINE,1,CDISCPILOT01,1,01-709-1020,1020,1020,1020,709,709,195,1.5,1.5,1.5,1.5,0,2,1.2364998779727876,XAN,Pharmacokinetic concentration of Xanomeline,1,6,1.2364998779727876,ug/ml,0,0.01,N,0,,54,0,0,PATCH,3,TRANSDERMAL,3,1,Xanomeline Low Dose,2012-12-01T01:30:00,54.43,144.78,25.966964830205438,1.4795246421289057,72,F,2,WHITE,5,NOT HISPANIC OR LATINO,2,USA,United States of America,235,70.72,54.43,78.25712137139918,11.969999999999999,13,10,54,0.21228470929173301
196,XANOMELINE,1,CDISCPILOT01,1,01-709-1020,1020,1020,1020,709,709,196,2,2,2,2,0,2,1.4234634435550673,XAN,Pharmacokinetic concentration of Xanomeline,1,7,1.4234634435550673,ug/ml,0,0.01,N,0,,54,0,0,PATCH,3,TRANSDERMAL,3,1,Xanomeline Low Dose,2012-12-01T02:00:00,54.43,144.78,25.966964830205438,1.4795246421289057,72,F,2,WHITE,5,NOT HISPANIC OR LATINO,2,USA,United States of America,235,70.72,54.43,78.25712137139918,11.969999999999999,13,10,54,0.35309294672834163
197,XANOMELINE,1,CDISCPILOT01,1,01-709-1020,1020,1020,1020,709,709,197,4,4,4,4,0,2,1.7443955378182485,XAN,Pharmacokinetic concentration of Xanomeline,1,8,1.7443955378182485,ug/ml,0,0.01,N,0,,54,0,0,PATCH,3,TRANSDERMAL,3,1,Xanomeline Low Dose,2012-12-01T04:00:00,54.43,144.78,25.966964830205438,1.4795246421289057,72,F,2,WHITE,5,NOT HISPANIC OR LATINO,2,USA,United States of America,235,70.72,54.43,78.25712137139918,11.969999999999999,13,10,54,0.5564080989794469
198,XANOMELINE,1,CDISCPILOT01,1,01-709-1020,1020,1020,1020,709,709,198,6,6,6,6,0,2,1.8167524427984834,XAN,Pharmacokinetic concentration of Xanomeline,1,9,1.8167524427984834,ug/ml,0,0.01,N,0,,54,0,0,PATCH,3,TRANSDERMAL,3,1,Xanomeline Low Dose,2012-12-01T06:00:00,54.43,144.78,25.966964830205438,1.4795246421289057,72,F,2,WHITE,5,NOT HISPANIC OR LATINO,2,USA,United States of America,235,70.72,54.43,78.25712137139918,11.969999999999999,13,10,54,0.5970505351117411
199,XANOMELINE,1,CDISCPILOT01,1,01-709-1020,1020,1020,1020,709,709,199,6,6,3,3,0,3,24.531854637023798,XAN,Pharmacokinetic concentration of Xanomeline,1,10,24.531854637023798,ug/ml,0,0.01,N,0,,54,0,0,PATCH,3,TRANSDERMAL,3,1,Xanomeline Low Dose,2012-12-01T06:00:00,54.43,144.78,25.966964830205438,1.4795246421289057,72,F,2,WHITE,5,NOT HISPANIC OR LATINO,2,USA,United States of America,235,70.72,54.43,78.25712137139918,11.969999999999999,13,10,54,3.199972462302834
200,XANOMELINE,1,CDISCPILOT01,1,01-709-1020,1020,1020,1020,709,709,200,8,8,8,8,0,2,1.8330659302679706,XAN,Pharmacokinetic concentration of Xanomeline,1,11,1.8330659302679706,ug/ml,0,0.01,N,0,,54,0,0,PATCH,3,TRANSDERMAL,3,1,Xanomeline Low Dose,2012-12-01T08:00:00,54.43,144.78,25.966964830205438,1.4795246421289057,72,F,2,WHITE,5,NOT HISPANIC OR LATINO,2,USA,United States of America,235,70.72,54.43,78.25712137139918,11.969999999999999,13,10,54,0.6059899367147924
201,XANOMELINE,1,CDISCPILOT01,1,01-709-1020,1020,1020,1020,709,709,201,12,12,12,12,0,2,0.5040619491308312,XAN,Pharmacokinetic concentration of Xanomeline,1,12,0.5040619491308312,ug/ml,0,0.01,N,0,,54,0,0,PATCH,3,TRANSDERMAL,3,1,Xanomeline Low Dose,2012-12-01T12:00:00,54.43,144.78,25.966964830205438,1.4795246421289057,72,F,2,WHITE,5,NOT HISPANIC OR LATINO,2,USA,United States of America,235,70.72,54.43,78.25712137139918,11.969999999999999,13,10,54,-0.6850561035220655
202,XANOMELINE,1,CDISCPILOT01,1,01-709-1020,1020,1020,1020,709,709,202,12,12,9,9,0,3,20.062998629092046,XAN,Pharmacokinetic concentration of Xanomeline,1,13,20.062998629092046,ug/ml,0,0.01,N,0,,54,0,0,PATCH,3,TRANSDERMAL,3,1,Xanomeline Low Dose,2012-12-01T12:00:00,54.43,144.78,25.966964830205438,1.4795246421289057,72,F,2,WHITE,5,NOT HISPANIC OR LATINO,2,USA,United States of America,235,70.72,54.43,78.25712137139918,11.969999999999999,13,10,54,2.998877254367904
203,XANOMELINE,1,CDISCPILOT01,1,01-709-1020,1020,1020,1020,709,709,203,16,16,16,16,0,2,0.1382503180784109,XAN,Pharmacokinetic concentration of Xanomeline,1,14,0.1382503180784109,ug/ml,0,0.01,N,0,,54,0,0,PATCH,3,TRANSDERMAL,3,1,Xanomeline Low Dose,2012-12-01T16:00:00,54.43,144.78,25.966964830205438,1.4795246421289057,72,F,2,WHITE,5,NOT HISPANIC OR LATINO,2,USA,United States of America,235,70.72,54.43,78.25712137139918,11.969999999999999,13,10,54,-1.9786893378343404
204,XANOMELINE,1,CDISCPILOT01,1,01-709-1020,1020,1020,1020,709,709,204,24,24,24,24,0,2,0.010399934130518162,XAN,Pharmacokinetic concentration of Xanomeline,1,15,0.010399934130518162,ug/ml,0,0.01,N,0,,54,0,0,PATCH,3,TRANSDERMAL,3,1,Xanomeline Low Dose,2012-12-02T00:00:00,54.43,144.78,25.966964830205438,1.4795246421289057,72,F,2,WHITE,5,NOT HISPANIC OR LATINO,2,USA,United States of America,235,70.72,54.43,78.25712137139918,11.969999999999999,13,10,54,-4.5659558064588905
205,XANOMELINE,1,CDISCPILOT01,1,01-709-1020,1020,1020,1020,709,709,205,24,24,18,18,0,3,11.125286613228539,XAN,Pharmacokinetic concentration of Xanomeline,1,16,11.125286613228539,ug/ml,0,0.01,N,0,,54,0,0,PATCH,3,TRANSDERMAL,3,1,Xanomeline Low Dose,2012-12-02T00:00:00,54.43,144.78,25.966964830205438,1.4795246421289057,72,F,2,WHITE,5,NOT HISPANIC OR LATINO,2,USA,United States of America,235,70.72,54.43,78.25712137139918,11.969999999999999,13,10,54,2.409220590707279
206,XANOMELINE,1,CDISCPILOT01,1,01-709-1020,1020,1020,1020,709,709,206,24,0,24,0,1,1,,DOSE,Xanomeline Patch Dose,2,17,,,1,,N,0,54,54,1,1,PATCH,3,TRANSDERMAL,3,1,Xanomeline Low Dose,2012-12-02T00:00:00,54.43,144.78,25.966964830205438,1.4795246421289057,72,F,2,WHITE,5,NOT HISPANIC OR LATINO,2,USA,United States of America,235,70.72,54.43,78.25712137139918,11.969999999999999,13,10,54,
207,XANOMELINE,1,CDISCPILOT01,1,01-709-1020,1020,1020,1020,709,709,207,36,12,36,12,0,2,,XAN,Pharmacokinetic concentration of Xanomeline,1,18,,ug/ml,1,0.01,Y,1,,54,0,0,PATCH,3,TRANSDERMAL,3,1,Xanomeline Low Dose,2012-12-02T12:00:00,54.43,144.78,25.966964830205438,1.4795246421289057,72,F,2,WHITE,5,NOT HISPANIC OR LATINO,2,USA,United States of America,235,70.72,54.43,78.25712137139918,11.969999999999999,13,10,54,
208,XANOMELINE,1,CDISCPILOT01,1,01-709-1020,1020,1020,1020,709,709,208,48,24,48,24,0,2,,XAN,Pharmacokinetic concentration of Xanomeline,1,19,,ug/ml,1,0.01,Y,1,,54,0,0,PATCH,3,TRANSDERMAL,3,1,Xanomeline Low Dose,2012-12-03T00:00:00,54.43,144.78,25.966964830205438,1.4795246421289057,72,F,2,WHITE,5,NOT HISPANIC OR LATINO,2,USA,United States of America,235,70.72,54.43,78.25712137139918,11.969999999999999,13,10,54,
209,XANOMELINE,1,CDISCPILOT01,1,01-709-1020,1020,1020,1020,709,709,209,48,24,36,12,0,3,,XAN,Pharmacokinetic concentration of Xanomeline,1,20,,ug/ml,1,0.01,Y,1,,54,0,0,PATCH,3,TRANSDERMAL,3,1,Xanomeline Low Dose,2012-12-03T00:00:00,54.43,144.78,25.966964830205438,1.4795246421289057,72,F,2,WHITE,5,NOT HISPANIC OR LATINO,2,USA,United States of America,235,70.72,54.43,78.25712137139918,11.969999999999999,13,10,54,
210,XANOMELINE,1,CDISCPILOT01,1,01-709-1020,1020,1020,1020,709,709,210,48,0,48,0,1,1,,DOSE,Xanomeline Patch Dose,2,21,,,1,,N,0,54,54,1,1,PATCH,3,TRANSDERMAL,3,1,Xanomeline Low Dose,2012-12-03T00:00:00,54.43,144.78,25.966964830205438,1.4795246421289057,72,F,2,WHITE,5,NOT HISPANIC OR LATINO,2,USA,United States of America,235,70.72,54.43,78.25712137139918,11.969999999999999,13,10,54,
211,XANOMELINE,1,CDISCPILOT01,1,01-710-1021,1021,1021,1021,710,710,211,-0.5,-0.5,0,0,0,2,0,XAN,Pharmacokinetic concentration of Xanomeline,1,1,0,ug/ml,0,0.01,Y,1,,54,0,0,PATCH,3,TRANSDERMAL,3,2,Xanomeline High Dose,2013-09-26T23:30:00,56.25,162.56,21.28605331429413,1.5937377450509227,79,M,1,BLACK OR AFRICAN AMERICAN,3,NOT HISPANIC OR LATINO,2,USA,United States of America,235,123.75999999999999,34.10178975436329,51.140386732848064,8.549999999999999,16,11,81,
212,XANOMELINE,1,CDISCPILOT01,1,01-710-1021,1021,1021,1021,710,710,212,0,0,0,0,1,1,,DOSE,Xanomeline Patch Dose,2,2,,,1,,N,0,54,54,1,1,PATCH,3,TRANSDERMAL,3,2,Xanomeline High Dose,2013-09-27T00:00:00,56.25,162.56,21.28605331429413,1.5937377450509227,79,M,1,BLACK OR AFRICAN AMERICAN,3,NOT HISPANIC OR LATINO,2,USA,United States of America,235,123.75999999999999,34.10178975436329,51.140386732848064,8.549999999999999,16,11,81,
213,XANOMELINE,1,CDISCPILOT01,1,01-710-1021,1021,1021,1021,710,710,213,0.08333333333333333,0.08333333333333333,0.08333333333333333,0.08333333333333333,0,2,0.10028441197973478,XAN,Pharmacokinetic concentration of Xanomeline,1,3,0.10028441197973478,ug/ml,0,0.01,N,0,,54,0,0,PATCH,3,TRANSDERMAL,3,2,Xanomeline High Dose,2013-09-27T00:05:00,56.25,162.56,21.28605331429413,1.5937377450509227,79,M,1,BLACK OR AFRICAN AMERICAN,3,NOT HISPANIC OR LATINO,2,USA,United States of America,235,123.75999999999999,34.10178975436329,51.140386732848064,8.549999999999999,16,11,81,-2.299745010053018
214,XANOMELINE,1,CDISCPILOT01,1,01-710-1021,1021,1021,1021,710,710,214,0.5,0.5,0.5,0.5,0,2,0.5403846927441889,XAN,Pharmacokinetic concentration of Xanomeline,1,4,0.5403846927441889,ug/ml,0,0.01,N,0,,54,0,0,PATCH,3,TRANSDERMAL,3,2,Xanomeline High Dose,2013-09-27T00:30:00,56.25,162.56,21.28605331429413,1.5937377450509227,79,M,1,BLACK OR AFRICAN AMERICAN,3,NOT HISPANIC OR LATINO,2,USA,United States of America,235,123.75999999999999,34.10178975436329,51.140386732848064,8.549999999999999,16,11,81,-0.6154739990852314
215,XANOMELINE,1,CDISCPILOT01,1,01-710-1021,1021,1021,1021,710,710,215,1,1,1,1,0,2,0.9151210510923806,XAN,Pharmacokinetic concentration of Xanomeline,1,5,0.9151210510923806,ug/ml,0,0.01,N,0,,54,0,0,PATCH,3,TRANSDERMAL,3,2,Xanomeline High Dose,2013-09-27T01:00:00,56.25,162.56,21.28605331429413,1.5937377450509227,79,M,1,BLACK OR AFRICAN AMERICAN,3,NOT HISPANIC OR LATINO,2,USA,United States of America,235,123.75999999999999,34.10178975436329,51.140386732848064,8.549999999999999,16,11,81,-0.08869892618117046
216,XANOMELINE,1,CDISCPILOT01,1,01-710-1021,1021,1021,1021,710,710,216,1.5,1.5,1.5,1.5,0,2,1.1749865508994608,XAN,Pharmacokinetic concentration of Xanomeline,1,6,1.1749865508994608,ug/ml,0,0.01,N,0,,54,0,0,PATCH,3,TRANSDERMAL,3,2,Xanomeline High Dose,2013-09-27T01:30:00,56.25,162.56,21.28605331429413,1.5937377450509227,79,M,1,BLACK OR AFRICAN AMERICAN,3,NOT HISPANIC OR LATINO,2,USA,United States of America,235,123.75999999999999,34.10178975436329,51.140386732848064,8.549999999999999,16,11,81,0.16125670148760374
217,XANOMELINE,1,CDISCPILOT01,1,01-710-1021,1021,1021,1021,710,710,217,2,2,2,2,0,2,1.3551934523265092,XAN,Pharmacokinetic concentration of Xanomeline,1,7,1.3551934523265092,ug/ml,0,0.01,N,0,,54,0,0,PATCH,3,TRANSDERMAL,3,2,Xanomeline High Dose,2013-09-27T02:00:00,56.25,162.56,21.28605331429413,1.5937377450509227,79,M,1,BLACK OR AFRICAN AMERICAN,3,NOT HISPANIC OR LATINO,2,USA,United States of America,235,123.75999999999999,34.10178975436329,51.140386732848064,8.549999999999999,16,11,81,0.3039442133857618
218,XANOMELINE,1,CDISCPILOT01,1,01-710-1021,1021,1021,1021,710,710,218,4,4,4,4,0,2,1.6685887451296717,XAN,Pharmacokinetic concentration of Xanomeline,1,8,1.6685887451296717,ug/ml,0,0.01,N,0,,54,0,0,PATCH,3,TRANSDERMAL,3,2,Xanomeline High Dose,2013-09-27T04:00:00,56.25,162.56,21.28605331429413,1.5937377450509227,79,M,1,BLACK OR AFRICAN AMERICAN,3,NOT HISPANIC OR LATINO,2,USA,United States of America,235,123.75999999999999,34.10178975436329,51.140386732848064,8.549999999999999,16,11,81,0.5119782063652054
219,XANOMELINE,1,CDISCPILOT01,1,01-710-1021,1021,1021,1021,710,710,219,6,6,6,6,0,2,1.7410629807323956,XAN,Pharmacokinetic concentration of Xanomeline,1,9,1.7410629807323956,ug/ml,0,0.01,N,0,,54,0,0,PATCH,3,TRANSDERMAL,3,2,Xanomeline High Dose,2013-09-27T06:00:00,56.25,162.56,21.28605331429413,1.5937377450509227,79,M,1,BLACK OR AFRICAN AMERICAN,3,NOT HISPANIC OR LATINO,2,USA,United States of America,235,123.75999999999999,34.10178975436329,51.140386732848064,8.549999999999999,16,11,81,0.5544958351647183
220,XANOMELINE,1,CDISCPILOT01,1,01-710-1021,1021,1021,1021,710,710,220,6,6,3,3,0,3,25.110774780112763,XAN,Pharmacokinetic concentration of Xanomeline,1,10,25.110774780112763,ug/ml,0,0.01,N,0,,54,0,0,PATCH,3,TRANSDERMAL,3,2,Xanomeline High Dose,2013-09-27T06:00:00,56.25,162.56,21.28605331429413,1.5937377450509227,79,M,1,BLACK OR AFRICAN AMERICAN,3,NOT HISPANIC OR LATINO,2,USA,United States of America,235,123.75999999999999,34.10178975436329,51.140386732848064,8.549999999999999,16,11,81,3.2232970281340463
221,XANOMELINE,1,CDISCPILOT01,1,01-710-1021,1021,1021,1021,710,710,221,8,8,8,8,0,2,1.7578230117437679,XAN,Pharmacokinetic concentration of Xanomeline,1,11,1.7578230117437679,ug/ml,0,0.01,N,0,,54,0,0,PATCH,3,TRANSDERMAL,3,2,Xanomeline High Dose,2013-09-27T08:00:00,56.25,162.56,21.28605331429413,1.5937377450509227,79,M,1,BLACK OR AFRICAN AMERICAN,3,NOT HISPANIC OR LATINO,2,USA,United States of America,235,123.75999999999999,34.10178975436329,51.140386732848064,8.549999999999999,16,11,81,0.5640761182811551
222,XANOMELINE,1,CDISCPILOT01,1,01-710-1021,1021,1021,1021,710,710,222,12,12,12,12,0,2,0.49428237574976686,XAN,Pharmacokinetic concentration of Xanomeline,1,12,0.49428237574976686,ug/ml,0,0.01,N,0,,54,0,0,PATCH,3,TRANSDERMAL,3,2,Xanomeline High Dose,2013-09-27T12:00:00,56.25,162.56,21.28605331429413,1.5937377450509227,79,M,1,BLACK OR AFRICAN AMERICAN,3,NOT HISPANIC OR LATINO,2,USA,United States of America,235,123.75999999999999,34.10178975436329,51.140386732848064,8.549999999999999,16,11,81,-0.7046483142719681
223,XANOMELINE,1,CDISCPILOT01,1,01-710-1021,1021,1021,1021,710,710,223,12,12,9,9,0,3,20.71807223311763,XAN,Pharmacokinetic concentration of Xanomeline,1,13,20.71807223311763,ug/ml,0,0.01,N,0,,54,0,0,PATCH,3,TRANSDERMAL,3,2,Xanomeline High Dose,2013-09-27T12:00:00,56.25,162.56,21.28605331429413,1.5937377450509227,79,M,1,BLACK OR AFRICAN AMERICAN,3,NOT HISPANIC OR LATINO,2,USA,United States of America,235,123.75999999999999,34.10178975436329,51.140386732848064,8.549999999999999,16,11,81,3.0310063741206923
224,XANOMELINE,1,CDISCPILOT01,1,01-710-1021,1021,1021,1021,710,710,224,16,16,16,16,0,2,0.13858979340153274,XAN,Pharmacokinetic concentration of Xanomeline,1,14,0.13858979340153274,ug/ml,0,0.01,N,0,,54,0,0,PATCH,3,TRANSDERMAL,3,2,Xanomeline High Dose,2013-09-27T16:00:00,56.25,162.56,21.28605331429413,1.5937377450509227,79,M,1,BLACK OR AFRICAN AMERICAN,3,NOT HISPANIC OR LATINO,2,USA,United States of America,235,123.75999999999999,34.10178975436329,51.140386732848064,8.549999999999999,16,11,81,-1.9762368356195243
225,XANOMELINE,1,CDISCPILOT01,1,01-710-1021,1021,1021,1021,710,710,225,24,24,24,24,0,2,0.010895407832224641,XAN,Pharmacokinetic concentration of Xanomeline,1,15,0.010895407832224641,ug/ml,0,0.01,N,0,,54,0,0,PATCH,3,TRANSDERMAL,3,2,Xanomeline High Dose,2013-09-28T00:00:00,56.25,162.56,21.28605331429413,1.5937377450509227,79,M,1,BLACK OR AFRICAN AMERICAN,3,NOT HISPANIC OR LATINO,2,USA,United States of America,235,123.75999999999999,34.10178975436329,51.140386732848064,8.549999999999999,16,11,81,-4.519413878314636
226,XANOMELINE,1,CDISCPILOT01,1,01-710-1021,1021,1021,1021,710,710,226,24,24,18,18,0,3,11.932667139127364,XAN,Pharmacokinetic concentration of Xanomeline,1,16,11.932667139127364,ug/ml,0,0.01,N,0,,54,0,0,PATCH,3,TRANSDERMAL,3,2,Xanomeline High Dose,2013-09-28T00:00:00,56.25,162.56,21.28605331429413,1.5937377450509227,79,M,1,BLACK OR AFRICAN AMERICAN,3,NOT HISPANIC OR LATINO,2,USA,United States of America,235,123.75999999999999,34.10178975436329,51.140386732848064,8.549999999999999,16,11,81,2.4792797768500883
227,XANOMELINE,1,CDISCPILOT01,1,01-710-1021,1021,1021,1021,710,710,227,24,0,24,0,1,1,,DOSE,Xanomeline Patch Dose,2,17,,,1,,N,0,54,54,1,1,PATCH,3,TRANSDERMAL,3,2,Xanomeline High Dose,2013-09-28T00:00:00,56.25,162.56,21.28605331429413,1.5937377450509227,79,M,1,BLACK OR AFRICAN AMERICAN,3,NOT HISPANIC OR LATINO,2,USA,United States of America,235,123.75999999999999,34.10178975436329,51.140386732848064,8.549999999999999,16,11,81,
228,XANOMELINE,1,CDISCPILOT01,1,01-710-1021,1021,1021,1021,710,710,228,36,12,36,12,0,2,,XAN,Pharmacokinetic concentration of Xanomeline,1,18,,ug/ml,1,0.01,Y,1,,54,0,0,PATCH,3,TRANSDERMAL,3,2,Xanomeline High Dose,2013-09-28T12:00:00,56.25,162.56,21.28605331429413,1.5937377450509227,79,M,1,BLACK OR AFRICAN AMERICAN,3,NOT HISPANIC OR LATINO,2,USA,United States of America,235,123.75999999999999,34.10178975436329,51.140386732848064,8.549999999999999,16,11,81,
229,XANOMELINE,1,CDISCPILOT01,1,01-710-1021,1021,1021,1021,710,710,229,48,24,48,24,0,2,,XAN,Pharmacokinetic concentration of Xanomeline,1,19,,ug/ml,1,0.01,Y,1,,54,0,0,PATCH,3,TRANSDERMAL,3,2,Xanomeline High Dose,2013-09-29T00:00:00,56.25,162.56,21.28605331429413,1.5937377450509227,79,M,1,BLACK OR AFRICAN AMERICAN,3,NOT HISPANIC OR LATINO,2,USA,United States of America,235,123.75999999999999,34.10178975436329,51.140386732848064,8.549999999999999,16,11,81,
230,XANOMELINE,1,CDISCPILOT01,1,01-710-1021,1021,1021,1021,710,710,230,48,24,36,12,0,3,,XAN,Pharmacokinetic concentration of Xanomeline,1,20,,ug/ml,1,0.01,Y,1,,54,0,0,PATCH,3,TRANSDERMAL,3,2,Xanomeline High Dose,2013-09-29T00:00:00,56.25,162.56,21.28605331429413,1.5937377450509227,79,M,1,BLACK OR AFRICAN AMERICAN,3,NOT HISPANIC OR LATINO,2,USA,United States of America,235,123.75999999999999,34.10178975436329,51.140386732848064,8.549999999999999,16,11,81,
231,XANOMELINE,1,CDISCPILOT01,1,01-710-1021,1021,1021,1021,710,710,231,48,0,48,0,1,1,,DOSE,Xanomeline Patch Dose,2,21,,,1,,N,0,54,54,1,1,PATCH,3,TRANSDERMAL,3,2,Xanomeline High Dose,2013-09-29T00:00:00,56.25,162.56,21.28605331429413,1.5937377450509227,79,M,1,BLACK OR AFRICAN AMERICAN,3,NOT HISPANIC OR LATINO,2,USA,United States of America,235,123.75999999999999,34.10178975436329,51.140386732848064,8.549999999999999,16,11,81,
232,XANOMELINE,1,CDISCPILOT01,1,01-704-1025,1025,1025,1025,704,704,232,-0.5,-0.5,0,0,0,2,0,XAN,Pharmacokinetic concentration of Xanomeline,1,1,0,ug/ml,0,0.01,Y,1,,54,0,0,PATCH,3,TRANSDERMAL,3,1,Xanomeline Low Dose,2013-09-26T23:30:00,55.52,166,20.148062128030194,1.6000277775366554,81,F,2,WHITE,5,NOT HISPANIC OR LATINO,2,USA,United States of America,235,79.55999999999999,42.81934640522877,64.24388165668196,8.549999999999999,30,19,54,
233,XANOMELINE,1,CDISCPILOT01,1,01-704-1025,1025,1025,1025,704,704,233,0,0,0,0,1,1,,DOSE,Xanomeline Patch Dose,2,2,,,1,,N,0,54,54,1,1,PATCH,3,TRANSDERMAL,3,1,Xanomeline Low Dose,2013-09-27T00:00:00,55.52,166,20.148062128030194,1.6000277775366554,81,F,2,WHITE,5,NOT HISPANIC OR LATINO,2,USA,United States of America,235,79.55999999999999,42.81934640522877,64.24388165668196,8.549999999999999,30,19,54,
234,XANOMELINE,1,CDISCPILOT01,1,01-704-1025,1025,1025,1025,704,704,234,0.08333333333333333,0.08333333333333333,0.08333333333333333,0.08333333333333333,0,2,0.09848109024302053,XAN,Pharmacokinetic concentration of Xanomeline,1,3,0.09848109024302053,ug/ml,0,0.01,N,0,,54,0,0,PATCH,3,TRANSDERMAL,3,1,Xanomeline Low Dose,2013-09-27T00:05:00,55.52,166,20.148062128030194,1.6000277775366554,81,F,2,WHITE,5,NOT HISPANIC OR LATINO,2,USA,United States of America,235,79.55999999999999,42.81934640522877,64.24388165668196,8.549999999999999,30,19,54,-2.3178907264622985
235,XANOMELINE,1,CDISCPILOT01,1,01-704-1025,1025,1025,1025,704,704,235,0.5,0.5,0.5,0.5,0,2,0.5363058728361495,XAN,Pharmacokinetic concentration of Xanomeline,1,4,0.5363058728361495,ug/ml,0,0.01,N,0,,54,0,0,PATCH,3,TRANSDERMAL,3,1,Xanomeline Low Dose,2013-09-27T00:30:00,55.52,166,20.148062128030194,1.6000277775366554,81,F,2,WHITE,5,NOT HISPANIC OR LATINO,2,USA,United States of America,235,79.55999999999999,42.81934640522877,64.24388165668196,8.549999999999999,30,19,54,-0.6230506223984523
236,XANOMELINE,1,CDISCPILOT01,1,01-704-1025,1025,1025,1025,704,704,236,1,1,1,1,0,2,0.9183924164198501,XAN,Pharmacokinetic concentration of Xanomeline,1,5,0.9183924164198501,ug/ml,0,0.01,N,0,,54,0,0,PATCH,3,TRANSDERMAL,3,1,Xanomeline Low Dose,2013-09-27T01:00:00,55.52,166,20.148062128030194,1.6000277775366554,81,F,2,WHITE,5,NOT HISPANIC OR LATINO,2,USA,United States of America,235,79.55999999999999,42.81934640522877,64.24388165668196,8.549999999999999,30,19,54,-0.08513051083349481
237,XANOMELINE,1,CDISCPILOT01,1,01-704-1025,1025,1025,1025,704,704,237,1.5,1.5,1.5,1.5,0,2,1.1906067146069996,XAN,Pharmacokinetic concentration of Xanomeline,1,6,1.1906067146069996,ug/ml,0,0.01,N,0,,54,0,0,PATCH,3,TRANSDERMAL,3,1,Xanomeline Low Dose,2013-09-27T01:30:00,55.52,166,20.148062128030194,1.6000277775366554,81,F,2,WHITE,5,NOT HISPANIC OR LATINO,2,USA,United States of America,235,79.55999999999999,42.81934640522877,64.24388165668196,8.549999999999999,30,19,54,0.17446302140460235
238,XANOMELINE,1,CDISCPILOT01,1,01-704-1025,1025,1025,1025,704,704,238,2,2,2,2,0,2,1.3845434689415312,XAN,Pharmacokinetic concentration of Xanomeline,1,7,1.3845434689415312,ug/ml,0,0.01,N,0,,54,0,0,PATCH,3,TRANSDERMAL,3,1,Xanomeline Low Dose,2013-09-27T02:00:00,55.52,166,20.148062128030194,1.6000277775366554,81,F,2,WHITE,5,NOT HISPANIC OR LATINO,2,USA,United States of America,235,79.55999999999999,42.81934640522877,64.24388165668196,8.549999999999999,30,19,54,0.3253704599879633
239,XANOMELINE,1,CDISCPILOT01,1,01-704-1025,1025,1025,1025,704,704,239,4,4,4,4,0,2,1.7412436714027697,XAN,Pharmacokinetic concentration of Xanomeline,1,8,1.7412436714027697,ug/ml,0,0.01,N,0,,54,0,0,PATCH,3,TRANSDERMAL,3,1,Xanomeline Low Dose,2013-09-27T04:00:00,55.52,166,20.148062128030194,1.6000277775366554,81,F,2,WHITE,5,NOT HISPANIC OR LATINO,2,USA,United States of America,235,79.55999999999999,42.81934640522877,64.24388165668196,8.549999999999999,30,19,54,0.5545996115914299
240,XANOMELINE,1,CDISCPILOT01,1,01-704-1025,1025,1025,1025,704,704,240,6,6,6,6,0,2,1.8331404137514653,XAN,Pharmacokinetic concentration of Xanomeline,1,9,1.8331404137514653,ug/ml,0,0.01,N,0,,54,0,0,PATCH,3,TRANSDERMAL,3,1,Xanomeline Low Dose,2013-09-27T06:00:00,55.52,166,20.148062128030194,1.6000277775366554,81,F,2,WHITE,5,NOT HISPANIC OR LATINO,2,USA,United States of America,235,79.55999999999999,42.81934640522877,64.24388165668196,8.549999999999999,30,19,54,0.6060305691705332
241,XANOMELINE,1,CDISCPILOT01,1,01-704-1025,1025,1025,1025,704,704,241,6,6,3,3,0,3,27.78431219123781,XAN,Pharmacokinetic concentration of Xanomeline,1,10,27.78431219123781,ug/ml,0,0.01,N,0,,54,0,0,PATCH,3,TRANSDERMAL,3,1,Xanomeline Low Dose,2013-09-27T06:00:00,55.52,166,20.148062128030194,1.6000277775366554,81,F,2,WHITE,5,NOT HISPANIC OR LATINO,2,USA,United States of America,235,79.55999999999999,42.81934640522877,64.24388165668196,8.549999999999999,30,19,54,3.32447155174626
242,XANOMELINE,1,CDISCPILOT01,1,01-704-1025,1025,1025,1025,704,704,242,8,8,8,8,0,2,1.8568157893078336,XAN,Pharmacokinetic concentration of Xanomeline,1,11,1.8568157893078336,ug/ml,0,0.01,N,0,,54,0,0,PATCH,3,TRANSDERMAL,3,1,Xanomeline Low Dose,2013-09-27T08:00:00,55.52,166,20.148062128030194,1.6000277775366554,81,F,2,WHITE,5,NOT HISPANIC OR LATINO,2,USA,United States of America,235,79.55999999999999,42.81934640522877,64.24388165668196,8.549999999999999,30,19,54,0.6188630794468009
243,XANOMELINE,1,CDISCPILOT01,1,01-704-1025,1025,1025,1025,704,704,243,12,12,12,12,0,2,0.5743501673389393,XAN,Pharmacokinetic concentration of Xanomeline,1,12,0.5743501673389393,ug/ml,0,0.01,N,0,,54,0,0,PATCH,3,TRANSDERMAL,3,1,Xanomeline Low Dose,2013-09-27T12:00:00,55.52,166,20.148062128030194,1.6000277775366554,81,F,2,WHITE,5,NOT HISPANIC OR LATINO,2,USA,United States of America,235,79.55999999999999,42.81934640522877,64.24388165668196,8.549999999999999,30,19,54,-0.5545160210371678
244,XANOMELINE,1,CDISCPILOT01,1,01-704-1025,1025,1025,1025,704,704,244,12,12,9,9,0,3,23.71562195420742,XAN,Pharmacokinetic concentration of Xanomeline,1,13,23.71562195420742,ug/ml,0,0.01,N,0,,54,0,0,PATCH,3,TRANSDERMAL,3,1,Xanomeline Low Dose,2013-09-27T12:00:00,55.52,166,20.148062128030194,1.6000277775366554,81,F,2,WHITE,5,NOT HISPANIC OR LATINO,2,USA,United States of America,235,79.55999999999999,42.81934640522877,64.24388165668196,8.549999999999999,30,19,54,3.166133985180349
245,XANOMELINE,1,CDISCPILOT01,1,01-704-1025,1025,1025,1025,704,704,245,16,16,16,16,0,2,0.17687530766196952,XAN,Pharmacokinetic concentration of Xanomeline,1,14,0.17687530766196952,ug/ml,0,0.01,N,0,,54,0,0,PATCH,3,TRANSDERMAL,3,1,Xanomeline Low Dose,2013-09-27T16:00:00,55.52,166,20.148062128030194,1.6000277775366554,81,F,2,WHITE,5,NOT HISPANIC OR LATINO,2,USA,United States of America,235,79.55999999999999,42.81934640522877,64.24388165668196,8.549999999999999,30,19,54,-1.732310271154518
246,XANOMELINE,1,CDISCPILOT01,1,01-704-1025,1025,1025,1025,704,704,246,24,24,24,24,0,2,0.01677444349416369,XAN,Pharmacokinetic concentration of Xanomeline,1,15,0.01677444349416369,ug/ml,0,0.01,N,0,,54,0,0,PATCH,3,TRANSDERMAL,3,1,Xanomeline Low Dose,2013-09-28T00:00:00,55.52,166,20.148062128030194,1.6000277775366554,81,F,2,WHITE,5,NOT HISPANIC OR LATINO,2,USA,United States of America,235,79.55999999999999,42.81934640522877,64.24388165668196,8.549999999999999,30,19,54,-4.087898771389219
247,XANOMELINE,1,CDISCPILOT01,1,01-704-1025,1025,1025,1025,704,704,247,24,24,18,18,0,3,15.578241480146648,XAN,Pharmacokinetic concentration of Xanomeline,1,16,15.578241480146648,ug/ml,0,0.01,N,0,,54,0,0,PATCH,3,TRANSDERMAL,3,1,Xanomeline Low Dose,2013-09-28T00:00:00,55.52,166,20.148062128030194,1.6000277775366554,81,F,2,WHITE,5,NOT HISPANIC OR LATINO,2,USA,United States of America,235,79.55999999999999,42.81934640522877,64.24388165668196,8.549999999999999,30,19,54,2.745875163735081
248,XANOMELINE,1,CDISCPILOT01,1,01-704-1025,1025,1025,1025,704,704,248,24,0,24,0,1,1,,DOSE,Xanomeline Patch Dose,2,17,,,1,,N,0,54,54,1,1,PATCH,3,TRANSDERMAL,3,1,Xanomeline Low Dose,2013-09-28T00:00:00,55.52,166,20.148062128030194,1.6000277775366554,81,F,2,WHITE,5,NOT HISPANIC OR LATINO,2,USA,United States of America,235,79.55999999999999,42.81934640522877,64.24388165668196,8.549999999999999,30,19,54,
249,XANOMELINE,1,CDISCPILOT01,1,01-704-1025,1025,1025,1025,704,704,249,36,12,36,12,0,2,,XAN,Pharmacokinetic concentration of Xanomeline,1,18,,ug/ml,1,0.01,Y,1,,54,0,0,PATCH,3,TRANSDERMAL,3,1,Xanomeline Low Dose,2013-09-28T12:00:00,55.52,166,20.148062128030194,1.6000277775366554,81,F,2,WHITE,5,NOT HISPANIC OR LATINO,2,USA,United States of America,235,79.55999999999999,42.81934640522877,64.24388165668196,8.549999999999999,30,19,54,
250,XANOMELINE,1,CDISCPILOT01,1,01-704-1025,1025,1025,1025,704,704,250,48,24,48,24,0,2,,XAN,Pharmacokinetic concentration of Xanomeline,1,19,,ug/ml,1,0.01,Y,1,,54,0,0,PATCH,3,TRANSDERMAL,3,1,Xanomeline Low Dose,2013-09-29T00:00:00,55.52,166,20.148062128030194,1.6000277775366554,81,F,2,WHITE,5,NOT HISPANIC OR LATINO,2,USA,United States of America,235,79.55999999999999,42.81934640522877,64.24388165668196,8.549999999999999,30,19,54,
251,XANOMELINE,1,CDISCPILOT01,1,01-704-1025,1025,1025,1025,704,704,251,48,24,36,12,0,3,,XAN,Pharmacokinetic concentration of Xanomeline,1,20,,ug/ml,1,0.01,Y,1,,54,0,0,PATCH,3,TRANSDERMAL,3,1,Xanomeline Low Dose,2013-09-29T00:00:00,55.52,166,20.148062128030194,1.6000277775366554,81,F,2,WHITE,5,NOT HISPANIC OR LATINO,2,USA,United States of America,235,79.55999999999999,42.81934640522877,64.24388165668196,8.549999999999999,30,19,54,
252,XANOMELINE,1,CDISCPILOT01,1,01-704-1025,1025,1025,1025,704,704,252,48,0,48,0,1,1,,DOSE,Xanomeline Patch Dose,2,21,,,1,,N,0,54,54,1,1,PATCH,3,TRANSDERMAL,3,1,Xanomeline Low Dose,2013-09-29T00:00:00,55.52,166,20.148062128030194,1.6000277775366554,81,F,2,WHITE,5,NOT HISPANIC OR LATINO,2,USA,United States of America,235,79.55999999999999,42.81934640522877,64.24388165668196,8.549999999999999,30,19,54,
253,XANOMELINE,1,CDISCPILOT01,1,01-701-1028,1028,1028,1028,701,701,253,-0.5,-0.5,0,0,0,2,0,XAN,Pharmacokinetic concentration of Xanomeline,1,1,0,ug/ml,0,0.01,Y,1,,54,0,0,PATCH,3,TRANSDERMAL,3,2,Xanomeline High Dose,2013-07-18T23:30:00,99.34,177.8,31.423940398901205,2.215015174264552,71,M,1,WHITE,5,NOT HISPANIC OR LATINO,2,USA,United States of America,235,123.75999999999999,68.1236732385262,53.7492079230433,18.81,24,26,81,
254,XANOMELINE,1,CDISCPILOT01,1,01-701-1028,1028,1028,1028,701,701,254,0,0,0,0,1,1,,DOSE,Xanomeline Patch Dose,2,2,,,1,,N,0,54,54,1,1,PATCH,3,TRANSDERMAL,3,2,Xanomeline High Dose,2013-07-19T00:00:00,99.34,177.8,31.423940398901205,2.215015174264552,71,M,1,WHITE,5,NOT HISPANIC OR LATINO,2,USA,United States of America,235,123.75999999999999,68.1236732385262,53.7492079230433,18.81,24,26,81,
255,XANOMELINE,1,CDISCPILOT01,1,01-701-1028,1028,1028,1028,701,701,255,0.08333333333333333,0.08333333333333333,0.08333333333333333,0.08333333333333333,0,2,0.10156622488224114,XAN,Pharmacokinetic concentration of Xanomeline,1,3,0.10156622488224114,ug/ml,0,0.01,N,0,,54,0,0,PATCH,3,TRANSDERMAL,3,2,Xanomeline High Dose,2013-07-19T00:05:00,99.34,177.8,31.423940398901205,2.215015174264552,71,M,1,WHITE,5,NOT HISPANIC OR LATINO,2,USA,United States of America,235,123.75999999999999,68.1236732385262,53.7492079230433,18.81,24,26,81,-2.2870442313670147
256,XANOMELINE,1,CDISCPILOT01,1,01-701-1028,1028,1028,1028,701,701,256,0.5,0.5,0.5,0.5,0,2,0.5469017737088481,XAN,Pharmacokinetic concentration of Xanomeline,1,4,0.5469017737088481,ug/ml,0,0.01,N,0,,54,0,0,PATCH,3,TRANSDERMAL,3,2,Xanomeline High Dose,2013-07-19T00:30:00,99.34,177.8,31.423940398901205,2.215015174264552,71,M,1,WHITE,5,NOT HISPANIC OR LATINO,2,USA,United States of America,235,123.75999999999999,68.1236732385262,53.7492079230433,18.81,24,26,81,-0.6034860654296078
257,XANOMELINE,1,CDISCPILOT01,1,01-701-1028,1028,1028,1028,701,701,257,1,1,1,1,0,2,0.9254653871452886,XAN,Pharmacokinetic concentration of Xanomeline,1,5,0.9254653871452886,ug/ml,0,0.01,N,0,,54,0,0,PATCH,3,TRANSDERMAL,3,2,Xanomeline High Dose,2013-07-19T01:00:00,99.34,177.8,31.423940398901205,2.215015174264552,71,M,1,WHITE,5,NOT HISPANIC OR LATINO,2,USA,United States of America,235,123.75999999999999,68.1236732385262,53.7492079230433,18.81,24,26,81,-0.07745854675461633
258,XANOMELINE,1,CDISCPILOT01,1,01-701-1028,1028,1028,1028,701,701,258,1.5,1.5,1.5,1.5,0,2,1.1875058783402361,XAN,Pharmacokinetic concentration of Xanomeline,1,6,1.1875058783402361,ug/ml,0,0.01,N,0,,54,0,0,PATCH,3,TRANSDERMAL,3,2,Xanomeline High Dose,2013-07-19T01:30:00,99.34,177.8,31.423940398901205,2.215015174264552,71,M,1,WHITE,5,NOT HISPANIC OR LATINO,2,USA,United States of America,235,123.75999999999999,68.1236732385262,53.7492079230433,18.81,24,26,81,0.1718552070956586
259,XANOMELINE,1,CDISCPILOT01,1,01-701-1028,1028,1028,1028,701,701,259,2,2,2,2,0,2,1.3688894466192254,XAN,Pharmacokinetic concentration of Xanomeline,1,7,1.3688894466192254,ug/ml,0,0.01,N,0,,54,0,0,PATCH,3,TRANSDERMAL,3,2,Xanomeline High Dose,2013-07-19T02:00:00,99.34,177.8,31.423940398901205,2.215015174264552,71,M,1,WHITE,5,NOT HISPANIC OR LATINO,2,USA,United States of America,235,123.75999999999999,68.1236732385262,53.7492079230433,18.81,24,26,81,0.313999788201947
260,XANOMELINE,1,CDISCPILOT01,1,01-701-1028,1028,1028,1028,701,701,260,4,4,4,4,0,2,1.6831475761644397,XAN,Pharmacokinetic concentration of Xanomeline,1,8,1.6831475761644397,ug/ml,0,0.01,N,0,,54,0,0,PATCH,3,TRANSDERMAL,3,2,Xanomeline High Dose,2013-07-19T04:00:00,99.34,177.8,31.423940398901205,2.215015174264552,71,M,1,WHITE,5,NOT HISPANIC OR LATINO,2,USA,United States of America,235,123.75999999999999,68.1236732385262,53.7492079230433,18.81,24,26,81,0.5206655977366598
261,XANOMELINE,1,CDISCPILOT01,1,01-701-1028,1028,1028,1028,701,701,261,6,6,6,6,0,2,1.755292315266024,XAN,Pharmacokinetic concentration of Xanomeline,1,9,1.755292315266024,ug/ml,0,0.01,N,0,,54,0,0,PATCH,3,TRANSDERMAL,3,2,Xanomeline High Dose,2013-07-19T06:00:00,99.34,177.8,31.423940398901205,2.215015174264552,71,M,1,WHITE,5,NOT HISPANIC OR LATINO,2,USA,United States of America,235,123.75999999999999,68.1236732385262,53.7492079230433,18.81,24,26,81,0.5626354044531603
262,XANOMELINE,1,CDISCPILOT01,1,01-701-1028,1028,1028,1028,701,701,262,6,6,3,3,0,3,24.94237210847847,XAN,Pharmacokinetic concentration of Xanomeline,1,10,24.94237210847847,ug/ml,0,0.01,N,0,,54,0,0,PATCH,3,TRANSDERMAL,3,2,Xanomeline High Dose,2013-07-19T06:00:00,99.34,177.8,31.423940398901205,2.215015174264552,71,M,1,WHITE,5,NOT HISPANIC OR LATINO,2,USA,United States of America,235,123.75999999999999,68.1236732385262,53.7492079230433,18.81,24,26,81,3.2165680483383743
263,XANOMELINE,1,CDISCPILOT01,1,01-701-1028,1028,1028,1028,701,701,263,8,8,8,8,0,2,1.7718546978766763,XAN,Pharmacokinetic concentration of Xanomeline,1,11,1.7718546978766763,ug/ml,0,0.01,N,0,,54,0,0,PATCH,3,TRANSDERMAL,3,2,Xanomeline High Dose,2013-07-19T08:00:00,99.34,177.8,31.423940398901205,2.215015174264552,71,M,1,WHITE,5,NOT HISPANIC OR LATINO,2,USA,United States of America,235,123.75999999999999,68.1236732385262,53.7492079230433,18.81,24,26,81,0.5720268498798646
264,XANOMELINE,1,CDISCPILOT01,1,01-701-1028,1028,1028,1028,701,701,264,12,12,12,12,0,2,0.49503584646525783,XAN,Pharmacokinetic concentration of Xanomeline,1,12,0.49503584646525783,ug/ml,0,0.01,N,0,,54,0,0,PATCH,3,TRANSDERMAL,3,2,Xanomeline High Dose,2013-07-19T12:00:00,99.34,177.8,31.423940398901205,2.215015174264552,71,M,1,WHITE,5,NOT HISPANIC OR LATINO,2,USA,United States of America,235,123.75999999999999,68.1236732385262,53.7492079230433,18.81,24,26,81,-0.7031251019339075
265,XANOMELINE,1,CDISCPILOT01,1,01-701-1028,1028,1028,1028,701,701,265,12,12,9,9,0,3,20.527751057356966,XAN,Pharmacokinetic concentration of Xanomeline,1,13,20.527751057356966,ug/ml,0,0.01,N,0,,54,0,0,PATCH,3,TRANSDERMAL,3,2,Xanomeline High Dose,2013-07-19T12:00:00,99.34,177.8,31.423940398901205,2.215015174264552,71,M,1,WHITE,5,NOT HISPANIC OR LATINO,2,USA,United States of America,235,123.75999999999999,68.1236732385262,53.7492079230433,18.81,24,26,81,3.0217776808198655
266,XANOMELINE,1,CDISCPILOT01,1,01-701-1028,1028,1028,1028,701,701,266,16,16,16,16,0,2,0.13792316325323037,XAN,Pharmacokinetic concentration of Xanomeline,1,14,0.13792316325323037,ug/ml,0,0.01,N,0,,54,0,0,PATCH,3,TRANSDERMAL,3,2,Xanomeline High Dose,2013-07-19T16:00:00,99.34,177.8,31.423940398901205,2.215015174264552,71,M,1,WHITE,5,NOT HISPANIC OR LATINO,2,USA,United States of America,235,123.75999999999999,68.1236732385262,53.7492079230433,18.81,24,26,81,-1.981058536909013
267,XANOMELINE,1,CDISCPILOT01,1,01-701-1028,1028,1028,1028,701,701,267,24,24,24,24,0,2,0.010706273436356134,XAN,Pharmacokinetic concentration of Xanomeline,1,15,0.010706273436356134,ug/ml,0,0.01,N,0,,54,0,0,PATCH,3,TRANSDERMAL,3,2,Xanomeline High Dose,2013-07-20T00:00:00,99.34,177.8,31.423940398901205,2.215015174264552,71,M,1,WHITE,5,NOT HISPANIC OR LATINO,2,USA,United States of America,235,123.75999999999999,68.1236732385262,53.7492079230433,18.81,24,26,81,-4.536925406859225
268,XANOMELINE,1,CDISCPILOT01,1,01-701-1028,1028,1028,1028,701,701,268,24,24,18,18,0,3,11.698508955113962,XAN,Pharmacokinetic concentration of Xanomeline,1,16,11.698508955113962,ug/ml,0,0.01,N,0,,54,0,0,PATCH,3,TRANSDERMAL,3,2,Xanomeline High Dose,2013-07-20T00:00:00,99.34,177.8,31.423940398901205,2.215015174264552,71,M,1,WHITE,5,NOT HISPANIC OR LATINO,2,USA,United States of America,235,123.75999999999999,68.1236732385262,53.7492079230433,18.81,24,26,81,2.459461393948728
269,XANOMELINE,1,CDISCPILOT01,1,01-701-1028,1028,1028,1028,701,701,269,24,0,24,0,1,1,,DOSE,Xanomeline Patch Dose,2,17,,,1,,N,0,54,54,1,1,PATCH,3,TRANSDERMAL,3,2,Xanomeline High Dose,2013-07-20T00:00:00,99.34,177.8,31.423940398901205,2.215015174264552,71,M,1,WHITE,5,NOT HISPANIC OR LATINO,2,USA,United States of America,235,123.75999999999999,68.1236732385262,53.7492079230433,18.81,24,26,81,
270,XANOMELINE,1,CDISCPILOT01,1,01-701-1028,1028,1028,1028,701,701,270,36,12,36,12,0,2,,XAN,Pharmacokinetic concentration of Xanomeline,1,18,,ug/ml,1,0.01,Y,1,,54,0,0,PATCH,3,TRANSDERMAL,3,2,Xanomeline High Dose,2013-07-20T12:00:00,99.34,177.8,31.423940398901205,2.215015174264552,71,M,1,WHITE,5,NOT HISPANIC OR LATINO,2,USA,United States of America,235,123.75999999999999,68.1236732385262,53.7492079230433,18.81,24,26,81,
271,XANOMELINE,1,CDISCPILOT01,1,01-701-1028,1028,1028,1028,701,701,271,48,24,48,24,0,2,,XAN,Pharmacokinetic concentration of Xanomeline,1,19,,ug/ml,1,0.01,Y,1,,54,0,0,PATCH,3,TRANSDERMAL,3,2,Xanomeline High Dose,2013-07-21T00:00:00,99.34,177.8,31.423940398901205,2.215015174264552,71,M,1,WHITE,5,NOT HISPANIC OR LATINO,2,USA,United States of America,235,123.75999999999999,68.1236732385262,53.7492079230433,18.81,24,26,81,
272,XANOMELINE,1,CDISCPILOT01,1,01-701-1028,1028,1028,1028,701,701,272,48,24,36,12,0,3,,XAN,Pharmacokinetic concentration of Xanomeline,1,20,,ug/ml,1,0.01,Y,1,,54,0,0,PATCH,3,TRANSDERMAL,3,2,Xanomeline High Dose,2013-07-21T00:00:00,99.34,177.8,31.423940398901205,2.215015174264552,71,M,1,WHITE,5,NOT HISPANIC OR LATINO,2,USA,United States of America,235,123.75999999999999,68.1236732385262,53.7492079230433,18.81,24,26,81,
273,XANOMELINE,1,CDISCPILOT01,1,01-701-1028,1028,1028,1028,701,701,273,48,0,48,0,1,1,,DOSE,Xanomeline Patch Dose,2,21,,,1,,N,0,54,54,1,1,PATCH,3,TRANSDERMAL,3,2,Xanomeline High Dose,2013-07-21T00:00:00,99.34,177.8,31.423940398901205,2.215015174264552,71,M,1,WHITE,5,NOT HISPANIC OR LATINO,2,USA,United States of America,235,123.75999999999999,68.1236732385262,53.7492079230433,18.81,24,26,81,
274,XANOMELINE,1,CDISCPILOT01,1,01-709-1029,1029,1029,1029,709,709,274,-0.5,-0.5,0,0,0,2,0,XAN,Pharmacokinetic concentration of Xanomeline,1,1,0,ug/ml,0,0.01,Y,1,,54,0,0,PATCH,3,TRANSDERMAL,3,2,Xanomeline High Dose,2012-12-24T23:30:00,68.95,172.72,23.11261110411494,1.8188094396549017,82,M,1,WHITE,5,NOT HISPANIC OR LATINO,2,USA,United States of America,235,114.92,42.802758440654365,54.86338571836305,23.94,18,17,81,
275,XANOMELINE,1,CDISCPILOT01,1,01-709-1029,1029,1029,1029,709,709,275,0,0,0,0,1,1,,DOSE,Xanomeline Patch Dose,2,2,,,1,,N,0,54,54,1,1,PATCH,3,TRANSDERMAL,3,2,Xanomeline High Dose,2012-12-25T00:00:00,68.95,172.72,23.11261110411494,1.8188094396549017,82,M,1,WHITE,5,NOT HISPANIC OR LATINO,2,USA,United States of America,235,114.92,42.802758440654365,54.86338571836305,23.94,18,17,81,
276,XANOMELINE,1,CDISCPILOT01,1,01-709-1029,1029,1029,1029,709,709,276,0.08333333333333333,0.08333333333333333,0.08333333333333333,0.08333333333333333,0,2,0.0952522844877681,XAN,Pharmacokinetic concentration of Xanomeline,1,3,0.0952522844877681,ug/ml,0,0.01,N,0,,54,0,0,PATCH,3,TRANSDERMAL,3,2,Xanomeline High Dose,2012-12-25T00:05:00,68.95,172.72,23.11261110411494,1.8188094396549017,82,M,1,WHITE,5,NOT HISPANIC OR LATINO,2,USA,United States of America,235,114.92,42.802758440654365,54.86338571836305,23.94,18,17,81,-2.351226281139392
277,XANOMELINE,1,CDISCPILOT01,1,01-709-1029,1029,1029,1029,709,709,277,0.5,0.5,0.5,0.5,0,2,0.5197845285964261,XAN,Pharmacokinetic concentration of Xanomeline,1,4,0.5197845285964261,ug/ml,0,0.01,N,0,,54,0,0,PATCH,3,TRANSDERMAL,3,2,Xanomeline High Dose,2012-12-25T00:30:00,68.95,172.72,23.11261110411494,1.8188094396549017,82,M,1,WHITE,5,NOT HISPANIC OR LATINO,2,USA,United States of America,235,114.92,42.802758440654365,54.86338571836305,23.94,18,17,81,-0.6543409213646376
278,XANOMELINE,1,CDISCPILOT01,1,01-709-1029,1029,1029,1029,709,709,278,1,1,1,1,0,2,0.8920341271323045,XAN,Pharmacokinetic concentration of Xanomeline,1,5,0.8920341271323045,ug/ml,0,0.01,N,0,,54,0,0,PATCH,3,TRANSDERMAL,3,2,Xanomeline High Dose,2012-12-25T01:00:00,68.95,172.72,23.11261110411494,1.8188094396549017,82,M,1,WHITE,5,NOT HISPANIC OR LATINO,2,USA,United States of America,235,114.92,42.802758440654365,54.86338571836305,23.94,18,17,81,-0.11425088801705578
279,XANOMELINE,1,CDISCPILOT01,1,01-709-1029,1029,1029,1029,709,709,279,1.5,1.5,1.5,1.5,0,2,1.1586249084783793,XAN,Pharmacokinetic concentration of Xanomeline,1,6,1.1586249084783793,ug/ml,0,0.01,N,0,,54,0,0,PATCH,3,TRANSDERMAL,3,2,Xanomeline High Dose,2012-12-25T01:30:00,68.95,172.72,23.11261110411494,1.8188094396549017,82,M,1,WHITE,5,NOT HISPANIC OR LATINO,2,USA,United States of America,235,114.92,42.802758440654365,54.86338571836305,23.94,18,17,81,0.14723387822227543
280,XANOMELINE,1,CDISCPILOT01,1,01-709-1029,1029,1029,1029,709,709,280,2,2,2,2,0,2,1.3495469268720697,XAN,Pharmacokinetic concentration of Xanomeline,1,7,1.3495469268720697,ug/ml,0,0.01,N,0,,54,0,0,PATCH,3,TRANSDERMAL,3,2,Xanomeline High Dose,2012-12-25T02:00:00,68.95,172.72,23.11261110411494,1.8188094396549017,82,M,1,WHITE,5,NOT HISPANIC OR LATINO,2,USA,United States of America,235,114.92,42.802758440654365,54.86338571836305,23.94,18,17,81,0.2997689263963982
281,XANOMELINE,1,CDISCPILOT01,1,01-709-1029,1029,1029,1029,709,709,281,4,4,4,4,0,2,1.7045495388892808,XAN,Pharmacokinetic concentration of Xanomeline,1,8,1.7045495388892808,ug/ml,0,0.01,N,0,,54,0,0,PATCH,3,TRANSDERMAL,3,2,Xanomeline High Dose,2012-12-25T04:00:00,68.95,172.72,23.11261110411494,1.8188094396549017,82,M,1,WHITE,5,NOT HISPANIC OR LATINO,2,USA,United States of America,235,114.92,42.802758440654365,54.86338571836305,23.94,18,17,81,0.5333008757635567
282,XANOMELINE,1,CDISCPILOT01,1,01-709-1029,1029,1029,1029,709,709,282,6,6,6,6,0,2,1.7979341052423334,XAN,Pharmacokinetic concentration of Xanomeline,1,9,1.7979341052423334,ug/ml,0,0.01,N,0,,54,0,0,PATCH,3,TRANSDERMAL,3,2,Xanomeline High Dose,2012-12-25T06:00:00,68.95,172.72,23.11261110411494,1.8188094396549017,82,M,1,WHITE,5,NOT HISPANIC OR LATINO,2,USA,United States of America,235,114.92,42.802758440654365,54.86338571836305,23.94,18,17,81,0.5866382864581149
283,XANOMELINE,1,CDISCPILOT01,1,01-709-1029,1029,1029,1029,709,709,283,6,6,3,3,0,3,28.34368336267154,XAN,Pharmacokinetic concentration of Xanomeline,1,10,28.34368336267154,ug/ml,0,0.01,N,0,,54,0,0,PATCH,3,TRANSDERMAL,3,2,Xanomeline High Dose,2012-12-25T06:00:00,68.95,172.72,23.11261110411494,1.8188094396549017,82,M,1,WHITE,5,NOT HISPANIC OR LATINO,2,USA,United States of America,235,114.92,42.802758440654365,54.86338571836305,23.94,18,17,81,3.3444041962712894
284,XANOMELINE,1,CDISCPILOT01,1,01-709-1029,1029,1029,1029,709,709,284,8,8,8,8,0,2,1.822499212477445,XAN,Pharmacokinetic concentration of Xanomeline,1,11,1.822499212477445,ug/ml,0,0.01,N,0,,54,0,0,PATCH,3,TRANSDERMAL,3,2,Xanomeline High Dose,2012-12-25T08:00:00,68.95,172.72,23.11261110411494,1.8188094396549017,82,M,1,WHITE,5,NOT HISPANIC OR LATINO,2,USA,United States of America,235,114.92,42.802758440654365,54.86338571836305,23.94,18,17,81,0.6002087527894415
285,XANOMELINE,1,CDISCPILOT01,1,01-709-1029,1029,1029,1029,709,709,285,12,12,12,12,0,2,0.574247127000585,XAN,Pharmacokinetic concentration of Xanomeline,1,12,0.574247127000585,ug/ml,0,0.01,N,0,,54,0,0,PATCH,3,TRANSDERMAL,3,2,Xanomeline High Dose,2012-12-25T12:00:00,68.95,172.72,23.11261110411494,1.8188094396549017,82,M,1,WHITE,5,NOT HISPANIC OR LATINO,2,USA,United States of America,235,114.92,42.802758440654365,54.86338571836305,23.94,18,17,81,-0.5546954404718791
286,XANOMELINE,1,CDISCPILOT01,1,01-709-1029,1029,1029,1029,709,709,286,12,12,9,9,0,3,24.337486188265864,XAN,Pharmacokinetic concentration of Xanomeline,1,13,24.337486188265864,ug/ml,0,0.01,N,0,,54,0,0,PATCH,3,TRANSDERMAL,3,2,Xanomeline High Dose,2012-12-25T12:00:00,68.95,172.72,23.11261110411494,1.8188094396549017,82,M,1,WHITE,5,NOT HISPANIC OR LATINO,2,USA,United States of America,235,114.92,42.802758440654365,54.86338571836305,23.94,18,17,81,3.1920178031898208
287,XANOMELINE,1,CDISCPILOT01,1,01-709-1029,1029,1029,1029,709,709,287,16,16,16,16,0,2,0.18007184740483131,XAN,Pharmacokinetic concentration of Xanomeline,1,14,0.18007184740483131,ug/ml,0,0.01,N,0,,54,0,0,PATCH,3,TRANSDERMAL,3,2,Xanomeline High Dose,2012-12-25T16:00:00,68.95,172.72,23.11261110411494,1.8188094396549017,82,M,1,WHITE,5,NOT HISPANIC OR LATINO,2,USA,United States of America,235,114.92,42.802758440654365,54.86338571836305,23.94,18,17,81,-1.714399355482931
288,XANOMELINE,1,CDISCPILOT01,1,01-709-1029,1029,1029,1029,709,709,288,24,24,24,24,0,2,0.017706788435425367,XAN,Pharmacokinetic concentration of Xanomeline,1,15,0.017706788435425367,ug/ml,0,0.01,N,0,,54,0,0,PATCH,3,TRANSDERMAL,3,2,Xanomeline High Dose,2012-12-26T00:00:00,68.95,172.72,23.11261110411494,1.8188094396549017,82,M,1,WHITE,5,NOT HISPANIC OR LATINO,2,USA,United States of America,235,114.92,42.802758440654365,54.86338571836305,23.94,18,17,81,-4.033807185505035
289,XANOMELINE,1,CDISCPILOT01,1,01-709-1029,1029,1029,1029,709,709,289,24,24,18,18,0,3,16.325091839454505,XAN,Pharmacokinetic concentration of Xanomeline,1,16,16.325091839454505,ug/ml,0,0.01,N,0,,54,0,0,PATCH,3,TRANSDERMAL,3,2,Xanomeline High Dose,2012-12-26T00:00:00,68.95,172.72,23.11261110411494,1.8188094396549017,82,M,1,WHITE,5,NOT HISPANIC OR LATINO,2,USA,United States of America,235,114.92,42.802758440654365,54.86338571836305,23.94,18,17,81,2.792703300840668
290,XANOMELINE,1,CDISCPILOT01,1,01-709-1029,1029,1029,1029,709,709,290,24,0,24,0,1,1,,DOSE,Xanomeline Patch Dose,2,17,,,1,,N,0,54,54,1,1,PATCH,3,TRANSDERMAL,3,2,Xanomeline High Dose,2012-12-26T00:00:00,68.95,172.72,23.11261110411494,1.8188094396549017,82,M,1,WHITE,5,NOT HISPANIC OR LATINO,2,USA,United States of America,235,114.92,42.802758440654365,54.86338571836305,23.94,18,17,81,
291,XANOMELINE,1,CDISCPILOT01,1,01-709-1029,1029,1029,1029,709,709,291,36,12,36,12,0,2,,XAN,Pharmacokinetic concentration of Xanomeline,1,18,,ug/ml,1,0.01,Y,1,,54,0,0,PATCH,3,TRANSDERMAL,3,2,Xanomeline High Dose,2012-12-26T12:00:00,68.95,172.72,23.11261110411494,1.8188094396549017,82,M,1,WHITE,5,NOT HISPANIC OR LATINO,2,USA,United States of America,235,114.92,42.802758440654365,54.86338571836305,23.94,18,17,81,
292,XANOMELINE,1,CDISCPILOT01,1,01-709-1029,1029,1029,1029,709,709,292,48,24,48,24,0,2,,XAN,Pharmacokinetic concentration of Xanomeline,1,19,,ug/ml,1,0.01,Y,1,,54,0,0,PATCH,3,TRANSDERMAL,3,2,Xanomeline High Dose,2012-12-27T00:00:00,68.95,172.72,23.11261110411494,1.8188094396549017,82,M,1,WHITE,5,NOT HISPANIC OR LATINO,2,USA,United States of America,235,114.92,42.802758440654365,54.86338571836305,23.94,18,17,81,
293,XANOMELINE,1,CDISCPILOT01,1,01-709-1029,1029,1029,1029,709,709,293,48,24,36,12,0,3,0.3003031418317903,XAN,Pharmacokinetic concentration of Xanomeline,1,20,0.3003031418317903,ug/ml,0,0.01,N,0,,54,0,0,PATCH,3,TRANSDERMAL,3,2,Xanomeline High Dose,2012-12-27T00:00:00,68.95,172.72,23.11261110411494,1.8188094396549017,82,M,1,WHITE,5,NOT HISPANIC OR LATINO,2,USA,United States of America,235,114.92,42.802758440654365,54.86338571836305,23.94,18,17,81,-1.202962841737258
294,XANOMELINE,1,CDISCPILOT01,1,01-709-1029,1029,1029,1029,709,709,294,48,0,48,0,1,1,,DOSE,Xanomeline Patch Dose,2,21,,,1,,N,0,54,54,1,1,PATCH,3,TRANSDERMAL,3,2,Xanomeline High Dose,2012-12-27T00:00:00,68.95,172.72,23.11261110411494,1.8188094396549017,82,M,1,WHITE,5,NOT HISPANIC OR LATINO,2,USA,United States of America,235,114.92,42.802758440654365,54.86338571836305,23.94,18,17,81,
295,XANOMELINE,1,CDISCPILOT01,1,01-716-1030,1030,1030,1030,716,716,295,-0.5,-0.5,0,0,0,2,0,XAN,Pharmacokinetic concentration of Xanomeline,1,1,0,ug/ml,0,0.01,Y,1,,54,0,0,PATCH,3,TRANSDERMAL,3,2,Xanomeline High Dose,2013-12-27T23:30:00,75.3,150.62,33.19171476262211,1.7749558679959718,83,F,2,WHITE,5,NOT HISPANIC OR LATINO,2,USA,United States of America,235,97.24,45.9048128342246,49.87116888506744,11.969999999999999,22,15,81,
296,XANOMELINE,1,CDISCPILOT01,1,01-716-1030,1030,1030,1030,716,716,296,0,0,0,0,1,1,,DOSE,Xanomeline Patch Dose,2,2,,,1,,N,0,54,54,1,1,PATCH,3,TRANSDERMAL,3,2,Xanomeline High Dose,2013-12-28T00:00:00,75.3,150.62,33.19171476262211,1.7749558679959718,83,F,2,WHITE,5,NOT HISPANIC OR LATINO,2,USA,United States of America,235,97.24,45.9048128342246,49.87116888506744,11.969999999999999,22,15,81,
297,XANOMELINE,1,CDISCPILOT01,1,01-716-1030,1030,1030,1030,716,716,297,0.08333333333333333,0.08333333333333333,0.08333333333333333,0.08333333333333333,0,2,0.10447348298051679,XAN,Pharmacokinetic concentration of Xanomeline,1,3,0.10447348298051679,ug/ml,0,0.01,N,0,,54,0,0,PATCH,3,TRANSDERMAL,3,2,Xanomeline High Dose,2013-12-28T00:05:00,75.3,150.62,33.19171476262211,1.7749558679959718,83,F,2,WHITE,5,NOT HISPANIC OR LATINO,2,USA,United States of America,235,97.24,45.9048128342246,49.87116888506744,11.969999999999999,22,15,81,-2.2588219911602154
298,XANOMELINE,1,CDISCPILOT01,1,01-716-1030,1030,1030,1030,716,716,298,0.5,0.5,0.5,0.5,0,2,0.5645740287523666,XAN,Pharmacokinetic concentration of Xanomeline,1,4,0.5645740287523666,ug/ml,0,0.01,N,0,,54,0,0,PATCH,3,TRANSDERMAL,3,2,Xanomeline High Dose,2013-12-28T00:30:00,75.3,150.62,33.19171476262211,1.7749558679959718,83,F,2,WHITE,5,NOT HISPANIC OR LATINO,2,USA,United States of America,235,97.24,45.9048128342246,49.87116888506744,11.969999999999999,22,15,81,-0.5716837635966523
299,XANOMELINE,1,CDISCPILOT01,1,01-716-1030,1030,1030,1030,716,716,299,1,1,1,1,0,2,0.9589689574459505,XAN,Pharmacokinetic concentration of Xanomeline,1,5,0.9589689574459505,ug/ml,0,0.01,N,0,,54,0,0,PATCH,3,TRANSDERMAL,3,2,Xanomeline High Dose,2013-12-28T01:00:00,75.3,150.62,33.19171476262211,1.7749558679959718,83,F,2,WHITE,5,NOT HISPANIC OR LATINO,2,USA,United States of America,235,97.24,45.9048128342246,49.87116888506744,11.969999999999999,22,15,81,-0.041896574334861145
300,XANOMELINE,1,CDISCPILOT01,1,01-716-1030,1030,1030,1030,716,716,300,1.5,1.5,1.5,1.5,0,2,1.2344817367407332,XAN,Pharmacokinetic concentration of Xanomeline,1,6,1.2344817367407332,ug/ml,0,0.01,N,0,,54,0,0,PATCH,3,TRANSDERMAL,3,2,Xanomeline High Dose,2013-12-28T01:30:00,75.3,150.62,33.19171476262211,1.7749558679959718,83,F,2,WHITE,5,NOT HISPANIC OR LATINO,2,USA,United States of America,235,97.24,45.9048128342246,49.87116888506744,11.969999999999999,22,15,81,0.21065123563998503
301,XANOMELINE,1,CDISCPILOT01,1,01-716-1030,1030,1030,1030,716,716,301,2,2,2,2,0,2,1.4269469182940946,XAN,Pharmacokinetic concentration of Xanomeline,1,7,1.4269469182940946,ug/ml,0,0.01,N,0,,54,0,0,PATCH,3,TRANSDERMAL,3,2,Xanomeline High Dose,2013-12-28T02:00:00,75.3,150.62,33.19171476262211,1.7749558679959718,83,F,2,WHITE,5,NOT HISPANIC OR LATINO,2,USA,United States of America,235,97.24,45.9048128342246,49.87116888506744,11.969999999999999,22,15,81,0.3555371396907754
302,XANOMELINE,1,CDISCPILOT01,1,01-716-1030,1030,1030,1030,716,716,302,4,4,4,4,0,2,1.76676737668734,XAN,Pharmacokinetic concentration of Xanomeline,1,8,1.76676737668734,ug/ml,0,0.01,N,0,,54,0,0,PATCH,3,TRANSDERMAL,3,2,Xanomeline High Dose,2013-12-28T04:00:00,75.3,150.62,33.19171476262211,1.7749558679959718,83,F,2,WHITE,5,NOT HISPANIC OR LATINO,2,USA,United States of America,235,97.24,45.9048128342246,49.87116888506744,11.969999999999999,22,15,81,0.5691515359372841
303,XANOMELINE,1,CDISCPILOT01,1,01-716-1030,1030,1030,1030,716,716,303,6,6,6,6,0,2,1.8476939636977723,XAN,Pharmacokinetic concentration of Xanomeline,1,9,1.8476939636977723,ug/ml,0,0.01,N,0,,54,0,0,PATCH,3,TRANSDERMAL,3,2,Xanomeline High Dose,2013-12-28T06:00:00,75.3,150.62,33.19171476262211,1.7749558679959718,83,F,2,WHITE,5,NOT HISPANIC OR LATINO,2,USA,United States of America,235,97.24,45.9048128342246,49.87116888506744,11.969999999999999,22,15,81,0.6139383554459791
304,XANOMELINE,1,CDISCPILOT01,1,01-716-1030,1030,1030,1030,716,716,304,6,6,3,3,0,3,25.802527092949795,XAN,Pharmacokinetic concentration of Xanomeline,1,10,25.802527092949795,ug/ml,0,0.01,N,0,,54,0,0,PATCH,3,TRANSDERMAL,3,2,Xanomeline High Dose,2013-12-28T06:00:00,75.3,150.62,33.19171476262211,1.7749558679959718,83,F,2,WHITE,5,NOT HISPANIC OR LATINO,2,USA,United States of America,235,97.24,45.9048128342246,49.87116888506744,11.969999999999999,22,15,81,3.250472436469988
305,XANOMELINE,1,CDISCPILOT01,1,01-716-1030,1030,1030,1030,716,716,305,8,8,8,8,0,2,1.8669662362269865,XAN,Pharmacokinetic concentration of Xanomeline,1,11,1.8669662362269865,ug/ml,0,0.01,N,0,,54,0,0,PATCH,3,TRANSDERMAL,3,2,Xanomeline High Dose,2013-12-28T08:00:00,75.3,150.62,33.19171476262211,1.7749558679959718,83,F,2,WHITE,5,NOT HISPANIC OR LATINO,2,USA,United States of America,235,97.24,45.9048128342246,49.87116888506744,11.969999999999999,22,15,81,0.624314779889892
306,XANOMELINE,1,CDISCPILOT01,1,01-716-1030,1030,1030,1030,716,716,306,12,12,12,12,0,2,0.538721942483237,XAN,Pharmacokinetic concentration of Xanomeline,1,12,0.538721942483237,ug/ml,0,0.01,N,0,,54,0,0,PATCH,3,TRANSDERMAL,3,2,Xanomeline High Dose,2013-12-28T12:00:00,75.3,150.62,33.19171476262211,1.7749558679959718,83,F,2,WHITE,5,NOT HISPANIC OR LATINO,2,USA,United States of America,235,97.24,45.9048128342246,49.87116888506744,11.969999999999999,22,15,81,-0.6185557178377589
307,XANOMELINE,1,CDISCPILOT01,1,01-716-1030,1030,1030,1030,716,716,307,12,12,9,9,0,3,21.497902080689865,XAN,Pharmacokinetic concentration of Xanomeline,1,13,21.497902080689865,ug/ml,0,0.01,N,0,,54,0,0,PATCH,3,TRANSDERMAL,3,2,Xanomeline High Dose,2013-12-28T12:00:00,75.3,150.62,33.19171476262211,1.7749558679959718,83,F,2,WHITE,5,NOT HISPANIC OR LATINO,2,USA,United States of America,235,97.24,45.9048128342246,49.87116888506744,11.969999999999999,22,15,81,3.0679553527302774
308,XANOMELINE,1,CDISCPILOT01,1,01-716-1030,1030,1030,1030,716,716,308,16,16,16,16,0,2,0.15495077777639527,XAN,Pharmacokinetic concentration of Xanomeline,1,14,0.15495077777639527,ug/ml,0,0.01,N,0,,54,0,0,PATCH,3,TRANSDERMAL,3,2,Xanomeline High Dose,2013-12-28T16:00:00,75.3,150.62,33.19171476262211,1.7749558679959718,83,F,2,WHITE,5,NOT HISPANIC OR LATINO,2,USA,United States of America,235,97.24,45.9048128342246,49.87116888506744,11.969999999999999,22,15,81,-1.8646477752295465
309,XANOMELINE,1,CDISCPILOT01,1,01-716-1030,1030,1030,1030,716,716,309,24,24,24,24,0,2,0.012818935182672441,XAN,Pharmacokinetic concentration of Xanomeline,1,15,0.012818935182672441,ug/ml,0,0.01,N,0,,54,0,0,PATCH,3,TRANSDERMAL,3,2,Xanomeline High Dose,2013-12-29T00:00:00,75.3,150.62,33.19171476262211,1.7749558679959718,83,F,2,WHITE,5,NOT HISPANIC OR LATINO,2,USA,United States of America,235,97.24,45.9048128342246,49.87116888506744,11.969999999999999,22,15,81,-4.3568318900131215
310,XANOMELINE,1,CDISCPILOT01,1,01-716-1030,1030,1030,1030,716,716,310,24,24,18,18,0,3,12.888652056170006,XAN,Pharmacokinetic concentration of Xanomeline,1,16,12.888652056170006,ug/ml,0,0.01,N,0,,54,0,0,PATCH,3,TRANSDERMAL,3,2,Xanomeline High Dose,2013-12-29T00:00:00,75.3,150.62,33.19171476262211,1.7749558679959718,83,F,2,WHITE,5,NOT HISPANIC OR LATINO,2,USA,United States of America,235,97.24,45.9048128342246,49.87116888506744,11.969999999999999,22,15,81,2.5563472386489967
311,XANOMELINE,1,CDISCPILOT01,1,01-716-1030,1030,1030,1030,716,716,311,24,0,24,0,1,1,,DOSE,Xanomeline Patch Dose,2,17,,,1,,N,0,54,54,1,1,PATCH,3,TRANSDERMAL,3,2,Xanomeline High Dose,2013-12-29T00:00:00,75.3,150.62,33.19171476262211,1.7749558679959718,83,F,2,WHITE,5,NOT HISPANIC OR LATINO,2,USA,United States of America,235,97.24,45.9048128342246,49.87116888506744,11.969999999999999,22,15,81,
312,XANOMELINE,1,CDISCPILOT01,1,01-716-1030,1030,1030,1030,716,716,312,36,12,36,12,0,2,,XAN,Pharmacokinetic concentration of Xanomeline,1,18,,ug/ml,1,0.01,Y,1,,54,0,0,PATCH,3,TRANSDERMAL,3,2,Xanomeline High Dose,2013-12-29T12:00:00,75.3,150.62,33.19171476262211,1.7749558679959718,83,F,2,WHITE,5,NOT HISPANIC OR LATINO,2,USA,United States of America,235,97.24,45.9048128342246,49.87116888506744,11.969999999999999,22,15,81,
313,XANOMELINE,1,CDISCPILOT01,1,01-716-1030,1030,1030,1030,716,716,313,48,24,48,24,0,2,,XAN,Pharmacokinetic concentration of Xanomeline,1,19,,ug/ml,1,0.01,Y,1,,54,0,0,PATCH,3,TRANSDERMAL,3,2,Xanomeline High Dose,2013-12-30T00:00:00,75.3,150.62,33.19171476262211,1.7749558679959718,83,F,2,WHITE,5,NOT HISPANIC OR LATINO,2,USA,United States of America,235,97.24,45.9048128342246,49.87116888506744,11.969999999999999,22,15,81,
314,XANOMELINE,1,CDISCPILOT01,1,01-716-1030,1030,1030,1030,716,716,314,48,24,36,12,0,3,,XAN,Pharmacokinetic concentration of Xanomeline,1,20,,ug/ml,1,0.01,Y,1,,54,0,0,PATCH,3,TRANSDERMAL,3,2,Xanomeline High Dose,2013-12-30T00:00:00,75.3,150.62,33.19171476262211,1.7749558679959718,83,F,2,WHITE,5,NOT HISPANIC OR LATINO,2,USA,United States of America,235,97.24,45.9048128342246,49.87116888506744,11.969999999999999,22,15,81,
315,XANOMELINE,1,CDISCPILOT01,1,01-716-1030,1030,1030,1030,716,716,315,48,0,48,0,1,1,,DOSE,Xanomeline Patch Dose,2,21,,,1,,N,0,54,54,1,1,PATCH,3,TRANSDERMAL,3,2,Xanomeline High Dose,2013-12-30T00:00:00,75.3,150.62,33.19171476262211,1.7749558679959718,83,F,2,WHITE,5,NOT HISPANIC OR LATINO,2,USA,United States of America,235,97.24,45.9048128342246,49.87116888506744,11.969999999999999,22,15,81,
316,XANOMELINE,1,CDISCPILOT01,1,01-705-1031,1031,1031,1031,705,705,316,-0.5,-0.5,0,0,0,2,0,XAN,Pharmacokinetic concentration of Xanomeline,1,1,0,ug/ml,0,0.01,Y,1,,54,0,0,PATCH,3,TRANSDERMAL,3,1,Xanomeline Low Dose,2013-11-26T23:30:00,71.67,157.48,28.89925134688979,1.7706395266494346,56,F,2,WHITE,5,HISPANIC OR LATINO,1,USA,United States of America,235,88.39999999999999,70.82682352941177,66.13753045208387,5.13,16,18,54,
317,XANOMELINE,1,CDISCPILOT01,1,01-705-1031,1031,1031,1031,705,705,317,0,0,0,0,1,1,,DOSE,Xanomeline Patch Dose,2,2,,,1,,N,0,54,54,1,1,PATCH,3,TRANSDERMAL,3,1,Xanomeline Low Dose,2013-11-27T00:00:00,71.67,157.48,28.89925134688979,1.7706395266494346,56,F,2,WHITE,5,HISPANIC OR LATINO,1,USA,United States of America,235,88.39999999999999,70.82682352941177,66.13753045208387,5.13,16,18,54,
318,XANOMELINE,1,CDISCPILOT01,1,01-705-1031,1031,1031,1031,705,705,318,0.08333333333333333,0.08333333333333333,0.08333333333333333,0.08333333333333333,0,2,0.09403936762887541,XAN,Pharmacokinetic concentration of Xanomeline,1,3,0.09403936762887541,ug/ml,0,0.01,N,0,,54,0,0,PATCH,3,TRANSDERMAL,3,1,Xanomeline Low Dose,2013-11-27T00:05:00,71.67,157.48,28.89925134688979,1.7706395266494346,56,F,2,WHITE,5,HISPANIC OR LATINO,1,USA,United States of America,235,88.39999999999999,70.82682352941177,66.13753045208387,5.13,16,18,54,-2.3640417798237814
319,XANOMELINE,1,CDISCPILOT01,1,01-705-1031,1031,1031,1031,705,705,319,0.5,0.5,0.5,0.5,0,2,0.5122351921662647,XAN,Pharmacokinetic concentration of Xanomeline,1,4,0.5122351921662647,ug/ml,0,0.01,N,0,,54,0,0,PATCH,3,TRANSDERMAL,3,1,Xanomeline Low Dose,2013-11-27T00:30:00,71.67,157.48,28.89925134688979,1.7706395266494346,56,F,2,WHITE,5,HISPANIC OR LATINO,1,USA,United States of America,235,88.39999999999999,70.82682352941177,66.13753045208387,5.13,16,18,54,-0.6689713997162615
320,XANOMELINE,1,CDISCPILOT01,1,01-705-1031,1031,1031,1031,705,705,320,1,1,1,1,0,2,0.877386927733925,XAN,Pharmacokinetic concentration of Xanomeline,1,5,0.877386927733925,ug/ml,0,0.01,N,0,,54,0,0,PATCH,3,TRANSDERMAL,3,1,Xanomeline Low Dose,2013-11-27T01:00:00,71.67,157.48,28.89925134688979,1.7706395266494346,56,F,2,WHITE,5,HISPANIC OR LATINO,1,USA,United States of America,235,88.39999999999999,70.82682352941177,66.13753045208387,5.13,16,18,54,-0.1308071892282055
321,XANOMELINE,1,CDISCPILOT01,1,01-705-1031,1031,1031,1031,705,705,321,1.5,1.5,1.5,1.5,0,2,1.137688820355148,XAN,Pharmacokinetic concentration of Xanomeline,1,6,1.137688820355148,ug/ml,0,0.01,N,0,,54,0,0,PATCH,3,TRANSDERMAL,3,1,Xanomeline Low Dose,2013-11-27T01:30:00,71.67,157.48,28.89925134688979,1.7706395266494346,56,F,2,WHITE,5,HISPANIC OR LATINO,1,USA,United States of America,235,88.39999999999999,70.82682352941177,66.13753045208387,5.13,16,18,54,0.1289988539837844
322,XANOMELINE,1,CDISCPILOT01,1,01-705-1031,1031,1031,1031,705,705,322,2,2,2,2,0,2,1.3232475037798794,XAN,Pharmacokinetic concentration of Xanomeline,1,7,1.3232475037798794,ug/ml,0,0.01,N,0,,54,0,0,PATCH,3,TRANSDERMAL,3,1,Xanomeline Low Dose,2013-11-27T02:00:00,71.67,157.48,28.89925134688979,1.7706395266494346,56,F,2,WHITE,5,HISPANIC OR LATINO,1,USA,United States of America,235,88.39999999999999,70.82682352941177,66.13753045208387,5.13,16,18,54,0.280088945322954
323,XANOMELINE,1,CDISCPILOT01,1,01-705-1031,1031,1031,1031,705,705,323,4,4,4,4,0,2,1.6649568912436277,XAN,Pharmacokinetic concentration of Xanomeline,1,8,1.6649568912436277,ug/ml,0,0.01,N,0,,54,0,0,PATCH,3,TRANSDERMAL,3,1,Xanomeline Low Dose,2013-11-27T04:00:00,71.67,157.48,28.89925134688979,1.7706395266494346,56,F,2,WHITE,5,HISPANIC OR LATINO,1,USA,United States of America,235,88.39999999999999,70.82682352941177,66.13753045208387,5.13,16,18,54,0.5097992319522573
324,XANOMELINE,1,CDISCPILOT01,1,01-705-1031,1031,1031,1031,705,705,324,6,6,6,6,0,2,1.753198361677018,XAN,Pharmacokinetic concentration of Xanomeline,1,9,1.753198361677018,ug/ml,0,0.01,N,0,,54,0,0,PATCH,3,TRANSDERMAL,3,1,Xanomeline Low Dose,2013-11-27T06:00:00,71.67,157.48,28.89925134688979,1.7706395266494346,56,F,2,WHITE,5,HISPANIC OR LATINO,1,USA,United States of America,235,88.39999999999999,70.82682352941177,66.13753045208387,5.13,16,18,54,0.561441755086275
325,XANOMELINE,1,CDISCPILOT01,1,01-705-1031,1031,1031,1031,705,705,325,6,6,3,3,0,3,27.846557749995675,XAN,Pharmacokinetic concentration of Xanomeline,1,10,27.846557749995675,ug/ml,0,0.01,N,0,,54,0,0,PATCH,3,TRANSDERMAL,3,1,Xanomeline Low Dose,2013-11-27T06:00:00,71.67,157.48,28.89925134688979,1.7706395266494346,56,F,2,WHITE,5,HISPANIC OR LATINO,1,USA,United States of America,235,88.39999999999999,70.82682352941177,66.13753045208387,5.13,16,18,54,3.326709359093139
326,XANOMELINE,1,CDISCPILOT01,1,01-705-1031,1031,1031,1031,705,705,326,8,8,8,8,0,2,1.7759854356934524,XAN,Pharmacokinetic concentration of Xanomeline,1,11,1.7759854356934524,ug/ml,0,0.01,N,0,,54,0,0,PATCH,3,TRANSDERMAL,3,1,Xanomeline Low Dose,2013-11-27T08:00:00,71.67,157.48,28.89925134688979,1.7706395266494346,56,F,2,WHITE,5,HISPANIC OR LATINO,1,USA,United States of America,235,88.39999999999999,70.82682352941177,66.13753045208387,5.13,16,18,54,0.574355443913297
327,XANOMELINE,1,CDISCPILOT01,1,01-705-1031,1031,1031,1031,705,705,327,12,12,12,12,0,2,0.550491279873661,XAN,Pharmacokinetic concentration of Xanomeline,1,12,0.550491279873661,ug/ml,0,0.01,N,0,,54,0,0,PATCH,3,TRANSDERMAL,3,1,Xanomeline Low Dose,2013-11-27T12:00:00,71.67,157.48,28.89925134688979,1.7706395266494346,56,F,2,WHITE,5,HISPANIC OR LATINO,1,USA,United States of America,235,88.39999999999999,70.82682352941177,66.13753045208387,5.13,16,18,54,-0.5969441633196836
328,XANOMELINE,1,CDISCPILOT01,1,01-705-1031,1031,1031,1031,705,705,328,12,12,9,9,0,3,23.78490697178216,XAN,Pharmacokinetic concentration of Xanomeline,1,13,23.78490697178216,ug/ml,0,0.01,N,0,,54,0,0,PATCH,3,TRANSDERMAL,3,1,Xanomeline Low Dose,2013-11-27T12:00:00,71.67,157.48,28.89925134688979,1.7706395266494346,56,F,2,WHITE,5,HISPANIC OR LATINO,1,USA,United States of America,235,88.39999999999999,70.82682352941177,66.13753045208387,5.13,16,18,54,3.1690512186628967
329,XANOMELINE,1,CDISCPILOT01,1,01-705-1031,1031,1031,1031,705,705,329,16,16,16,16,0,2,0.16987359989008433,XAN,Pharmacokinetic concentration of Xanomeline,1,14,0.16987359989008433,ug/ml,0,0.01,N,0,,54,0,0,PATCH,3,TRANSDERMAL,3,1,Xanomeline Low Dose,2013-11-27T16:00:00,71.67,157.48,28.89925134688979,1.7706395266494346,56,F,2,WHITE,5,HISPANIC OR LATINO,1,USA,United States of America,235,88.39999999999999,70.82682352941177,66.13753045208387,5.13,16,18,54,-1.77270064854577
330,XANOMELINE,1,CDISCPILOT01,1,01-705-1031,1031,1031,1031,705,705,330,24,24,24,24,0,2,0.016176210252259925,XAN,Pharmacokinetic concentration of Xanomeline,1,15,0.016176210252259925,ug/ml,0,0.01,N,0,,54,0,0,PATCH,3,TRANSDERMAL,3,1,Xanomeline Low Dose,2013-11-28T00:00:00,71.67,157.48,28.89925134688979,1.7706395266494346,56,F,2,WHITE,5,HISPANIC OR LATINO,1,USA,United States of America,235,88.39999999999999,70.82682352941177,66.13753045208387,5.13,16,18,54,-4.124213618997943
331,XANOMELINE,1,CDISCPILOT01,1,01-705-1031,1031,1031,1031,705,705,331,24,24,18,18,0,3,15.66160541535513,XAN,Pharmacokinetic concentration of Xanomeline,1,16,15.66160541535513,ug/ml,0,0.01,N,0,,54,0,0,PATCH,3,TRANSDERMAL,3,1,Xanomeline Low Dose,2013-11-28T00:00:00,71.67,157.48,28.89925134688979,1.7706395266494346,56,F,2,WHITE,5,HISPANIC OR LATINO,1,USA,United States of America,235,88.39999999999999,70.82682352941177,66.13753045208387,5.13,16,18,54,2.751212202252926
332,XANOMELINE,1,CDISCPILOT01,1,01-705-1031,1031,1031,1031,705,705,332,24,0,24,0,1,1,,DOSE,Xanomeline Patch Dose,2,17,,,1,,N,0,54,54,1,1,PATCH,3,TRANSDERMAL,3,1,Xanomeline Low Dose,2013-11-28T00:00:00,71.67,157.48,28.89925134688979,1.7706395266494346,56,F,2,WHITE,5,HISPANIC OR LATINO,1,USA,United States of America,235,88.39999999999999,70.82682352941177,66.13753045208387,5.13,16,18,54,
333,XANOMELINE,1,CDISCPILOT01,1,01-705-1031,1031,1031,1031,705,705,333,36,12,36,12,0,2,,XAN,Pharmacokinetic concentration of Xanomeline,1,18,,ug/ml,1,0.01,Y,1,,54,0,0,PATCH,3,TRANSDERMAL,3,1,Xanomeline Low Dose,2013-11-28T12:00:00,71.67,157.48,28.89925134688979,1.7706395266494346,56,F,2,WHITE,5,HISPANIC OR LATINO,1,USA,United States of America,235,88.39999999999999,70.82682352941177,66.13753045208387,5.13,16,18,54,
334,XANOMELINE,1,CDISCPILOT01,1,01-705-1031,1031,1031,1031,705,705,334,48,24,48,24,0,2,,XAN,Pharmacokinetic concentration of Xanomeline,1,19,,ug/ml,1,0.01,Y,1,,54,0,0,PATCH,3,TRANSDERMAL,3,1,Xanomeline Low Dose,2013-11-29T00:00:00,71.67,157.48,28.89925134688979,1.7706395266494346,56,F,2,WHITE,5,HISPANIC OR LATINO,1,USA,United States of America,235,88.39999999999999,70.82682352941177,66.13753045208387,5.13,16,18,54,
335,XANOMELINE,1,CDISCPILOT01,1,01-705-1031,1031,1031,1031,705,705,335,48,24,36,12,0,3,,XAN,Pharmacokinetic concentration of Xanomeline,1,20,,ug/ml,1,0.01,Y,1,,54,0,0,PATCH,3,TRANSDERMAL,3,1,Xanomeline Low Dose,2013-11-29T00:00:00,71.67,157.48,28.89925134688979,1.7706395266494346,56,F,2,WHITE,5,HISPANIC OR LATINO,1,USA,United States of America,235,88.39999999999999,70.82682352941177,66.13753045208387,5.13,16,18,54,
336,XANOMELINE,1,CDISCPILOT01,1,01-705-1031,1031,1031,1031,705,705,336,48,0,48,0,1,1,,DOSE,Xanomeline Patch Dose,2,21,,,1,,N,0,54,54,1,1,PATCH,3,TRANSDERMAL,3,1,Xanomeline Low Dose,2013-11-29T00:00:00,71.67,157.48,28.89925134688979,1.7706395266494346,56,F,2,WHITE,5,HISPANIC OR LATINO,1,USA,United States of America,235,88.39999999999999,70.82682352941177,66.13753045208387,5.13,16,18,54,
337,XANOMELINE,1,CDISCPILOT01,1,01-708-1032,1032,1032,1032,708,708,337,-0.5,-0.5,0,0,0,2,0,XAN,Pharmacokinetic concentration of Xanomeline,1,1,0,ug/ml,0,0.01,Y,1,,54,0,0,PATCH,3,TRANSDERMAL,3,1,Xanomeline Low Dose,2013-02-08T23:30:00,82.56,177.8,26.115970599288136,2.0192936058598976,62,M,1,WHITE,5,NOT HISPANIC OR LATINO,2,USA,United States of America,235,114.92,68.92452488687783,62.13020076831435,22.23,24,20,54,
338,XANOMELINE,1,CDISCPILOT01,1,01-708-1032,1032,1032,1032,708,708,338,0,0,0,0,1,1,,DOSE,Xanomeline Patch Dose,2,2,,,1,,N,0,54,54,1,1,PATCH,3,TRANSDERMAL,3,1,Xanomeline Low Dose,2013-02-09T00:00:00,82.56,177.8,26.115970599288136,2.0192936058598976,62,M,1,WHITE,5,NOT HISPANIC OR LATINO,2,USA,United States of America,235,114.92,68.92452488687783,62.13020076831435,22.23,24,20,54,
339,XANOMELINE,1,CDISCPILOT01,1,01-708-1032,1032,1032,1032,708,708,339,0.08333333333333333,0.08333333333333333,0.08333333333333333,0.08333333333333333,0,2,0.09185176119428172,XAN,Pharmacokinetic concentration of Xanomeline,1,3,0.09185176119428172,ug/ml,0,0.01,N,0,,54,0,0,PATCH,3,TRANSDERMAL,3,1,Xanomeline Low Dose,2013-02-09T00:05:00,82.56,177.8,26.115970599288136,2.0192936058598976,62,M,1,WHITE,5,NOT HISPANIC OR LATINO,2,USA,United States of America,235,114.92,68.92452488687783,62.13020076831435,22.23,24,20,54,-2.3875792928256647
340,XANOMELINE,1,CDISCPILOT01,1,01-708-1032,1032,1032,1032,708,708,340,0.5,0.5,0.5,0.5,0,2,0.5019686814111328,XAN,Pharmacokinetic concentration of Xanomeline,1,4,0.5019686814111328,ug/ml,0,0.01,N,0,,54,0,0,PATCH,3,TRANSDERMAL,3,1,Xanomeline Low Dose,2013-02-09T00:30:00,82.56,177.8,26.115970599288136,2.0192936058598976,62,M,1,WHITE,5,NOT HISPANIC OR LATINO,2,USA,United States of America,235,114.92,68.92452488687783,62.13020076831435,22.23,24,20,54,-0.6892175488638222
341,XANOMELINE,1,CDISCPILOT01,1,01-708-1032,1032,1032,1032,708,708,341,1,1,1,1,0,2,0.8628119716155593,XAN,Pharmacokinetic concentration of Xanomeline,1,5,0.8628119716155593,ug/ml,0,0.01,N,0,,54,0,0,PATCH,3,TRANSDERMAL,3,1,Xanomeline Low Dose,2013-02-09T01:00:00,82.56,177.8,26.115970599288136,2.0192936058598976,62,M,1,WHITE,5,NOT HISPANIC OR LATINO,2,USA,United States of America,235,114.92,68.92452488687783,62.13020076831435,22.23,24,20,54,-0.1475584892556091
342,XANOMELINE,1,CDISCPILOT01,1,01-708-1032,1032,1032,1032,708,708,342,1.5,1.5,1.5,1.5,0,2,1.1222064018009563,XAN,Pharmacokinetic concentration of Xanomeline,1,6,1.1222064018009563,ug/ml,0,0.01,N,0,,54,0,0,PATCH,3,TRANSDERMAL,3,1,Xanomeline Low Dose,2013-02-09T01:30:00,82.56,177.8,26.115970599288136,2.0192936058598976,62,M,1,WHITE,5,NOT HISPANIC OR LATINO,2,USA,United States of America,235,114.92,68.92452488687783,62.13020076831435,22.23,24,20,54,0.11529674900653661
343,XANOMELINE,1,CDISCPILOT01,1,01-708-1032,1032,1032,1032,708,708,343,2,2,2,2,0,2,1.3086736917236483,XAN,Pharmacokinetic concentration of Xanomeline,1,7,1.3086736917236483,ug/ml,0,0.01,N,0,,54,0,0,PATCH,3,TRANSDERMAL,3,1,Xanomeline Low Dose,2013-02-09T02:00:00,82.56,177.8,26.115970599288136,2.0192936058598976,62,M,1,WHITE,5,NOT HISPANIC OR LATINO,2,USA,United States of America,235,114.92,68.92452488687783,62.13020076831435,22.23,24,20,54,0.2690141752743864
344,XANOMELINE,1,CDISCPILOT01,1,01-708-1032,1032,1032,1032,708,708,344,4,4,4,4,0,2,1.6581352599581947,XAN,Pharmacokinetic concentration of Xanomeline,1,8,1.6581352599581947,ug/ml,0,0.01,N,0,,54,0,0,PATCH,3,TRANSDERMAL,3,1,Xanomeline Low Dose,2013-02-09T04:00:00,82.56,177.8,26.115970599288136,2.0192936058598976,62,M,1,WHITE,5,NOT HISPANIC OR LATINO,2,USA,United States of America,235,114.92,68.92452488687783,62.13020076831435,22.23,24,20,54,0.505693633577535
345,XANOMELINE,1,CDISCPILOT01,1,01-708-1032,1032,1032,1032,708,708,345,6,6,6,6,0,2,1.7514537001815176,XAN,Pharmacokinetic concentration of Xanomeline,1,9,1.7514537001815176,ug/ml,0,0.01,N,0,,54,0,0,PATCH,3,TRANSDERMAL,3,1,Xanomeline Low Dose,2013-02-09T06:00:00,82.56,177.8,26.115970599288136,2.0192936058598976,62,M,1,WHITE,5,NOT HISPANIC OR LATINO,2,USA,United States of America,235,114.92,68.92452488687783,62.13020076831435,22.23,24,20,54,0.5604461289249182
346,XANOMELINE,1,CDISCPILOT01,1,01-708-1032,1032,1032,1032,708,708,346,6,6,3,3,0,3,28.75682893584845,XAN,Pharmacokinetic concentration of Xanomeline,1,10,28.75682893584845,ug/ml,0,0.01,N,0,,54,0,0,PATCH,3,TRANSDERMAL,3,1,Xanomeline Low Dose,2013-02-09T06:00:00,82.56,177.8,26.115970599288136,2.0192936058598976,62,M,1,WHITE,5,NOT HISPANIC OR LATINO,2,USA,United States of America,235,114.92,68.92452488687783,62.13020076831435,22.23,24,20,54,3.358875267241426
347,XANOMELINE,1,CDISCPILOT01,1,01-708-1032,1032,1032,1032,708,708,347,8,8,8,8,0,2,1.7763729819489171,XAN,Pharmacokinetic concentration of Xanomeline,1,11,1.7763729819489171,ug/ml,0,0.01,N,0,,54,0,0,PATCH,3,TRANSDERMAL,3,1,Xanomeline Low Dose,2013-02-09T08:00:00,82.56,177.8,26.115970599288136,2.0192936058598976,62,M,1,WHITE,5,NOT HISPANIC OR LATINO,2,USA,United States of America,235,114.92,68.92452488687783,62.13020076831435,22.23,24,20,54,0.5745736348790945
348,XANOMELINE,1,CDISCPILOT01,1,01-708-1032,1032,1032,1032,708,708,348,12,12,12,12,0,2,0.5672325627673732,XAN,Pharmacokinetic concentration of Xanomeline,1,12,0.5672325627673732,ug/ml,0,0.01,N,0,,54,0,0,PATCH,3,TRANSDERMAL,3,1,Xanomeline Low Dose,2013-02-09T12:00:00,82.56,177.8,26.115970599288136,2.0192936058598976,62,M,1,WHITE,5,NOT HISPANIC OR LATINO,2,USA,United States of America,235,114.92,68.92452488687783,62.13020076831435,22.23,24,20,54,-0.5669858957375972
349,XANOMELINE,1,CDISCPILOT01,1,01-708-1032,1032,1032,1032,708,708,349,12,12,9,9,0,3,24.795701353562897,XAN,Pharmacokinetic concentration of Xanomeline,1,13,24.795701353562897,ug/ml,0,0.01,N,0,,54,0,0,PATCH,3,TRANSDERMAL,3,1,Xanomeline Low Dose,2013-02-09T12:00:00,82.56,177.8,26.115970599288136,2.0192936058598976,62,M,1,WHITE,5,NOT HISPANIC OR LATINO,2,USA,United States of America,235,114.92,68.92452488687783,62.13020076831435,22.23,24,20,54,3.2106703056294945
350,XANOMELINE,1,CDISCPILOT01,1,01-708-1032,1032,1032,1032,708,708,350,16,16,16,16,0,2,0.18020806514002163,XAN,Pharmacokinetic concentration of Xanomeline,1,14,0.18020806514002163,ug/ml,0,0.01,N,0,,54,0,0,PATCH,3,TRANSDERMAL,3,1,Xanomeline Low Dose,2013-02-09T16:00:00,82.56,177.8,26.115970599288136,2.0192936058598976,62,M,1,WHITE,5,NOT HISPANIC OR LATINO,2,USA,United States of America,235,114.92,68.92452488687783,62.13020076831435,22.23,24,20,54,-1.7136431782055528
351,XANOMELINE,1,CDISCPILOT01,1,01-708-1032,1032,1032,1032,708,708,351,24,24,24,24,0,2,0.018188645683240173,XAN,Pharmacokinetic concentration of Xanomeline,1,15,0.018188645683240173,ug/ml,0,0.01,N,0,,54,0,0,PATCH,3,TRANSDERMAL,3,1,Xanomeline Low Dose,2013-02-10T00:00:00,82.56,177.8,26.115970599288136,2.0192936058598976,62,M,1,WHITE,5,NOT HISPANIC OR LATINO,2,USA,United States of America,235,114.92,68.92452488687783,62.13020076831435,22.23,24,20,54,-4.006957743141465
352,XANOMELINE,1,CDISCPILOT01,1,01-708-1032,1032,1032,1032,708,708,352,24,24,18,18,0,3,16.873446188991792,XAN,Pharmacokinetic concentration of Xanomeline,1,16,16.873446188991792,ug/ml,0,0.01,N,0,,54,0,0,PATCH,3,TRANSDERMAL,3,1,Xanomeline Low Dose,2013-02-10T00:00:00,82.56,177.8,26.115970599288136,2.0192936058598976,62,M,1,WHITE,5,NOT HISPANIC OR LATINO,2,USA,United States of America,235,114.92,68.92452488687783,62.13020076831435,22.23,24,20,54,2.8257411548298075
353,XANOMELINE,1,CDISCPILOT01,1,01-708-1032,1032,1032,1032,708,708,353,24,0,24,0,1,1,,DOSE,Xanomeline Patch Dose,2,17,,,1,,N,0,54,54,1,1,PATCH,3,TRANSDERMAL,3,1,Xanomeline Low Dose,2013-02-10T00:00:00,82.56,177.8,26.115970599288136,2.0192936058598976,62,M,1,WHITE,5,NOT HISPANIC OR LATINO,2,USA,United States of America,235,114.92,68.92452488687783,62.13020076831435,22.23,24,20,54,
354,XANOMELINE,1,CDISCPILOT01,1,01-708-1032,1032,1032,1032,708,708,354,36,12,36,12,0,2,,XAN,Pharmacokinetic concentration of Xanomeline,1,18,,ug/ml,1,0.01,Y,1,,54,0,0,PATCH,3,TRANSDERMAL,3,1,Xanomeline Low Dose,2013-02-10T12:00:00,82.56,177.8,26.115970599288136,2.0192936058598976,62,M,1,WHITE,5,NOT HISPANIC OR LATINO,2,USA,United States of America,235,114.92,68.92452488687783,62.13020076831435,22.23,24,20,54,
355,XANOMELINE,1,CDISCPILOT01,1,01-708-1032,1032,1032,1032,708,708,355,48,24,48,24,0,2,,XAN,Pharmacokinetic concentration of Xanomeline,1,19,,ug/ml,1,0.01,Y,1,,54,0,0,PATCH,3,TRANSDERMAL,3,1,Xanomeline Low Dose,2013-02-11T00:00:00,82.56,177.8,26.115970599288136,2.0192936058598976,62,M,1,WHITE,5,NOT HISPANIC OR LATINO,2,USA,United States of America,235,114.92,68.92452488687783,62.13020076831435,22.23,24,20,54,
356,XANOMELINE,1,CDISCPILOT01,1,01-708-1032,1032,1032,1032,708,708,356,48,24,36,12,0,3,1.0289358598495788,XAN,Pharmacokinetic concentration of Xanomeline,1,20,1.0289358598495788,ug/ml,0,0.01,N,0,,54,0,0,PATCH,3,TRANSDERMAL,3,1,Xanomeline Low Dose,2013-02-11T00:00:00,82.56,177.8,26.115970599288136,2.0192936058598976,62,M,1,WHITE,5,NOT HISPANIC OR LATINO,2,USA,United States of America,235,114.92,68.92452488687783,62.13020076831435,22.23,24,20,54,0.02852512240146311
357,XANOMELINE,1,CDISCPILOT01,1,01-708-1032,1032,1032,1032,708,708,357,48,0,48,0,1,1,,DOSE,Xanomeline Patch Dose,2,21,,,1,,N,0,54,54,1,1,PATCH,3,TRANSDERMAL,3,1,Xanomeline Low Dose,2013-02-11T00:00:00,82.56,177.8,26.115970599288136,2.0192936058598976,62,M,1,WHITE,5,NOT HISPANIC OR LATINO,2,USA,United States of America,235,114.92,68.92452488687783,62.13020076831435,22.23,24,20,54,
358,XANOMELINE,1,CDISCPILOT01,1,01-701-1033,1033,1033,1033,701,701,358,-0.5,-0.5,0,0,0,2,0,XAN,Pharmacokinetic concentration of Xanomeline,1,1,0,ug/ml,0,0.01,Y,1,,54,0,0,PATCH,3,TRANSDERMAL,3,1,Xanomeline Low Dose,2014-03-17T23:30:00,88.45,175.26,28.796003821791306,2.0751001983840043,74,M,1,WHITE,5,NOT HISPANIC OR LATINO,2,USA,United States of America,235,132.6,54.15061085972851,48.56385769194876,13.68,20,16,54,
359,XANOMELINE,1,CDISCPILOT01,1,01-701-1033,1033,1033,1033,701,701,359,0,0,0,0,1,1,,DOSE,Xanomeline Patch Dose,2,2,,,1,,N,0,54,54,1,1,PATCH,3,TRANSDERMAL,3,1,Xanomeline Low Dose,2014-03-18T00:00:00,88.45,175.26,28.796003821791306,2.0751001983840043,74,M,1,WHITE,5,NOT HISPANIC OR LATINO,2,USA,United States of America,235,132.6,54.15061085972851,48.56385769194876,13.68,20,16,54,
360,XANOMELINE,1,CDISCPILOT01,1,01-701-1033,1033,1033,1033,701,701,360,0.08333333333333333,0.08333333333333333,0.08333333333333333,0.08333333333333333,0,2,0.10052549817896052,XAN,Pharmacokinetic concentration of Xanomeline,1,3,0.10052549817896052,ug/ml,0,0.01,N,0,,54,0,0,PATCH,3,TRANSDERMAL,3,1,Xanomeline Low Dose,2014-03-18T00:05:00,88.45,175.26,28.796003821791306,2.0751001983840043,74,M,1,WHITE,5,NOT HISPANIC OR LATINO,2,USA,United States of America,235,132.6,54.15061085972851,48.56385769194876,13.68,20,16,54,-2.297343870439276
361,XANOMELINE,1,CDISCPILOT01,1,01-701-1033,1033,1033,1033,701,701,361,0.5,0.5,0.5,0.5,0,2,0.5479630370653037,XAN,Pharmacokinetic concentration of Xanomeline,1,4,0.5479630370653037,ug/ml,0,0.01,N,0,,54,0,0,PATCH,3,TRANSDERMAL,3,1,Xanomeline Low Dose,2014-03-18T00:30:00,88.45,175.26,28.796003821791306,2.0751001983840043,74,M,1,WHITE,5,NOT HISPANIC OR LATINO,2,USA,United States of America,235,132.6,54.15061085972851,48.56385769194876,13.68,20,16,54,-0.601547444919776
362,XANOMELINE,1,CDISCPILOT01,1,01-701-1033,1033,1033,1033,701,701,362,1,1,1,1,0,2,0.9393066785488768,XAN,Pharmacokinetic concentration of Xanomeline,1,5,0.9393066785488768,ug/ml,0,0.01,N,0,,54,0,0,PATCH,3,TRANSDERMAL,3,1,Xanomeline Low Dose,2014-03-18T01:00:00,88.45,175.26,28.796003821791306,2.0751001983840043,74,M,1,WHITE,5,NOT HISPANIC OR LATINO,2,USA,United States of America,235,132.6,54.15061085972851,48.56385769194876,13.68,20,16,54,-0.0626132518729329
363,XANOMELINE,1,CDISCPILOT01,1,01-701-1033,1033,1033,1033,701,701,363,1.5,1.5,1.5,1.5,0,2,1.218796051682218,XAN,Pharmacokinetic concentration of Xanomeline,1,6,1.218796051682218,ug/ml,0,0.01,N,0,,54,0,0,PATCH,3,TRANSDERMAL,3,1,Xanomeline Low Dose,2014-03-18T01:30:00,88.45,175.26,28.796003821791306,2.0751001983840043,74,M,1,WHITE,5,NOT HISPANIC OR LATINO,2,USA,United States of America,235,132.6,54.15061085972851,48.56385769194876,13.68,20,16,54,0.19786352861171322
364,XANOMELINE,1,CDISCPILOT01,1,01-701-1033,1033,1033,1033,701,701,364,2,2,2,2,0,2,1.4184014659885265,XAN,Pharmacokinetic concentration of Xanomeline,1,7,1.4184014659885265,ug/ml,0,0.01,N,0,,54,0,0,PATCH,3,TRANSDERMAL,3,1,Xanomeline Low Dose,2014-03-18T02:00:00,88.45,175.26,28.796003821791306,2.0751001983840043,74,M,1,WHITE,5,NOT HISPANIC OR LATINO,2,USA,United States of America,235,132.6,54.15061085972851,48.56385769194876,13.68,20,16,54,0.34953050932817753
365,XANOMELINE,1,CDISCPILOT01,1,01-701-1033,1033,1033,1033,701,701,365,4,4,4,4,0,2,1.787402210598094,XAN,Pharmacokinetic concentration of Xanomeline,1,8,1.787402210598094,ug/ml,0,0.01,N,0,,54,0,0,PATCH,3,TRANSDERMAL,3,1,Xanomeline Low Dose,2014-03-18T04:00:00,88.45,175.26,28.796003821791306,2.0751001983840043,74,M,1,WHITE,5,NOT HISPANIC OR LATINO,2,USA,United States of America,235,132.6,54.15061085972851,48.56385769194876,13.68,20,16,54,0.580763286731814
366,XANOMELINE,1,CDISCPILOT01,1,01-701-1033,1033,1033,1033,701,701,366,6,6,6,6,0,2,1.8833986916984014,XAN,Pharmacokinetic concentration of Xanomeline,1,9,1.8833986916984014,ug/ml,0,0.01,N,0,,54,0,0,PATCH,3,TRANSDERMAL,3,1,Xanomeline Low Dose,2014-03-18T06:00:00,88.45,175.26,28.796003821791306,2.0751001983840043,74,M,1,WHITE,5,NOT HISPANIC OR LATINO,2,USA,United States of America,235,132.6,54.15061085972851,48.56385769194876,13.68,20,16,54,0.6330779594447586
367,XANOMELINE,1,CDISCPILOT01,1,01-701-1033,1033,1033,1033,701,701,367,6,6,3,3,0,3,28.044023976471927,XAN,Pharmacokinetic concentration of Xanomeline,1,10,28.044023976471927,ug/ml,0,0.01,N,0,,54,0,0,PATCH,3,TRANSDERMAL,3,1,Xanomeline Low Dose,2014-03-18T06:00:00,88.45,175.26,28.796003821791306,2.0751001983840043,74,M,1,WHITE,5,NOT HISPANIC OR LATINO,2,USA,United States of America,235,132.6,54.15061085972851,48.56385769194876,13.68,20,16,54,3.3337755603034176
368,XANOMELINE,1,CDISCPILOT01,1,01-701-1033,1033,1033,1033,701,701,368,8,8,8,8,0,2,1.908372420121069,XAN,Pharmacokinetic concentration of Xanomeline,1,11,1.908372420121069,ug/ml,0,0.01,N,0,,54,0,0,PATCH,3,TRANSDERMAL,3,1,Xanomeline Low Dose,2014-03-18T08:00:00,88.45,175.26,28.796003821791306,2.0751001983840043,74,M,1,WHITE,5,NOT HISPANIC OR LATINO,2,USA,United States of America,235,132.6,54.15061085972851,48.56385769194876,13.68,20,16,54,0.6462507427219493
369,XANOMELINE,1,CDISCPILOT01,1,01-701-1033,1033,1033,1033,701,701,369,12,12,12,12,0,2,0.595418121736485,XAN,Pharmacokinetic concentration of Xanomeline,1,12,0.595418121736485,ug/ml,0,0.01,N,0,,54,0,0,PATCH,3,TRANSDERMAL,3,1,Xanomeline Low Dose,2014-03-18T12:00:00,88.45,175.26,28.796003821791306,2.0751001983840043,74,M,1,WHITE,5,NOT HISPANIC OR LATINO,2,USA,United States of America,235,132.6,54.15061085972851,48.56385769194876,13.68,20,16,54,-0.518491394624996
370,XANOMELINE,1,CDISCPILOT01,1,01-701-1033,1033,1033,1033,701,701,370,12,12,9,9,0,3,24.00456259739278,XAN,Pharmacokinetic concentration of Xanomeline,1,13,24.00456259739278,ug/ml,0,0.01,N,0,,54,0,0,PATCH,3,TRANSDERMAL,3,1,Xanomeline Low Dose,2014-03-18T12:00:00,88.45,175.26,28.796003821791306,2.0751001983840043,74,M,1,WHITE,5,NOT HISPANIC OR LATINO,2,USA,United States of America,235,132.6,54.15061085972851,48.56385769194876,13.68,20,16,54,3.178243920504366
371,XANOMELINE,1,CDISCPILOT01,1,01-701-1033,1033,1033,1033,701,701,371,16,16,16,16,0,2,0.1849213742651578,XAN,Pharmacokinetic concentration of Xanomeline,1,14,0.1849213742651578,ug/ml,0,0.01,N,0,,54,0,0,PATCH,3,TRANSDERMAL,3,1,Xanomeline Low Dose,2014-03-18T16:00:00,88.45,175.26,28.796003821791306,2.0751001983840043,74,M,1,WHITE,5,NOT HISPANIC OR LATINO,2,USA,United States of America,235,132.6,54.15061085972851,48.56385769194876,13.68,20,16,54,-1.6878245482157177
372,XANOMELINE,1,CDISCPILOT01,1,01-701-1033,1033,1033,1033,701,701,372,24,24,24,24,0,2,0.01783681221320965,XAN,Pharmacokinetic concentration of Xanomeline,1,15,0.01783681221320965,ug/ml,0,0.01,N,0,,54,0,0,PATCH,3,TRANSDERMAL,3,1,Xanomeline Low Dose,2014-03-19T00:00:00,88.45,175.26,28.796003821791306,2.0751001983840043,74,M,1,WHITE,5,NOT HISPANIC OR LATINO,2,USA,United States of America,235,132.6,54.15061085972851,48.56385769194876,13.68,20,16,54,-4.026490855397161
373,XANOMELINE,1,CDISCPILOT01,1,01-701-1033,1033,1033,1033,701,701,373,24,24,18,18,0,3,15.925639839234485,XAN,Pharmacokinetic concentration of Xanomeline,1,16,15.925639839234485,ug/ml,0,0.01,N,0,,54,0,0,PATCH,3,TRANSDERMAL,3,1,Xanomeline Low Dose,2014-03-19T00:00:00,88.45,175.26,28.796003821791306,2.0751001983840043,74,M,1,WHITE,5,NOT HISPANIC OR LATINO,2,USA,United States of America,235,132.6,54.15061085972851,48.56385769194876,13.68,20,16,54,2.767930378938981
374,XANOMELINE,1,CDISCPILOT01,1,01-701-1033,1033,1033,1033,701,701,374,24,0,24,0,1,1,,DOSE,Xanomeline Patch Dose,2,17,,,1,,N,0,54,54,1,1,PATCH,3,TRANSDERMAL,3,1,Xanomeline Low Dose,2014-03-19T00:00:00,88.45,175.26,28.796003821791306,2.0751001983840043,74,M,1,WHITE,5,NOT HISPANIC OR LATINO,2,USA,United States of America,235,132.6,54.15061085972851,48.56385769194876,13.68,20,16,54,
375,XANOMELINE,1,CDISCPILOT01,1,01-701-1033,1033,1033,1033,701,701,375,36,12,36,12,0,2,,XAN,Pharmacokinetic concentration of Xanomeline,1,18,,ug/ml,1,0.01,Y,1,,54,0,0,PATCH,3,TRANSDERMAL,3,1,Xanomeline Low Dose,2014-03-19T12:00:00,88.45,175.26,28.796003821791306,2.0751001983840043,74,M,1,WHITE,5,NOT HISPANIC OR LATINO,2,USA,United States of America,235,132.6,54.15061085972851,48.56385769194876,13.68,20,16,54,
376,XANOMELINE,1,CDISCPILOT01,1,01-701-1033,1033,1033,1033,701,701,376,48,24,48,24,0,2,,XAN,Pharmacokinetic concentration of Xanomeline,1,19,,ug/ml,1,0.01,Y,1,,54,0,0,PATCH,3,TRANSDERMAL,3,1,Xanomeline Low Dose,2014-03-20T00:00:00,88.45,175.26,28.796003821791306,2.0751001983840043,74,M,1,WHITE,5,NOT HISPANIC OR LATINO,2,USA,United States of America,235,132.6,54.15061085972851,48.56385769194876,13.68,20,16,54,
377,XANOMELINE,1,CDISCPILOT01,1,01-701-1033,1033,1033,1033,701,701,377,48,24,36,12,0,3,,XAN,Pharmacokinetic concentration of Xanomeline,1,20,,ug/ml,1,0.01,Y,1,,54,0,0,PATCH,3,TRANSDERMAL,3,1,Xanomeline Low Dose,2014-03-20T00:00:00,88.45,175.26,28.796003821791306,2.0751001983840043,74,M,1,WHITE,5,NOT HISPANIC OR LATINO,2,USA,United States of America,235,132.6,54.15061085972851,48.56385769194876,13.68,20,16,54,
378,XANOMELINE,1,CDISCPILOT01,1,01-701-1033,1033,1033,1033,701,701,378,48,0,48,0,1,1,,DOSE,Xanomeline Patch Dose,2,21,,,1,,N,0,54,54,1,1,PATCH,3,TRANSDERMAL,3,1,Xanomeline Low Dose,2014-03-20T00:00:00,88.45,175.26,28.796003821791306,2.0751001983840043,74,M,1,WHITE,5,NOT HISPANIC OR LATINO,2,USA,United States of America,235,132.6,54.15061085972851,48.56385769194876,13.68,20,16,54,
379,XANOMELINE,1,CDISCPILOT01,1,01-701-1034,1034,1034,1034,701,701,379,-0.5,-0.5,0,0,0,2,0,XAN,Pharmacokinetic concentration of Xanomeline,1,1,0,ug/ml,0,0.01,Y,1,,54,0,0,PATCH,3,TRANSDERMAL,3,2,Xanomeline High Dose,2014-06-30T23:30:00,62.6,154.94,26.07637572168453,1.6414123322445353,77,F,2,WHITE,5,NOT HISPANIC OR LATINO,2,USA,United States of America,235,88.39999999999999,46.39764705882354,58.0399213301922,10.26,23,15,81,
380,XANOMELINE,1,CDISCPILOT01,1,01-701-1034,1034,1034,1034,701,701,380,0,0,0,0,1,1,,DOSE,Xanomeline Patch Dose,2,2,,,1,,N,0,54,54,1,1,PATCH,3,TRANSDERMAL,3,2,Xanomeline High Dose,2014-07-01T00:00:00,62.6,154.94,26.07637572168453,1.6414123322445353,77,F,2,WHITE,5,NOT HISPANIC OR LATINO,2,USA,United States of America,235,88.39999999999999,46.39764705882354,58.0399213301922,10.26,23,15,81,
381,XANOMELINE,1,CDISCPILOT01,1,01-701-1034,1034,1034,1034,701,701,381,0.08333333333333333,0.08333333333333333,0.08333333333333333,0.08333333333333333,0,2,0.10502986359315457,XAN,Pharmacokinetic concentration of Xanomeline,1,3,0.10502986359315457,ug/ml,0,0.01,N,0,,54,0,0,PATCH,3,TRANSDERMAL,3,2,Xanomeline High Dose,2014-07-01T00:05:00,62.6,154.94,26.07637572168453,1.6414123322445353,77,F,2,WHITE,5,NOT HISPANIC OR LATINO,2,USA,United States of America,235,88.39999999999999,46.39764705882354,58.0399213301922,10.26,23,15,81,-2.253510554090041
382,XANOMELINE,1,CDISCPILOT01,1,01-701-1034,1034,1034,1034,701,701,382,0.5,0.5,0.5,0.5,0,2,0.5685271914762146,XAN,Pharmacokinetic concentration of Xanomeline,1,4,0.5685271914762146,ug/ml,0,0.01,N,0,,54,0,0,PATCH,3,TRANSDERMAL,3,2,Xanomeline High Dose,2014-07-01T00:30:00,62.6,154.94,26.07637572168453,1.6414123322445353,77,F,2,WHITE,5,NOT HISPANIC OR LATINO,2,USA,United States of America,235,88.39999999999999,46.39764705882354,58.0399213301922,10.26,23,15,81,-0.5647061367221563
383,XANOMELINE,1,CDISCPILOT01,1,01-701-1034,1034,1034,1034,701,701,383,1,1,1,1,0,2,0.9673792519053143,XAN,Pharmacokinetic concentration of Xanomeline,1,5,0.9673792519053143,ug/ml,0,0.01,N,0,,54,0,0,PATCH,3,TRANSDERMAL,3,2,Xanomeline High Dose,2014-07-01T01:00:00,62.6,154.94,26.07637572168453,1.6414123322445353,77,F,2,WHITE,5,NOT HISPANIC OR LATINO,2,USA,United States of America,235,88.39999999999999,46.39764705882354,58.0399213301922,10.26,23,15,81,-0.03316466609912974
384,XANOMELINE,1,CDISCPILOT01,1,01-701-1034,1034,1034,1034,701,701,384,1.5,1.5,1.5,1.5,0,2,1.2471951841837159,XAN,Pharmacokinetic concentration of Xanomeline,1,6,1.2471951841837159,ug/ml,0,0.01,N,0,,54,0,0,PATCH,3,TRANSDERMAL,3,2,Xanomeline High Dose,2014-07-01T01:30:00,62.6,154.94,26.07637572168453,1.6414123322445353,77,F,2,WHITE,5,NOT HISPANIC OR LATINO,2,USA,United States of America,235,88.39999999999999,46.39764705882354,58.0399213301922,10.26,23,15,81,0.22089717745163032
385,XANOMELINE,1,CDISCPILOT01,1,01-701-1034,1034,1034,1034,701,701,385,2,2,2,2,0,2,1.4435009419441154,XAN,Pharmacokinetic concentration of Xanomeline,1,7,1.4435009419441154,ug/ml,0,0.01,N,0,,54,0,0,PATCH,3,TRANSDERMAL,3,2,Xanomeline High Dose,2014-07-01T02:00:00,62.6,154.94,26.07637572168453,1.6414123322445353,77,F,2,WHITE,5,NOT HISPANIC OR LATINO,2,USA,United States of America,235,88.39999999999999,46.39764705882354,58.0399213301922,10.26,23,15,81,0.3670713726624586
386,XANOMELINE,1,CDISCPILOT01,1,01-701-1034,1034,1034,1034,701,701,386,4,4,4,4,0,2,1.7931718228016391,XAN,Pharmacokinetic concentration of Xanomeline,1,8,1.7931718228016391,ug/ml,0,0.01,N,0,,54,0,0,PATCH,3,TRANSDERMAL,3,2,Xanomeline High Dose,2014-07-01T04:00:00,62.6,154.94,26.07637572168453,1.6414123322445353,77,F,2,WHITE,5,NOT HISPANIC OR LATINO,2,USA,United States of America,235,88.39999999999999,46.39764705882354,58.0399213301922,10.26,23,15,81,0.5839860198150171
387,XANOMELINE,1,CDISCPILOT01,1,01-701-1034,1034,1034,1034,701,701,387,6,6,6,6,0,2,1.877875421785789,XAN,Pharmacokinetic concentration of Xanomeline,1,9,1.877875421785789,ug/ml,0,0.01,N,0,,54,0,0,PATCH,3,TRANSDERMAL,3,2,Xanomeline High Dose,2014-07-01T06:00:00,62.6,154.94,26.07637572168453,1.6414123322445353,77,F,2,WHITE,5,NOT HISPANIC OR LATINO,2,USA,United States of America,235,88.39999999999999,46.39764705882354,58.0399213301922,10.26,23,15,81,0.6301410430084473
388,XANOMELINE,1,CDISCPILOT01,1,01-701-1034,1034,1034,1034,701,701,388,6,6,3,3,0,3,26.215502325536082,XAN,Pharmacokinetic concentration of Xanomeline,1,10,26.215502325536082,ug/ml,0,0.01,N,0,,54,0,0,PATCH,3,TRANSDERMAL,3,2,Xanomeline High Dose,2014-07-01T06:00:00,62.6,154.94,26.07637572168453,1.6414123322445353,77,F,2,WHITE,5,NOT HISPANIC OR LATINO,2,USA,United States of America,235,88.39999999999999,46.39764705882354,58.0399213301922,10.26,23,15,81,3.2663509276008234
389,XANOMELINE,1,CDISCPILOT01,1,01-701-1034,1034,1034,1034,701,701,389,8,8,8,8,0,2,1.8983938580458302,XAN,Pharmacokinetic concentration of Xanomeline,1,11,1.8983938580458302,ug/ml,0,0.01,N,0,,54,0,0,PATCH,3,TRANSDERMAL,3,2,Xanomeline High Dose,2014-07-01T08:00:00,62.6,154.94,26.07637572168453,1.6414123322445353,77,F,2,WHITE,5,NOT HISPANIC OR LATINO,2,USA,United States of America,235,88.39999999999999,46.39764705882354,58.0399213301922,10.26,23,15,81,0.6410081908022351
390,XANOMELINE,1,CDISCPILOT01,1,01-701-1034,1034,1034,1034,701,701,390,12,12,12,12,0,2,0.5560839824942169,XAN,Pharmacokinetic concentration of Xanomeline,1,12,0.5560839824942169,ug/ml,0,0.01,N,0,,54,0,0,PATCH,3,TRANSDERMAL,3,2,Xanomeline High Dose,2014-07-01T12:00:00,62.6,154.94,26.07637572168453,1.6414123322445353,77,F,2,WHITE,5,NOT HISPANIC OR LATINO,2,USA,United States of America,235,88.39999999999999,46.39764705882354,58.0399213301922,10.26,23,15,81,-0.5868359484866333
391,XANOMELINE,1,CDISCPILOT01,1,01-701-1034,1034,1034,1034,701,701,391,12,12,9,9,0,3,21.961999485639254,XAN,Pharmacokinetic concentration of Xanomeline,1,13,21.961999485639254,ug/ml,0,0.01,N,0,,54,0,0,PATCH,3,TRANSDERMAL,3,2,Xanomeline High Dose,2014-07-01T12:00:00,62.6,154.94,26.07637572168453,1.6414123322445353,77,F,2,WHITE,5,NOT HISPANIC OR LATINO,2,USA,United States of America,235,88.39999999999999,46.39764705882354,58.0399213301922,10.26,23,15,81,3.089313663755034
392,XANOMELINE,1,CDISCPILOT01,1,01-701-1034,1034,1034,1034,701,701,392,16,16,16,16,0,2,0.16232913820526063,XAN,Pharmacokinetic concentration of Xanomeline,1,14,0.16232913820526063,ug/ml,0,0.01,N,0,,54,0,0,PATCH,3,TRANSDERMAL,3,2,Xanomeline High Dose,2014-07-01T16:00:00,62.6,154.94,26.07637572168453,1.6414123322445353,77,F,2,WHITE,5,NOT HISPANIC OR LATINO,2,USA,United States of America,235,88.39999999999999,46.39764705882354,58.0399213301922,10.26,23,15,81,-1.8181292875796506
393,XANOMELINE,1,CDISCPILOT01,1,01-701-1034,1034,1034,1034,701,701,393,24,24,24,24,0,2,0.013832754761395649,XAN,Pharmacokinetic concentration of Xanomeline,1,15,0.013832754761395649,ug/ml,0,0.01,N,0,,54,0,0,PATCH,3,TRANSDERMAL,3,2,Xanomeline High Dose,2014-07-02T00:00:00,62.6,154.94,26.07637572168453,1.6414123322445353,77,F,2,WHITE,5,NOT HISPANIC OR LATINO,2,USA,United States of America,235,88.39999999999999,46.39764705882354,58.0399213301922,10.26,23,15,81,-4.280715965765685
394,XANOMELINE,1,CDISCPILOT01,1,01-701-1034,1034,1034,1034,701,701,394,24,24,18,18,0,3,13.4549938058456,XAN,Pharmacokinetic concentration of Xanomeline,1,16,13.4549938058456,ug/ml,0,0.01,N,0,,54,0,0,PATCH,3,TRANSDERMAL,3,2,Xanomeline High Dose,2014-07-02T00:00:00,62.6,154.94,26.07637572168453,1.6414123322445353,77,F,2,WHITE,5,NOT HISPANIC OR LATINO,2,USA,United States of America,235,88.39999999999999,46.39764705882354,58.0399213301922,10.26,23,15,81,2.5993503238179754
395,XANOMELINE,1,CDISCPILOT01,1,01-701-1034,1034,1034,1034,701,701,395,24,0,24,0,1,1,,DOSE,Xanomeline Patch Dose,2,17,,,1,,N,0,54,54,1,1,PATCH,3,TRANSDERMAL,3,2,Xanomeline High Dose,2014-07-02T00:00:00,62.6,154.94,26.07637572168453,1.6414123322445353,77,F,2,WHITE,5,NOT HISPANIC OR LATINO,2,USA,United States of America,235,88.39999999999999,46.39764705882354,58.0399213301922,10.26,23,15,81,
396,XANOMELINE,1,CDISCPILOT01,1,01-701-1034,1034,1034,1034,701,701,396,36,12,36,12,0,2,,XAN,Pharmacokinetic concentration of Xanomeline,1,18,,ug/ml,1,0.01,Y,1,,54,0,0,PATCH,3,TRANSDERMAL,3,2,Xanomeline High Dose,2014-07-02T12:00:00,62.6,154.94,26.07637572168453,1.6414123322445353,77,F,2,WHITE,5,NOT HISPANIC OR LATINO,2,USA,United States of America,235,88.39999999999999,46.39764705882354,58.0399213301922,10.26,23,15,81,
397,XANOMELINE,1,CDISCPILOT01,1,01-701-1034,1034,1034,1034,701,701,397,48,24,48,24,0,2,,XAN,Pharmacokinetic concentration of Xanomeline,1,19,,ug/ml,1,0.01,Y,1,,54,0,0,PATCH,3,TRANSDERMAL,3,2,Xanomeline High Dose,2014-07-03T00:00:00,62.6,154.94,26.07637572168453,1.6414123322445353,77,F,2,WHITE,5,NOT HISPANIC OR LATINO,2,USA,United States of America,235,88.39999999999999,46.39764705882354,58.0399213301922,10.26,23,15,81,
398,XANOMELINE,1,CDISCPILOT01,1,01-701-1034,1034,1034,1034,701,701,398,48,24,36,12,0,3,,XAN,Pharmacokinetic concentration of Xanomeline,1,20,,ug/ml,1,0.01,Y,1,,54,0,0,PATCH,3,TRANSDERMAL,3,2,Xanomeline High Dose,2014-07-03T00:00:00,62.6,154.94,26.07637572168453,1.6414123322445353,77,F,2,WHITE,5,NOT HISPANIC OR LATINO,2,USA,United States of America,235,88.39999999999999,46.39764705882354,58.0399213301922,10.26,23,15,81,
399,XANOMELINE,1,CDISCPILOT01,1,01-701-1034,1034,1034,1034,701,701,399,48,0,48,0,1,1,,DOSE,Xanomeline Patch Dose,2,21,,,1,,N,0,54,54,1,1,PATCH,3,TRANSDERMAL,3,2,Xanomeline High Dose,2014-07-03T00:00:00,62.6,154.94,26.07637572168453,1.6414123322445353,77,F,2,WHITE,5,NOT HISPANIC OR LATINO,2,USA,United States of America,235,88.39999999999999,46.39764705882354,58.0399213301922,10.26,23,15,81,
400,XANOMELINE,1,CDISCPILOT01,1,01-707-1037,1037,1037,1037,707,707,400,-0.5,-0.5,0,0,0,2,0,XAN,Pharmacokinetic concentration of Xanomeline,1,1,0,ug/ml,0,0.01,Y,1,,54,0,0,PATCH,3,TRANSDERMAL,3,1,Xanomeline Low Dose,2013-12-19T23:30:00,55.34,152.4,23.82699209842864,1.5305968334825037,72,F,2,WHITE,5,NOT HISPANIC OR LATINO,2,USA,United States of America,235,114.92,34.05538461538462,43.701850829498795,5.13,26,5,54,
401,XANOMELINE,1,CDISCPILOT01,1,01-707-1037,1037,1037,1037,707,707,401,0,0,0,0,1,1,,DOSE,Xanomeline Patch Dose,2,2,,,1,,N,0,54,54,1,1,PATCH,3,TRANSDERMAL,3,1,Xanomeline Low Dose,2013-12-20T00:00:00,55.34,152.4,23.82699209842864,1.5305968334825037,72,F,2,WHITE,5,NOT HISPANIC OR LATINO,2,USA,United States of America,235,114.92,34.05538461538462,43.701850829498795,5.13,26,5,54,
402,XANOMELINE,1,CDISCPILOT01,1,01-707-1037,1037,1037,1037,707,707,402,0.08333333333333333,0.08333333333333333,0.08333333333333333,0.08333333333333333,0,2,0.10660042915072128,XAN,Pharmacokinetic concentration of Xanomeline,1,3,0.10660042915072128,ug/ml,0,0.01,N,0,,54,0,0,PATCH,3,TRANSDERMAL,3,1,Xanomeline Low Dose,2013-12-20T00:05:00,55.34,152.4,23.82699209842864,1.5305968334825037,72,F,2,WHITE,5,NOT HISPANIC OR LATINO,2,USA,United States of America,235,114.92,34.05538461538462,43.701850829498795,5.13,26,5,54,-2.238667741454357
403,XANOMELINE,1,CDISCPILOT01,1,01-707-1037,1037,1037,1037,707,707,403,0.5,0.5,0.5,0.5,0,2,0.5771773772935423,XAN,Pharmacokinetic concentration of Xanomeline,1,4,0.5771773772935423,ug/ml,0,0.01,N,0,,54,0,0,PATCH,3,TRANSDERMAL,3,1,Xanomeline Low Dose,2013-12-20T00:30:00,55.34,152.4,23.82699209842864,1.5305968334825037,72,F,2,WHITE,5,NOT HISPANIC OR LATINO,2,USA,United States of America,235,114.92,34.05538461538462,43.701850829498795,5.13,26,5,54,-0.5496056467286531
404,XANOMELINE,1,CDISCPILOT01,1,01-707-1037,1037,1037,1037,707,707,404,1,1,1,1,0,2,0.9823647334868796,XAN,Pharmacokinetic concentration of Xanomeline,1,5,0.9823647334868796,ug/ml,0,0.01,N,0,,54,0,0,PATCH,3,TRANSDERMAL,3,1,Xanomeline Low Dose,2013-12-20T01:00:00,55.34,152.4,23.82699209842864,1.5305968334825037,72,F,2,WHITE,5,NOT HISPANIC OR LATINO,2,USA,United States of America,235,114.92,34.05538461538462,43.701850829498795,5.13,26,5,54,-0.017792620557235336
405,XANOMELINE,1,CDISCPILOT01,1,01-707-1037,1037,1037,1037,707,707,405,1.5,1.5,1.5,1.5,0,2,1.2668124614778693,XAN,Pharmacokinetic concentration of Xanomeline,1,6,1.2668124614778693,ug/ml,0,0.01,N,0,,54,0,0,PATCH,3,TRANSDERMAL,3,1,Xanomeline Low Dose,2013-12-20T01:30:00,55.34,152.4,23.82699209842864,1.5305968334825037,72,F,2,WHITE,5,NOT HISPANIC OR LATINO,2,USA,United States of America,235,114.92,34.05538461538462,43.701850829498795,5.13,26,5,54,0.23650387260733827
406,XANOMELINE,1,CDISCPILOT01,1,01-707-1037,1037,1037,1037,707,707,406,2,2,2,2,0,2,1.4664991217907077,XAN,Pharmacokinetic concentration of Xanomeline,1,7,1.4664991217907077,ug/ml,0,0.01,N,0,,54,0,0,PATCH,3,TRANSDERMAL,3,1,Xanomeline Low Dose,2013-12-20T02:00:00,55.34,152.4,23.82699209842864,1.5305968334825037,72,F,2,WHITE,5,NOT HISPANIC OR LATINO,2,USA,United States of America,235,114.92,34.05538461538462,43.701850829498795,5.13,26,5,54,0.38287801058807563
407,XANOMELINE,1,CDISCPILOT01,1,01-707-1037,1037,1037,1037,707,707,407,4,4,4,4,0,2,1.8226779861459095,XAN,Pharmacokinetic concentration of Xanomeline,1,8,1.8226779861459095,ug/ml,0,0.01,N,0,,54,0,0,PATCH,3,TRANSDERMAL,3,1,Xanomeline Low Dose,2013-12-20T04:00:00,55.34,152.4,23.82699209842864,1.5305968334825037,72,F,2,WHITE,5,NOT HISPANIC OR LATINO,2,USA,United States of America,235,114.92,34.05538461538462,43.701850829498795,5.13,26,5,54,0.6003068405689191
408,XANOMELINE,1,CDISCPILOT01,1,01-707-1037,1037,1037,1037,707,707,408,6,6,6,6,0,2,1.909185629777125,XAN,Pharmacokinetic concentration of Xanomeline,1,9,1.909185629777125,ug/ml,0,0.01,N,0,,54,0,0,PATCH,3,TRANSDERMAL,3,1,Xanomeline Low Dose,2013-12-20T06:00:00,55.34,152.4,23.82699209842864,1.5305968334825037,72,F,2,WHITE,5,NOT HISPANIC OR LATINO,2,USA,United States of America,235,114.92,34.05538461538462,43.701850829498795,5.13,26,5,54,0.6466767792917811
409,XANOMELINE,1,CDISCPILOT01,1,01-707-1037,1037,1037,1037,707,707,409,6,6,3,3,0,3,26.280114433470647,XAN,Pharmacokinetic concentration of Xanomeline,1,10,26.280114433470647,ug/ml,0,0.01,N,0,,54,0,0,PATCH,3,TRANSDERMAL,3,1,Xanomeline Low Dose,2013-12-20T06:00:00,55.34,152.4,23.82699209842864,1.5305968334825037,72,F,2,WHITE,5,NOT HISPANIC OR LATINO,2,USA,United States of America,235,114.92,34.05538461538462,43.701850829498795,5.13,26,5,54,3.2688125480007897
410,XANOMELINE,1,CDISCPILOT01,1,01-707-1037,1037,1037,1037,707,707,410,8,8,8,8,0,2,1.9301963442117758,XAN,Pharmacokinetic concentration of Xanomeline,1,11,1.9301963442117758,ug/ml,0,0.01,N,0,,54,0,0,PATCH,3,TRANSDERMAL,3,1,Xanomeline Low Dose,2013-12-20T08:00:00,55.34,152.4,23.82699209842864,1.5305968334825037,72,F,2,WHITE,5,NOT HISPANIC OR LATINO,2,USA,United States of America,235,114.92,34.05538461538462,43.701850829498795,5.13,26,5,54,0.6576217304945841
411,XANOMELINE,1,CDISCPILOT01,1,01-707-1037,1037,1037,1037,707,707,411,12,12,12,12,0,2,0.5667152303373292,XAN,Pharmacokinetic concentration of Xanomeline,1,12,0.5667152303373292,ug/ml,0,0.01,N,0,,54,0,0,PATCH,3,TRANSDERMAL,3,1,Xanomeline Low Dose,2013-12-20T12:00:00,55.34,152.4,23.82699209842864,1.5305968334825037,72,F,2,WHITE,5,NOT HISPANIC OR LATINO,2,USA,United States of America,235,114.92,34.05538461538462,43.701850829498795,5.13,26,5,54,-0.5678983406827387
412,XANOMELINE,1,CDISCPILOT01,1,01-707-1037,1037,1037,1037,707,707,412,12,12,9,9,0,3,22.03451366268424,XAN,Pharmacokinetic concentration of Xanomeline,1,13,22.03451366268424,ug/ml,0,0.01,N,0,,54,0,0,PATCH,3,TRANSDERMAL,3,1,Xanomeline Low Dose,2013-12-20T12:00:00,55.34,152.4,23.82699209842864,1.5305968334825037,72,F,2,WHITE,5,NOT HISPANIC OR LATINO,2,USA,United States of America,235,114.92,34.05538461538462,43.701850829498795,5.13,26,5,54,3.092610026921913
413,XANOMELINE,1,CDISCPILOT01,1,01-707-1037,1037,1037,1037,707,707,413,16,16,16,16,0,2,0.16581141201904856,XAN,Pharmacokinetic concentration of Xanomeline,1,14,0.16581141201904856,ug/ml,0,0.01,N,0,,54,0,0,PATCH,3,TRANSDERMAL,3,1,Xanomeline Low Dose,2013-12-20T16:00:00,55.34,152.4,23.82699209842864,1.5305968334825037,72,F,2,WHITE,5,NOT HISPANIC OR LATINO,2,USA,United States of America,235,114.92,34.05538461538462,43.701850829498795,5.13,26,5,54,-1.7969042086191707
414,XANOMELINE,1,CDISCPILOT01,1,01-707-1037,1037,1037,1037,707,707,414,24,24,24,24,0,2,0.014194283803170721,XAN,Pharmacokinetic concentration of Xanomeline,1,15,0.014194283803170721,ug/ml,0,0.01,N,0,,54,0,0,PATCH,3,TRANSDERMAL,3,1,Xanomeline Low Dose,2013-12-21T00:00:00,55.34,152.4,23.82699209842864,1.5305968334825037,72,F,2,WHITE,5,NOT HISPANIC OR LATINO,2,USA,United States of America,235,114.92,34.05538461538462,43.701850829498795,5.13,26,5,54,-4.254915944492034
415,XANOMELINE,1,CDISCPILOT01,1,01-707-1037,1037,1037,1037,707,707,415,24,24,18,18,0,3,13.543312121111434,XAN,Pharmacokinetic concentration of Xanomeline,1,16,13.543312121111434,ug/ml,0,0.01,N,0,,54,0,0,PATCH,3,TRANSDERMAL,3,1,Xanomeline Low Dose,2013-12-21T00:00:00,55.34,152.4,23.82699209842864,1.5305968334825037,72,F,2,WHITE,5,NOT HISPANIC OR LATINO,2,USA,United States of America,235,114.92,34.05538461538462,43.701850829498795,5.13,26,5,54,2.6058928550820664
416,XANOMELINE,1,CDISCPILOT01,1,01-707-1037,1037,1037,1037,707,707,416,24,0,24,0,1,1,,DOSE,Xanomeline Patch Dose,2,17,,,1,,N,0,54,54,1,1,PATCH,3,TRANSDERMAL,3,1,Xanomeline Low Dose,2013-12-21T00:00:00,55.34,152.4,23.82699209842864,1.5305968334825037,72,F,2,WHITE,5,NOT HISPANIC OR LATINO,2,USA,United States of America,235,114.92,34.05538461538462,43.701850829498795,5.13,26,5,54,
417,XANOMELINE,1,CDISCPILOT01,1,01-707-1037,1037,1037,1037,707,707,417,36,12,36,12,0,2,,XAN,Pharmacokinetic concentration of Xanomeline,1,18,,ug/ml,1,0.01,Y,1,,54,0,0,PATCH,3,TRANSDERMAL,3,1,Xanomeline Low Dose,2013-12-21T12:00:00,55.34,152.4,23.82699209842864,1.5305968334825037,72,F,2,WHITE,5,NOT HISPANIC OR LATINO,2,USA,United States of America,235,114.92,34.05538461538462,43.701850829498795,5.13,26,5,54,
418,XANOMELINE,1,CDISCPILOT01,1,01-707-1037,1037,1037,1037,707,707,418,48,24,48,24,0,2,,XAN,Pharmacokinetic concentration of Xanomeline,1,19,,ug/ml,1,0.01,Y,1,,54,0,0,PATCH,3,TRANSDERMAL,3,1,Xanomeline Low Dose,2013-12-22T00:00:00,55.34,152.4,23.82699209842864,1.5305968334825037,72,F,2,WHITE,5,NOT HISPANIC OR LATINO,2,USA,United States of America,235,114.92,34.05538461538462,43.701850829498795,5.13,26,5,54,
419,XANOMELINE,1,CDISCPILOT01,1,01-707-1037,1037,1037,1037,707,707,419,48,24,36,12,0,3,,XAN,Pharmacokinetic concentration of Xanomeline,1,20,,ug/ml,1,0.01,Y,1,,54,0,0,PATCH,3,TRANSDERMAL,3,1,Xanomeline Low Dose,2013-12-22T00:00:00,55.34,152.4,23.82699209842864,1.5305968334825037,72,F,2,WHITE,5,NOT HISPANIC OR LATINO,2,USA,United States of America,235,114.92,34.05538461538462,43.701850829498795,5.13,26,5,54,
420,XANOMELINE,1,CDISCPILOT01,1,01-707-1037,1037,1037,1037,707,707,420,48,0,48,0,1,1,,DOSE,Xanomeline Patch Dose,2,21,,,1,,N,0,54,54,1,1,PATCH,3,TRANSDERMAL,3,1,Xanomeline Low Dose,2013-12-22T00:00:00,55.34,152.4,23.82699209842864,1.5305968334825037,72,F,2,WHITE,5,NOT HISPANIC OR LATINO,2,USA,United States of America,235,114.92,34.05538461538462,43.701850829498795,5.13,26,5,54,
421,XANOMELINE,1,CDISCPILOT01,1,01-713-1043,1043,1043,1043,713,713,421,-0.5,-0.5,0,0,0,2,0,XAN,Pharmacokinetic concentration of Xanomeline,1,1,0,ug/ml,0,0.01,Y,1,,54,0,0,PATCH,3,TRANSDERMAL,3,1,Xanomeline Low Dose,2013-09-14T23:30:00,51.26,165.1,18.805481397945044,1.53324510615738,78,F,2,WHITE,5,NOT HISPANIC OR LATINO,2,USA,United States of America,235,97.24,33.99058823529412,51.44635205240189,6.84,26,16,54,
422,XANOMELINE,1,CDISCPILOT01,1,01-713-1043,1043,1043,1043,713,713,422,0,0,0,0,1,1,,DOSE,Xanomeline Patch Dose,2,2,,,1,,N,0,54,54,1,1,PATCH,3,TRANSDERMAL,3,1,Xanomeline Low Dose,2013-09-15T00:00:00,51.26,165.1,18.805481397945044,1.53324510615738,78,F,2,WHITE,5,NOT HISPANIC OR LATINO,2,USA,United States of America,235,97.24,33.99058823529412,51.44635205240189,6.84,26,16,54,
423,XANOMELINE,1,CDISCPILOT01,1,01-713-1043,1043,1043,1043,713,713,423,0.08333333333333333,0.08333333333333333,0.08333333333333333,0.08333333333333333,0,2,0.0990420489101005,XAN,Pharmacokinetic concentration of Xanomeline,1,3,0.0990420489101005,ug/ml,0,0.01,N,0,,54,0,0,PATCH,3,TRANSDERMAL,3,1,Xanomeline Low Dose,2013-09-15T00:05:00,51.26,165.1,18.805481397945044,1.53324510615738,78,F,2,WHITE,5,NOT HISPANIC OR LATINO,2,USA,United States of America,235,97.24,33.99058823529412,51.44635205240189,6.84,26,16,54,-2.3122107825568854
424,XANOMELINE,1,CDISCPILOT01,1,01-713-1043,1043,1043,1043,713,713,424,0.5,0.5,0.5,0.5,0,2,0.5380629758466392,XAN,Pharmacokinetic concentration of Xanomeline,1,4,0.5380629758466392,ug/ml,0,0.01,N,0,,54,0,0,PATCH,3,TRANSDERMAL,3,1,Xanomeline Low Dose,2013-09-15T00:30:00,51.26,165.1,18.805481397945044,1.53324510615738,78,F,2,WHITE,5,NOT HISPANIC OR LATINO,2,USA,United States of America,235,97.24,33.99058823529412,51.44635205240189,6.84,26,16,54,-0.6197796701937859
425,XANOMELINE,1,CDISCPILOT01,1,01-713-1043,1043,1043,1043,713,713,425,1,1,1,1,0,2,0.9190544527281717,XAN,Pharmacokinetic concentration of Xanomeline,1,5,0.9190544527281717,ug/ml,0,0.01,N,0,,54,0,0,PATCH,3,TRANSDERMAL,3,1,Xanomeline Low Dose,2013-09-15T01:00:00,51.26,165.1,18.805481397945044,1.53324510615738,78,F,2,WHITE,5,NOT HISPANIC OR LATINO,2,USA,United States of America,235,97.24,33.99058823529412,51.44635205240189,6.84,26,16,54,-0.08440990622926317
426,XANOMELINE,1,CDISCPILOT01,1,01-713-1043,1043,1043,1043,713,713,426,1.5,1.5,1.5,1.5,0,2,1.188826787886471,XAN,Pharmacokinetic concentration of Xanomeline,1,6,1.188826787886471,ug/ml,0,0.01,N,0,,54,0,0,PATCH,3,TRANSDERMAL,3,1,Xanomeline Low Dose,2013-09-15T01:30:00,51.26,165.1,18.805481397945044,1.53324510615738,78,F,2,WHITE,5,NOT HISPANIC OR LATINO,2,USA,United States of America,235,97.24,33.99058823529412,51.44635205240189,6.84,26,16,54,0.17296692827935758
427,XANOMELINE,1,CDISCPILOT01,1,01-713-1043,1043,1043,1043,713,713,427,2,2,2,2,0,2,1.379847105223888,XAN,Pharmacokinetic concentration of Xanomeline,1,7,1.379847105223888,ug/ml,0,0.01,N,0,,54,0,0,PATCH,3,TRANSDERMAL,3,1,Xanomeline Low Dose,2013-09-15T02:00:00,51.26,165.1,18.805481397945044,1.53324510615738,78,F,2,WHITE,5,NOT HISPANIC OR LATINO,2,USA,United States of America,235,97.24,33.99058823529412,51.44635205240189,6.84,26,16,54,0.3219726997150574
428,XANOMELINE,1,CDISCPILOT01,1,01-713-1043,1043,1043,1043,713,713,428,4,4,4,4,0,2,1.7267113789707424,XAN,Pharmacokinetic concentration of Xanomeline,1,8,1.7267113789707424,ug/ml,0,0.01,N,0,,54,0,0,PATCH,3,TRANSDERMAL,3,1,Xanomeline Low Dose,2013-09-15T04:00:00,51.26,165.1,18.805481397945044,1.53324510615738,78,F,2,WHITE,5,NOT HISPANIC OR LATINO,2,USA,United States of America,235,97.24,33.99058823529412,51.44635205240189,6.84,26,16,54,0.5462186624248089
429,XANOMELINE,1,CDISCPILOT01,1,01-713-1043,1043,1043,1043,713,713,429,6,6,6,6,0,2,1.8139056948818602,XAN,Pharmacokinetic concentration of Xanomeline,1,9,1.8139056948818602,ug/ml,0,0.01,N,0,,54,0,0,PATCH,3,TRANSDERMAL,3,1,Xanomeline Low Dose,2013-09-15T06:00:00,51.26,165.1,18.805481397945044,1.53324510615738,78,F,2,WHITE,5,NOT HISPANIC OR LATINO,2,USA,United States of America,235,97.24,33.99058823529412,51.44635205240189,6.84,26,16,54,0.5954823629555892
430,XANOMELINE,1,CDISCPILOT01,1,01-713-1043,1043,1043,1043,713,713,430,6,6,3,3,0,3,27.143954136251093,XAN,Pharmacokinetic concentration of Xanomeline,1,10,27.143954136251093,ug/ml,0,0.01,N,0,,54,0,0,PATCH,3,TRANSDERMAL,3,1,Xanomeline Low Dose,2013-09-15T06:00:00,51.26,165.1,18.805481397945044,1.53324510615738,78,F,2,WHITE,5,NOT HISPANIC OR LATINO,2,USA,United States of America,235,97.24,33.99058823529412,51.44635205240189,6.84,26,16,54,3.3011543378345793
431,XANOMELINE,1,CDISCPILOT01,1,01-713-1043,1043,1043,1043,713,713,431,8,8,8,8,0,2,1.8358244951234683,XAN,Pharmacokinetic concentration of Xanomeline,1,11,1.8358244951234683,ug/ml,0,0.01,N,0,,54,0,0,PATCH,3,TRANSDERMAL,3,1,Xanomeline Low Dose,2013-09-15T08:00:00,51.26,165.1,18.805481397945044,1.53324510615738,78,F,2,WHITE,5,NOT HISPANIC OR LATINO,2,USA,United States of America,235,97.24,33.99058823529412,51.44635205240189,6.84,26,16,54,0.6074936967378411
432,XANOMELINE,1,CDISCPILOT01,1,01-713-1043,1043,1043,1043,713,713,432,12,12,12,12,0,2,0.5556415484060733,XAN,Pharmacokinetic concentration of Xanomeline,1,12,0.5556415484060733,ug/ml,0,0.01,N,0,,54,0,0,PATCH,3,TRANSDERMAL,3,1,Xanomeline Low Dose,2013-09-15T12:00:00,51.26,165.1,18.805481397945044,1.53324510615738,78,F,2,WHITE,5,NOT HISPANIC OR LATINO,2,USA,United States of America,235,97.24,33.99058823529412,51.44635205240189,6.84,26,16,54,-0.587631889749479
433,XANOMELINE,1,CDISCPILOT01,1,01-713-1043,1043,1043,1043,713,713,433,12,12,9,9,0,3,23.0015708846325,XAN,Pharmacokinetic concentration of Xanomeline,1,13,23.0015708846325,ug/ml,0,0.01,N,0,,54,0,0,PATCH,3,TRANSDERMAL,3,1,Xanomeline Low Dose,2013-09-15T12:00:00,51.26,165.1,18.805481397945044,1.53324510615738,78,F,2,WHITE,5,NOT HISPANIC OR LATINO,2,USA,United States of America,235,97.24,33.99058823529412,51.44635205240189,6.84,26,16,54,3.135562512928704
434,XANOMELINE,1,CDISCPILOT01,1,01-713-1043,1043,1043,1043,713,713,434,16,16,16,16,0,2,0.1675022309015242,XAN,Pharmacokinetic concentration of Xanomeline,1,14,0.1675022309015242,ug/ml,0,0.01,N,0,,54,0,0,PATCH,3,TRANSDERMAL,3,1,Xanomeline Low Dose,2013-09-15T16:00:00,51.26,165.1,18.805481397945044,1.53324510615738,78,F,2,WHITE,5,NOT HISPANIC OR LATINO,2,USA,United States of America,235,97.24,33.99058823529412,51.44635205240189,6.84,26,16,54,-1.7867586089906409
435,XANOMELINE,1,CDISCPILOT01,1,01-713-1043,1043,1043,1043,713,713,435,24,24,24,24,0,2,0.0152220225539057,XAN,Pharmacokinetic concentration of Xanomeline,1,15,0.0152220225539057,ug/ml,0,0.01,N,0,,54,0,0,PATCH,3,TRANSDERMAL,3,1,Xanomeline Low Dose,2013-09-16T00:00:00,51.26,165.1,18.805481397945044,1.53324510615738,78,F,2,WHITE,5,NOT HISPANIC OR LATINO,2,USA,United States of America,235,97.24,33.99058823529412,51.44635205240189,6.84,26,16,54,-4.185012047472965
