rownames,STUDYID,USUBJID,SUBJID,SITEID,COUNTRY,DOMAIN,RFSTDTC,RFENDTC,RFXSTDTC,RFXENDTC,RFPENDTC,SCRFDT,FRVDT,DTHDTC,DTHADY,DTHFL,LDDTHELD,LDDTHGR1,DTH30FL,DTHA30FL,DTHDOM,DTHB30FL,ASEQ,REGION1,DMDTC,DMDY,AGE,AGEU,AGEGR1,SEX,RACE,RACEGR1,ETHNIC,SAFFL,ARM,ARMCD,ACTARM,ACTARMCD,TRT01P,TRT01A,TRTSDT,TRTSDTM,TRTSTMF,TRTEDT,TRTEDTM,TRTETMF,EOSSTT,EOSDT,RFICDTC,RANDDT,LSTALVDT,TRTDURD,DTHDT,DTHCAUS,DTHCGR1,ADT,ADTF,AVISIT,PARAM,PARAMCD,PARCAT1,PARCAT2,PARCAT3,AVAL,AVALC,ANL01FL,ANL02FL,VISITNUM,VISIT,RSTESTCD,RSTEST,RSORRES,RSSTRESC,RSEVAL,RSEVALID,RSACPTFL,RSDTC,RSSEQ,DTHDTF
1,CDISCPILOT01,01-701-1015,1015,701,USA,RS,2014-01-02,2014-07-02,2014-01-02,2014-07-02,2014-07-02T11:45,,,,,,,,,,,,1,NA,2013-12-26,-7,63,YEARS,18-64,F,WHITE,White,HISPANIC OR LATINO,Y,Placebo,Pbo,Placebo,Pbo,Placebo,Placebo,2014-01-02,2014-01-02T00:00:00Z,H,2014-07-02,2014-07-02T23:59:59Z,H,COMPLETED,2014-07-02,,2014-01-02,2014-07-02,182,,,,2014-03-06,,WEEK 9,Best Overall Response of CR/PR by Investigator (confirmation not required),BCP,Tumor Response,Investigator,RECIST 1.1,1,Y,Y,Y,4,WEEK 9,OVRLRESP,Overall Response,CR,CR,INVESTIGATOR,,,2014-03-06,9,
2,CDISCPILOT01,01-701-1015,1015,701,USA,RS,2014-01-02,2014-07-02,2014-01-02,2014-07-02,2014-07-02T11:45,,,,,,,,,,,,2,NA,2013-12-26,-7,63,YEARS,18-64,F,WHITE,White,HISPANIC OR LATINO,Y,Placebo,Pbo,Placebo,Pbo,Placebo,Placebo,2014-01-02,2014-01-02T00:00:00Z,H,2014-07-02,2014-07-02T23:59:59Z,H,COMPLETED,2014-07-02,,2014-01-02,2014-07-02,182,,,,2014-03-06,,WEEK 9,Best Overall Response by Investigator (confirmation not required),BOR,Tumor Response,Investigator,RECIST 1.1,1,CR,Y,Y,4,WEEK 9,OVRLRESP,Overall Response,CR,CR,INVESTIGATOR,,,2014-03-06,9,
3,CDISCPILOT01,01-701-1015,1015,701,USA,RS,2014-01-02,2014-07-02,2014-01-02,2014-07-02,2014-07-02T11:45,,,,,,,,,,,,3,NA,2013-12-26,-7,63,YEARS,18-64,F,WHITE,White,HISPANIC OR LATINO,Y,Placebo,Pbo,Placebo,Pbo,Placebo,Placebo,2014-01-02,2014-01-02T00:00:00Z,H,2014-07-02,2014-07-02T23:59:59Z,H,COMPLETED,2014-07-02,,2014-01-02,2014-07-02,182,,,,2014-03-06,,WEEK 9,Clinical Benefit by Investigator (confirmation for response not required),CB,Tumor Response,Investigator,RECIST 1.1,1,Y,Y,Y,4,WEEK 9,OVRLRESP,Overall Response,CR,CR,INVESTIGATOR,,,2014-03-06,9,
4,CDISCPILOT01,01-701-1015,1015,701,USA,,2014-01-02,2014-07-02,2014-01-02,2014-07-02,2014-07-02T11:45,,,,,,,,,,,,4,NA,2013-12-26,-7,63,YEARS,18-64,F,WHITE,White,HISPANIC OR LATINO,Y,Placebo,Pbo,Placebo,Pbo,Placebo,Placebo,2014-01-02,2014-01-02T00:00:00Z,H,2014-07-02,2014-07-02T23:59:59Z,H,COMPLETED,2014-07-02,,2014-01-02,2014-07-02,182,,,,,,,Best Confirmed Overall Response of CR/PR by Investigator,CBCP,Tumor Response,Investigator,RECIST 1.1,0,N,Y,,,,,,,,,,,,,
5,CDISCPILOT01,01-701-1015,1015,701,USA,RS,2014-01-02,2014-07-02,2014-01-02,2014-07-02,2014-07-02T11:45,,,,,,,,,,,,5,NA,2013-12-26,-7,63,YEARS,18-64,F,WHITE,White,HISPANIC OR LATINO,Y,Placebo,Pbo,Placebo,Pbo,Placebo,Placebo,2014-01-02,2014-01-02T00:00:00Z,H,2014-07-02,2014-07-02T23:59:59Z,H,COMPLETED,2014-07-02,,2014-01-02,2014-07-02,182,,,,2014-03-06,,WEEK 9,Best Confirmed Overall Response by Investigator,CBOR,Tumor Response,Investigator,RECIST 1.1,3,SD,Y,Y,4,WEEK 9,OVRLRESP,Overall Response,CR,CR,INVESTIGATOR,,,2014-03-06,9,
6,CDISCPILOT01,01-701-1015,1015,701,USA,RS,2014-01-02,2014-07-02,2014-01-02,2014-07-02,2014-07-02T11:45,,,,,,,,,,,,6,NA,2013-12-26,-7,63,YEARS,18-64,F,WHITE,White,HISPANIC OR LATINO,Y,Placebo,Pbo,Placebo,Pbo,Placebo,Placebo,2014-01-02,2014-01-02T00:00:00Z,H,2014-07-02,2014-07-02T23:59:59Z,H,COMPLETED,2014-07-02,,2014-01-02,2014-07-02,182,,,,2014-03-06,,WEEK 9,Confirmed Clinical Benefit by Investigator,CCB,Tumor Response,Investigator,RECIST 1.1,1,Y,Y,Y,4,WEEK 9,OVRLRESP,Overall Response,CR,CR,INVESTIGATOR,,,2014-03-06,9,
7,CDISCPILOT01,01-701-1015,1015,701,USA,,2014-01-02,2014-07-02,2014-01-02,2014-07-02,2014-07-02T11:45,,,,,,,,,,,,7,NA,2013-12-26,-7,63,YEARS,18-64,F,WHITE,White,HISPANIC OR LATINO,Y,Placebo,Pbo,Placebo,Pbo,Placebo,Placebo,2014-01-02,2014-01-02T00:00:00Z,H,2014-07-02,2014-07-02T23:59:59Z,H,COMPLETED,2014-07-02,,2014-01-02,2014-07-02,182,,,,,,,Confirmed Response by Investigator,CRSP,Tumor Response,Investigator,RECIST 1.1,0,N,Y,,,,,,,,,,,,,
8,CDISCPILOT01,01-701-1015,1015,701,USA,,2014-01-02,2014-07-02,2014-01-02,2014-07-02,2014-07-02T11:45,,,,,,,,,,,,8,NA,2013-12-26,-7,63,YEARS,18-64,F,WHITE,White,HISPANIC OR LATINO,Y,Placebo,Pbo,Placebo,Pbo,Placebo,Placebo,2014-01-02,2014-01-02T00:00:00Z,H,2014-07-02,2014-07-02T23:59:59Z,H,COMPLETED,2014-07-02,,2014-01-02,2014-07-02,182,,,,,,,Death,DEATH,Reference Event,,,0,N,Y,,,,,,,,,,,,,
9,CDISCPILOT01,01-701-1015,1015,701,USA,RS,2014-01-02,2014-07-02,2014-01-02,2014-07-02,2014-07-02T11:45,,,,,,,,,,,,9,NA,2013-12-26,-7,63,YEARS,18-64,F,WHITE,White,HISPANIC OR LATINO,Y,Placebo,Pbo,Placebo,Pbo,Placebo,Placebo,2014-01-02,2014-01-02T00:00:00Z,H,2014-07-02,2014-07-02T23:59:59Z,H,COMPLETED,2014-07-02,,2014-01-02,2014-07-02,182,,,,2014-03-06,,WEEK 9,Last Disease Assessment by Investigator,LSTA,Tumor Response,Investigator,RECIST 1.1,1,CR,Y,Y,4,WEEK 9,OVRLRESP,Overall Response,CR,CR,INVESTIGATOR,,,2014-03-06,9,
10,CDISCPILOT01,01-701-1015,1015,701,USA,,2014-01-02,2014-07-02,2014-01-02,2014-07-02,2014-07-02T11:45,,,,,,,,,,,,10,NA,2013-12-26,-7,63,YEARS,18-64,F,WHITE,White,HISPANIC OR LATINO,Y,Placebo,Pbo,Placebo,Pbo,Placebo,Placebo,2014-01-02,2014-01-02T00:00:00Z,H,2014-07-02,2014-07-02T23:59:59Z,H,COMPLETED,2014-07-02,,,2014-07-02,182,,,,,,,Measurable Disease at Baseline by Investigator,MDIS,,Investigator,RECIST 1.1,1,Y,Y,,,,,,,,,,,,,
11,CDISCPILOT01,01-701-1015,1015,701,USA,RS,2014-01-02,2014-07-02,2014-01-02,2014-07-02,2014-07-02T11:45,,,,,,,,,,,,11,NA,2013-12-26,-7,63,YEARS,18-64,F,WHITE,White,HISPANIC OR LATINO,Y,Placebo,Pbo,Placebo,Pbo,Placebo,Placebo,2014-01-02,2014-01-02T00:00:00Z,H,2014-07-02,2014-07-02T23:59:59Z,H,COMPLETED,2014-07-02,,2014-01-02,2014-07-02,182,,,,2014-01-23,,WEEK 3,Overall Response by Investigator,OVR,Tumor Response,Investigator,RECIST 1.1,3,SD,Y,Y,2,WEEK 3,OVRLRESP,Overall Response,SD,SD,INVESTIGATOR,,,2014-01-23,3,
12,CDISCPILOT01,01-701-1015,1015,701,USA,RS,2014-01-02,2014-07-02,2014-01-02,2014-07-02,2014-07-02T11:45,,,,,,,,,,,,12,NA,2013-12-26,-7,63,YEARS,18-64,F,WHITE,White,HISPANIC OR LATINO,Y,Placebo,Pbo,Placebo,Pbo,Placebo,Placebo,2014-01-02,2014-01-02T00:00:00Z,H,2014-07-02,2014-07-02T23:59:59Z,H,COMPLETED,2014-07-02,,2014-01-02,2014-07-02,182,,,,2014-02-28,D,WEEK 6,Overall Response by Investigator,OVR,Tumor Response,Investigator,RECIST 1.1,6,NE,Y,Y,3,WEEK 6,OVRLRESP,Overall Response,NE,NE,INVESTIGATOR,,,2014-02,6,
13,CDISCPILOT01,01-701-1015,1015,701,USA,RS,2014-01-02,2014-07-02,2014-01-02,2014-07-02,2014-07-02T11:45,,,,,,,,,,,,13,NA,2013-12-26,-7,63,YEARS,18-64,F,WHITE,White,HISPANIC OR LATINO,Y,Placebo,Pbo,Placebo,Pbo,Placebo,Placebo,2014-01-02,2014-01-02T00:00:00Z,H,2014-07-02,2014-07-02T23:59:59Z,H,COMPLETED,2014-07-02,,2014-01-02,2014-07-02,182,,,,2014-03-06,,WEEK 9,Overall Response by Investigator,OVR,Tumor Response,Investigator,RECIST 1.1,1,CR,Y,Y,4,WEEK 9,OVRLRESP,Overall Response,CR,CR,INVESTIGATOR,,,2014-03-06,9,
14,CDISCPILOT01,01-701-1015,1015,701,USA,,2014-01-02,2014-07-02,2014-01-02,2014-07-02,2014-07-02T11:45,,,,,,,,,,,,14,NA,2013-12-26,-7,63,YEARS,18-64,F,WHITE,White,HISPANIC OR LATINO,Y,Placebo,Pbo,Placebo,Pbo,Placebo,Placebo,2014-01-02,2014-01-02T00:00:00Z,H,2014-07-02,2014-07-02T23:59:59Z,H,COMPLETED,2014-07-02,,2014-01-02,2014-07-02,182,,,,,,,Disease Progression by Investigator,PD,Tumor Response,Investigator,RECIST 1.1,0,N,Y,,,,,,,,,,,,,
15,CDISCPILOT01,01-701-1015,1015,701,USA,RS,2014-01-02,2014-07-02,2014-01-02,2014-07-02,2014-07-02T11:45,,,,,,,,,,,,15,NA,2013-12-26,-7,63,YEARS,18-64,F,WHITE,White,HISPANIC OR LATINO,Y,Placebo,Pbo,Placebo,Pbo,Placebo,Placebo,2014-01-02,2014-01-02T00:00:00Z,H,2014-07-02,2014-07-02T23:59:59Z,H,COMPLETED,2014-07-02,,2014-01-02,2014-07-02,182,,,,2014-03-06,,WEEK 9,Response by Investigator (confirmation not required),RSP,Tumor Response,Investigator,RECIST 1.1,1,Y,Y,Y,4,WEEK 9,OVRLRESP,Overall Response,CR,CR,INVESTIGATOR,,,2014-03-06,9,
16,CDISCPILOT01,01-701-1023,1023,701,USA,,2012-08-05,2012-09-02,2012-08-05,2012-09-01,2013-02-18,,2013-02-18,,,,,,,,,,1,NA,2012-07-22,-14,64,YEARS,18-64,M,WHITE,White,HISPANIC OR LATINO,Y,Placebo,Pbo,Placebo,Pbo,Placebo,Placebo,2012-08-05,2012-08-05T00:00:00Z,H,2012-09-01,2012-09-01T23:59:59Z,H,DISCONTINUED,2012-09-02,,2012-08-05,2012-09-02,28,,,,,,,Best Overall Response of CR/PR by Investigator (confirmation not required),BCP,Tumor Response,Investigator,RECIST 1.1,0,N,Y,,,,,,,,,,,,,
17,CDISCPILOT01,01-701-1023,1023,701,USA,,2012-08-05,2012-09-02,2012-08-05,2012-09-01,2013-02-18,,2013-02-18,,,,,,,,,,2,NA,2012-07-22,-14,64,YEARS,18-64,M,WHITE,White,HISPANIC OR LATINO,Y,Placebo,Pbo,Placebo,Pbo,Placebo,Placebo,2012-08-05,2012-08-05T00:00:00Z,H,2012-09-01,2012-09-01T23:59:59Z,H,DISCONTINUED,2012-09-02,,2012-08-05,2012-09-02,28,,,,,,,Best Overall Response by Investigator (confirmation not required),BOR,Tumor Response,Investigator,RECIST 1.1,7,MISSING,Y,,,,,,,,,,,,,
18,CDISCPILOT01,01-701-1023,1023,701,USA,,2012-08-05,2012-09-02,2012-08-05,2012-09-01,2013-02-18,,2013-02-18,,,,,,,,,,3,NA,2012-07-22,-14,64,YEARS,18-64,M,WHITE,White,HISPANIC OR LATINO,Y,Placebo,Pbo,Placebo,Pbo,Placebo,Placebo,2012-08-05,2012-08-05T00:00:00Z,H,2012-09-01,2012-09-01T23:59:59Z,H,DISCONTINUED,2012-09-02,,2012-08-05,2012-09-02,28,,,,,,,Clinical Benefit by Investigator (confirmation for response not required),CB,Tumor Response,Investigator,RECIST 1.1,0,N,Y,,,,,,,,,,,,,
19,CDISCPILOT01,01-701-1023,1023,701,USA,,2012-08-05,2012-09-02,2012-08-05,2012-09-01,2013-02-18,,2013-02-18,,,,,,,,,,4,NA,2012-07-22,-14,64,YEARS,18-64,M,WHITE,White,HISPANIC OR LATINO,Y,Placebo,Pbo,Placebo,Pbo,Placebo,Placebo,2012-08-05,2012-08-05T00:00:00Z,H,2012-09-01,2012-09-01T23:59:59Z,H,DISCONTINUED,2012-09-02,,2012-08-05,2012-09-02,28,,,,,,,Best Confirmed Overall Response of CR/PR by Investigator,CBCP,Tumor Response,Investigator,RECIST 1.1,0,N,Y,,,,,,,,,,,,,
20,CDISCPILOT01,01-701-1023,1023,701,USA,,2012-08-05,2012-09-02,2012-08-05,2012-09-01,2013-02-18,,2013-02-18,,,,,,,,,,5,NA,2012-07-22,-14,64,YEARS,18-64,M,WHITE,White,HISPANIC OR LATINO,Y,Placebo,Pbo,Placebo,Pbo,Placebo,Placebo,2012-08-05,2012-08-05T00:00:00Z,H,2012-09-01,2012-09-01T23:59:59Z,H,DISCONTINUED,2012-09-02,,2012-08-05,2012-09-02,28,,,,,,,Best Confirmed Overall Response by Investigator,CBOR,Tumor Response,Investigator,RECIST 1.1,7,MISSING,Y,,,,,,,,,,,,,
21,CDISCPILOT01,01-701-1023,1023,701,USA,,2012-08-05,2012-09-02,2012-08-05,2012-09-01,2013-02-18,,2013-02-18,,,,,,,,,,6,NA,2012-07-22,-14,64,YEARS,18-64,M,WHITE,White,HISPANIC OR LATINO,Y,Placebo,Pbo,Placebo,Pbo,Placebo,Placebo,2012-08-05,2012-08-05T00:00:00Z,H,2012-09-01,2012-09-01T23:59:59Z,H,DISCONTINUED,2012-09-02,,2012-08-05,2012-09-02,28,,,,,,,Confirmed Clinical Benefit by Investigator,CCB,Tumor Response,Investigator,RECIST 1.1,0,N,Y,,,,,,,,,,,,,
22,CDISCPILOT01,01-701-1023,1023,701,USA,,2012-08-05,2012-09-02,2012-08-05,2012-09-01,2013-02-18,,2013-02-18,,,,,,,,,,7,NA,2012-07-22,-14,64,YEARS,18-64,M,WHITE,White,HISPANIC OR LATINO,Y,Placebo,Pbo,Placebo,Pbo,Placebo,Placebo,2012-08-05,2012-08-05T00:00:00Z,H,2012-09-01,2012-09-01T23:59:59Z,H,DISCONTINUED,2012-09-02,,2012-08-05,2012-09-02,28,,,,,,,Confirmed Response by Investigator,CRSP,Tumor Response,Investigator,RECIST 1.1,0,N,Y,,,,,,,,,,,,,
23,CDISCPILOT01,01-701-1023,1023,701,USA,,2012-08-05,2012-09-02,2012-08-05,2012-09-01,2013-02-18,,2013-02-18,,,,,,,,,,8,NA,2012-07-22,-14,64,YEARS,18-64,M,WHITE,White,HISPANIC OR LATINO,Y,Placebo,Pbo,Placebo,Pbo,Placebo,Placebo,2012-08-05,2012-08-05T00:00:00Z,H,2012-09-01,2012-09-01T23:59:59Z,H,DISCONTINUED,2012-09-02,,2012-08-05,2012-09-02,28,,,,,,,Death,DEATH,Reference Event,,,0,N,Y,,,,,,,,,,,,,
24,CDISCPILOT01,01-701-1023,1023,701,USA,,2012-08-05,2012-09-02,2012-08-05,2012-09-01,2013-02-18,,2013-02-18,,,,,,,,,,9,NA,2012-07-22,-14,64,YEARS,18-64,M,WHITE,White,HISPANIC OR LATINO,Y,Placebo,Pbo,Placebo,Pbo,Placebo,Placebo,2012-08-05,2012-08-05T00:00:00Z,H,2012-09-01,2012-09-01T23:59:59Z,H,DISCONTINUED,2012-09-02,,2012-08-05,2012-09-02,28,,,,,,,Last Disease Assessment by Investigator,LSTA,Tumor Response,Investigator,RECIST 1.1,,,Y,,,,,,,,,,,,,
25,CDISCPILOT01,01-701-1023,1023,701,USA,,2012-08-05,2012-09-02,2012-08-05,2012-09-01,2013-02-18,,2013-02-18,,,,,,,,,,10,NA,2012-07-22,-14,64,YEARS,18-64,M,WHITE,White,HISPANIC OR LATINO,Y,Placebo,Pbo,Placebo,Pbo,Placebo,Placebo,2012-08-05,2012-08-05T00:00:00Z,H,2012-09-01,2012-09-01T23:59:59Z,H,DISCONTINUED,2012-09-02,,,2012-09-02,28,,,,,,,Measurable Disease at Baseline by Investigator,MDIS,,Investigator,RECIST 1.1,0,N,Y,,,,,,,,,,,,,
26,CDISCPILOT01,01-701-1023,1023,701,USA,,2012-08-05,2012-09-02,2012-08-05,2012-09-01,2013-02-18,,2013-02-18,,,,,,,,,,11,NA,2012-07-22,-14,64,YEARS,18-64,M,WHITE,White,HISPANIC OR LATINO,Y,Placebo,Pbo,Placebo,Pbo,Placebo,Placebo,2012-08-05,2012-08-05T00:00:00Z,H,2012-09-01,2012-09-01T23:59:59Z,H,DISCONTINUED,2012-09-02,,2012-08-05,2012-09-02,28,,,,,,,Disease Progression by Investigator,PD,Tumor Response,Investigator,RECIST 1.1,0,N,Y,,,,,,,,,,,,,
27,CDISCPILOT01,01-701-1023,1023,701,USA,,2012-08-05,2012-09-02,2012-08-05,2012-09-01,2013-02-18,,2013-02-18,,,,,,,,,,12,NA,2012-07-22,-14,64,YEARS,18-64,M,WHITE,White,HISPANIC OR LATINO,Y,Placebo,Pbo,Placebo,Pbo,Placebo,Placebo,2012-08-05,2012-08-05T00:00:00Z,H,2012-09-01,2012-09-01T23:59:59Z,H,DISCONTINUED,2012-09-02,,2012-08-05,2012-09-02,28,,,,,,,Response by Investigator (confirmation not required),RSP,Tumor Response,Investigator,RECIST 1.1,0,N,Y,,,,,,,,,,,,,
28,CDISCPILOT01,01-701-1028,1028,701,USA,,2013-07-19,2014-01-14,2013-07-19,2014-01-14,2014-01-14T11:10,,,,,,,,,,,,1,NA,2013-07-11,-8,71,YEARS,>64,M,WHITE,White,NOT HISPANIC OR LATINO,Y,Xanomeline High Dose,Xan_Hi,Xanomeline High Dose,Xan_Hi,Xanomeline High Dose,Xanomeline High Dose,2013-07-19,2013-07-19T00:00:00Z,H,2014-01-14,2014-01-14T23:59:59Z,H,COMPLETED,2014-01-14,,2013-07-19,2014-01-14,180,,,,,,,Best Overall Response of CR/PR by Investigator (confirmation not required),BCP,Tumor Response,Investigator,RECIST 1.1,0,N,Y,,,,,,,,,,,,,
29,CDISCPILOT01,01-701-1028,1028,701,USA,RS,2013-07-19,2014-01-14,2013-07-19,2014-01-14,2014-01-14T11:10,,,,,,,,,,,,2,NA,2013-07-11,-8,71,YEARS,>64,M,WHITE,White,NOT HISPANIC OR LATINO,Y,Xanomeline High Dose,Xan_Hi,Xanomeline High Dose,Xan_Hi,Xanomeline High Dose,Xanomeline High Dose,2013-07-19,2013-07-19T00:00:00Z,H,2014-01-14,2014-01-14T23:59:59Z,H,COMPLETED,2014-01-14,,2013-07-19,2014-01-14,180,,,,2013-08-30,,WEEK 6,Best Overall Response by Investigator (confirmation not required),BOR,Tumor Response,Investigator,RECIST 1.1,5,PD,Y,Y,3,WEEK 6,OVRLRESP,Overall Response,PD,PD,INVESTIGATOR,,,2013-08-30,6,
30,CDISCPILOT01,01-701-1028,1028,701,USA,,2013-07-19,2014-01-14,2013-07-19,2014-01-14,2014-01-14T11:10,,,,,,,,,,,,3,NA,2013-07-11,-8,71,YEARS,>64,M,WHITE,White,NOT HISPANIC OR LATINO,Y,Xanomeline High Dose,Xan_Hi,Xanomeline High Dose,Xan_Hi,Xanomeline High Dose,Xanomeline High Dose,2013-07-19,2013-07-19T00:00:00Z,H,2014-01-14,2014-01-14T23:59:59Z,H,COMPLETED,2014-01-14,,2013-07-19,2014-01-14,180,,,,,,,Clinical Benefit by Investigator (confirmation for response not required),CB,Tumor Response,Investigator,RECIST 1.1,0,N,Y,,,,,,,,,,,,,
31,CDISCPILOT01,01-701-1028,1028,701,USA,,2013-07-19,2014-01-14,2013-07-19,2014-01-14,2014-01-14T11:10,,,,,,,,,,,,4,NA,2013-07-11,-8,71,YEARS,>64,M,WHITE,White,NOT HISPANIC OR LATINO,Y,Xanomeline High Dose,Xan_Hi,Xanomeline High Dose,Xan_Hi,Xanomeline High Dose,Xanomeline High Dose,2013-07-19,2013-07-19T00:00:00Z,H,2014-01-14,2014-01-14T23:59:59Z,H,COMPLETED,2014-01-14,,2013-07-19,2014-01-14,180,,,,,,,Best Confirmed Overall Response of CR/PR by Investigator,CBCP,Tumor Response,Investigator,RECIST 1.1,0,N,Y,,,,,,,,,,,,,
32,CDISCPILOT01,01-701-1028,1028,701,USA,RS,2013-07-19,2014-01-14,2013-07-19,2014-01-14,2014-01-14T11:10,,,,,,,,,,,,5,NA,2013-07-11,-8,71,YEARS,>64,M,WHITE,White,NOT HISPANIC OR LATINO,Y,Xanomeline High Dose,Xan_Hi,Xanomeline High Dose,Xan_Hi,Xanomeline High Dose,Xanomeline High Dose,2013-07-19,2013-07-19T00:00:00Z,H,2014-01-14,2014-01-14T23:59:59Z,H,COMPLETED,2014-01-14,,2013-07-19,2014-01-14,180,,,,2013-08-30,,WEEK 6,Best Confirmed Overall Response by Investigator,CBOR,Tumor Response,Investigator,RECIST 1.1,5,PD,Y,Y,3,WEEK 6,OVRLRESP,Overall Response,PD,PD,INVESTIGATOR,,,2013-08-30,6,
33,CDISCPILOT01,01-701-1028,1028,701,USA,,2013-07-19,2014-01-14,2013-07-19,2014-01-14,2014-01-14T11:10,,,,,,,,,,,,6,NA,2013-07-11,-8,71,YEARS,>64,M,WHITE,White,NOT HISPANIC OR LATINO,Y,Xanomeline High Dose,Xan_Hi,Xanomeline High Dose,Xan_Hi,Xanomeline High Dose,Xanomeline High Dose,2013-07-19,2013-07-19T00:00:00Z,H,2014-01-14,2014-01-14T23:59:59Z,H,COMPLETED,2014-01-14,,2013-07-19,2014-01-14,180,,,,,,,Confirmed Clinical Benefit by Investigator,CCB,Tumor Response,Investigator,RECIST 1.1,0,N,Y,,,,,,,,,,,,,
34,CDISCPILOT01,01-701-1028,1028,701,USA,,2013-07-19,2014-01-14,2013-07-19,2014-01-14,2014-01-14T11:10,,,,,,,,,,,,7,NA,2013-07-11,-8,71,YEARS,>64,M,WHITE,White,NOT HISPANIC OR LATINO,Y,Xanomeline High Dose,Xan_Hi,Xanomeline High Dose,Xan_Hi,Xanomeline High Dose,Xanomeline High Dose,2013-07-19,2013-07-19T00:00:00Z,H,2014-01-14,2014-01-14T23:59:59Z,H,COMPLETED,2014-01-14,,2013-07-19,2014-01-14,180,,,,,,,Confirmed Response by Investigator,CRSP,Tumor Response,Investigator,RECIST 1.1,0,N,Y,,,,,,,,,,,,,
35,CDISCPILOT01,01-701-1028,1028,701,USA,,2013-07-19,2014-01-14,2013-07-19,2014-01-14,2014-01-14T11:10,,,,,,,,,,,,8,NA,2013-07-11,-8,71,YEARS,>64,M,WHITE,White,NOT HISPANIC OR LATINO,Y,Xanomeline High Dose,Xan_Hi,Xanomeline High Dose,Xan_Hi,Xanomeline High Dose,Xanomeline High Dose,2013-07-19,2013-07-19T00:00:00Z,H,2014-01-14,2014-01-14T23:59:59Z,H,COMPLETED,2014-01-14,,2013-07-19,2014-01-14,180,,,,,,,Death,DEATH,Reference Event,,,0,N,Y,,,,,,,,,,,,,
36,CDISCPILOT01,01-701-1028,1028,701,USA,RS,2013-07-19,2014-01-14,2013-07-19,2014-01-14,2014-01-14T11:10,,,,,,,,,,,,9,NA,2013-07-11,-8,71,YEARS,>64,M,WHITE,White,NOT HISPANIC OR LATINO,Y,Xanomeline High Dose,Xan_Hi,Xanomeline High Dose,Xan_Hi,Xanomeline High Dose,Xanomeline High Dose,2013-07-19,2013-07-19T00:00:00Z,H,2014-01-14,2014-01-14T23:59:59Z,H,COMPLETED,2014-01-14,,2013-07-19,2014-01-14,180,,,,2013-09-20,,WEEK 9,Last Disease Assessment by Investigator,LSTA,Tumor Response,Investigator,RECIST 1.1,3,SD,Y,,4,WEEK 9,OVRLRESP,Overall Response,SD,SD,INVESTIGATOR,,,2013-09-20,9,
37,CDISCPILOT01,01-701-1028,1028,701,USA,,2013-07-19,2014-01-14,2013-07-19,2014-01-14,2014-01-14T11:10,,,,,,,,,,,,10,NA,2013-07-11,-8,71,YEARS,>64,M,WHITE,White,NOT HISPANIC OR LATINO,Y,Xanomeline High Dose,Xan_Hi,Xanomeline High Dose,Xan_Hi,Xanomeline High Dose,Xanomeline High Dose,2013-07-19,2013-07-19T00:00:00Z,H,2014-01-14,2014-01-14T23:59:59Z,H,COMPLETED,2014-01-14,,,2014-01-14,180,,,,,,,Measurable Disease at Baseline by Investigator,MDIS,,Investigator,RECIST 1.1,1,Y,Y,,,,,,,,,,,,,
38,CDISCPILOT01,01-701-1028,1028,701,USA,RS,2013-07-19,2014-01-14,2013-07-19,2014-01-14,2014-01-14T11:10,,,,,,,,,,,,11,NA,2013-07-11,-8,71,YEARS,>64,M,WHITE,White,NOT HISPANIC OR LATINO,Y,Xanomeline High Dose,Xan_Hi,Xanomeline High Dose,Xan_Hi,Xanomeline High Dose,Xanomeline High Dose,2013-07-19,2013-07-19T00:00:00Z,H,2014-01-14,2014-01-14T23:59:59Z,H,COMPLETED,2014-01-14,,2013-07-19,2014-01-14,180,,,,2013-08-09,,WEEK 3,Overall Response by Investigator,OVR,Tumor Response,Investigator,RECIST 1.1,3,SD,Y,Y,2,WEEK 3,OVRLRESP,Overall Response,SD,SD,INVESTIGATOR,,,2013-08-09,3,
39,CDISCPILOT01,01-701-1028,1028,701,USA,RS,2013-07-19,2014-01-14,2013-07-19,2014-01-14,2014-01-14T11:10,,,,,,,,,,,,12,NA,2013-07-11,-8,71,YEARS,>64,M,WHITE,White,NOT HISPANIC OR LATINO,Y,Xanomeline High Dose,Xan_Hi,Xanomeline High Dose,Xan_Hi,Xanomeline High Dose,Xanomeline High Dose,2013-07-19,2013-07-19T00:00:00Z,H,2014-01-14,2014-01-14T23:59:59Z,H,COMPLETED,2014-01-14,,2013-07-19,2014-01-14,180,,,,2013-08-30,,WEEK 6,Overall Response by Investigator,OVR,Tumor Response,Investigator,RECIST 1.1,5,PD,Y,Y,3,WEEK 6,OVRLRESP,Overall Response,PD,PD,INVESTIGATOR,,,2013-08-30,6,
40,CDISCPILOT01,01-701-1028,1028,701,USA,RS,2013-07-19,2014-01-14,2013-07-19,2014-01-14,2014-01-14T11:10,,,,,,,,,,,,13,NA,2013-07-11,-8,71,YEARS,>64,M,WHITE,White,NOT HISPANIC OR LATINO,Y,Xanomeline High Dose,Xan_Hi,Xanomeline High Dose,Xan_Hi,Xanomeline High Dose,Xanomeline High Dose,2013-07-19,2013-07-19T00:00:00Z,H,2014-01-14,2014-01-14T23:59:59Z,H,COMPLETED,2014-01-14,,2013-07-19,2014-01-14,180,,,,2013-09-20,,WEEK 9,Overall Response by Investigator,OVR,Tumor Response,Investigator,RECIST 1.1,3,SD,Y,,4,WEEK 9,OVRLRESP,Overall Response,SD,SD,INVESTIGATOR,,,2013-09-20,9,
41,CDISCPILOT01,01-701-1028,1028,701,USA,RS,2013-07-19,2014-01-14,2013-07-19,2014-01-14,2014-01-14T11:10,,,,,,,,,,,,14,NA,2013-07-11,-8,71,YEARS,>64,M,WHITE,White,NOT HISPANIC OR LATINO,Y,Xanomeline High Dose,Xan_Hi,Xanomeline High Dose,Xan_Hi,Xanomeline High Dose,Xanomeline High Dose,2013-07-19,2013-07-19T00:00:00Z,H,2014-01-14,2014-01-14T23:59:59Z,H,COMPLETED,2014-01-14,,2013-07-19,2014-01-14,180,,,,2013-08-30,,WEEK 6,Disease Progression by Investigator,PD,Tumor Response,Investigator,RECIST 1.1,1,Y,Y,Y,3,WEEK 6,OVRLRESP,Overall Response,PD,PD,INVESTIGATOR,,,2013-08-30,6,
42,CDISCPILOT01,01-701-1028,1028,701,USA,,2013-07-19,2014-01-14,2013-07-19,2014-01-14,2014-01-14T11:10,,,,,,,,,,,,15,NA,2013-07-11,-8,71,YEARS,>64,M,WHITE,White,NOT HISPANIC OR LATINO,Y,Xanomeline High Dose,Xan_Hi,Xanomeline High Dose,Xan_Hi,Xanomeline High Dose,Xanomeline High Dose,2013-07-19,2013-07-19T00:00:00Z,H,2014-01-14,2014-01-14T23:59:59Z,H,COMPLETED,2014-01-14,,2013-07-19,2014-01-14,180,,,,,,,Response by Investigator (confirmation not required),RSP,Tumor Response,Investigator,RECIST 1.1,0,N,Y,,,,,,,,,,,,,
43,CDISCPILOT01,01-701-1033,1033,701,USA,,2014-03-18,2014-04-14,2014-03-18,2014-03-31,2014-09-15,,2014-09-15,,,,,,,,,,1,NA,2014-03-10,-8,74,YEARS,>64,M,WHITE,White,NOT HISPANIC OR LATINO,Y,Xanomeline Low Dose,Xan_Lo,Xanomeline Low Dose,Xan_Lo,Xanomeline Low Dose,Xanomeline Low Dose,2014-03-18,2014-03-18T00:00:00Z,H,2014-03-31,2014-03-31T23:59:59Z,H,DISCONTINUED,2014-04-14,,2014-03-18,2014-04-14,14,,,,,,,Best Overall Response of CR/PR by Investigator (confirmation not required),BCP,Tumor Response,Investigator,RECIST 1.1,0,N,Y,,,,,,,,,,,,,
44,CDISCPILOT01,01-701-1033,1033,701,USA,,2014-03-18,2014-04-14,2014-03-18,2014-03-31,2014-09-15,,2014-09-15,,,,,,,,,,2,NA,2014-03-10,-8,74,YEARS,>64,M,WHITE,White,NOT HISPANIC OR LATINO,Y,Xanomeline Low Dose,Xan_Lo,Xanomeline Low Dose,Xan_Lo,Xanomeline Low Dose,Xanomeline Low Dose,2014-03-18,2014-03-18T00:00:00Z,H,2014-03-31,2014-03-31T23:59:59Z,H,DISCONTINUED,2014-04-14,,2014-03-18,2014-04-14,14,,,,,,,Best Overall Response by Investigator (confirmation not required),BOR,Tumor Response,Investigator,RECIST 1.1,7,MISSING,Y,,,,,,,,,,,,,
45,CDISCPILOT01,01-701-1033,1033,701,USA,,2014-03-18,2014-04-14,2014-03-18,2014-03-31,2014-09-15,,2014-09-15,,,,,,,,,,3,NA,2014-03-10,-8,74,YEARS,>64,M,WHITE,White,NOT HISPANIC OR LATINO,Y,Xanomeline Low Dose,Xan_Lo,Xanomeline Low Dose,Xan_Lo,Xanomeline Low Dose,Xanomeline Low Dose,2014-03-18,2014-03-18T00:00:00Z,H,2014-03-31,2014-03-31T23:59:59Z,H,DISCONTINUED,2014-04-14,,2014-03-18,2014-04-14,14,,,,,,,Clinical Benefit by Investigator (confirmation for response not required),CB,Tumor Response,Investigator,RECIST 1.1,0,N,Y,,,,,,,,,,,,,
46,CDISCPILOT01,01-701-1033,1033,701,USA,,2014-03-18,2014-04-14,2014-03-18,2014-03-31,2014-09-15,,2014-09-15,,,,,,,,,,4,NA,2014-03-10,-8,74,YEARS,>64,M,WHITE,White,NOT HISPANIC OR LATINO,Y,Xanomeline Low Dose,Xan_Lo,Xanomeline Low Dose,Xan_Lo,Xanomeline Low Dose,Xanomeline Low Dose,2014-03-18,2014-03-18T00:00:00Z,H,2014-03-31,2014-03-31T23:59:59Z,H,DISCONTINUED,2014-04-14,,2014-03-18,2014-04-14,14,,,,,,,Best Confirmed Overall Response of CR/PR by Investigator,CBCP,Tumor Response,Investigator,RECIST 1.1,0,N,Y,,,,,,,,,,,,,
47,CDISCPILOT01,01-701-1033,1033,701,USA,,2014-03-18,2014-04-14,2014-03-18,2014-03-31,2014-09-15,,2014-09-15,,,,,,,,,,5,NA,2014-03-10,-8,74,YEARS,>64,M,WHITE,White,NOT HISPANIC OR LATINO,Y,Xanomeline Low Dose,Xan_Lo,Xanomeline Low Dose,Xan_Lo,Xanomeline Low Dose,Xanomeline Low Dose,2014-03-18,2014-03-18T00:00:00Z,H,2014-03-31,2014-03-31T23:59:59Z,H,DISCONTINUED,2014-04-14,,2014-03-18,2014-04-14,14,,,,,,,Best Confirmed Overall Response by Investigator,CBOR,Tumor Response,Investigator,RECIST 1.1,7,MISSING,Y,,,,,,,,,,,,,
48,CDISCPILOT01,01-701-1033,1033,701,USA,,2014-03-18,2014-04-14,2014-03-18,2014-03-31,2014-09-15,,2014-09-15,,,,,,,,,,6,NA,2014-03-10,-8,74,YEARS,>64,M,WHITE,White,NOT HISPANIC OR LATINO,Y,Xanomeline Low Dose,Xan_Lo,Xanomeline Low Dose,Xan_Lo,Xanomeline Low Dose,Xanomeline Low Dose,2014-03-18,2014-03-18T00:00:00Z,H,2014-03-31,2014-03-31T23:59:59Z,H,DISCONTINUED,2014-04-14,,2014-03-18,2014-04-14,14,,,,,,,Confirmed Clinical Benefit by Investigator,CCB,Tumor Response,Investigator,RECIST 1.1,0,N,Y,,,,,,,,,,,,,
49,CDISCPILOT01,01-701-1033,1033,701,USA,,2014-03-18,2014-04-14,2014-03-18,2014-03-31,2014-09-15,,2014-09-15,,,,,,,,,,7,NA,2014-03-10,-8,74,YEARS,>64,M,WHITE,White,NOT HISPANIC OR LATINO,Y,Xanomeline Low Dose,Xan_Lo,Xanomeline Low Dose,Xan_Lo,Xanomeline Low Dose,Xanomeline Low Dose,2014-03-18,2014-03-18T00:00:00Z,H,2014-03-31,2014-03-31T23:59:59Z,H,DISCONTINUED,2014-04-14,,2014-03-18,2014-04-14,14,,,,,,,Confirmed Response by Investigator,CRSP,Tumor Response,Investigator,RECIST 1.1,0,N,Y,,,,,,,,,,,,,
50,CDISCPILOT01,01-701-1033,1033,701,USA,,2014-03-18,2014-04-14,2014-03-18,2014-03-31,2014-09-15,,2014-09-15,,,,,,,,,,8,NA,2014-03-10,-8,74,YEARS,>64,M,WHITE,White,NOT HISPANIC OR LATINO,Y,Xanomeline Low Dose,Xan_Lo,Xanomeline Low Dose,Xan_Lo,Xanomeline Low Dose,Xanomeline Low Dose,2014-03-18,2014-03-18T00:00:00Z,H,2014-03-31,2014-03-31T23:59:59Z,H,DISCONTINUED,2014-04-14,,2014-03-18,2014-04-14,14,,,,,,,Death,DEATH,Reference Event,,,0,N,Y,,,,,,,,,,,,,
51,CDISCPILOT01,01-701-1033,1033,701,USA,,2014-03-18,2014-04-14,2014-03-18,2014-03-31,2014-09-15,,2014-09-15,,,,,,,,,,9,NA,2014-03-10,-8,74,YEARS,>64,M,WHITE,White,NOT HISPANIC OR LATINO,Y,Xanomeline Low Dose,Xan_Lo,Xanomeline Low Dose,Xan_Lo,Xanomeline Low Dose,Xanomeline Low Dose,2014-03-18,2014-03-18T00:00:00Z,H,2014-03-31,2014-03-31T23:59:59Z,H,DISCONTINUED,2014-04-14,,2014-03-18,2014-04-14,14,,,,,,,Last Disease Assessment by Investigator,LSTA,Tumor Response,Investigator,RECIST 1.1,,,Y,,,,,,,,,,,,,
52,CDISCPILOT01,01-701-1033,1033,701,USA,,2014-03-18,2014-04-14,2014-03-18,2014-03-31,2014-09-15,,2014-09-15,,,,,,,,,,10,NA,2014-03-10,-8,74,YEARS,>64,M,WHITE,White,NOT HISPANIC OR LATINO,Y,Xanomeline Low Dose,Xan_Lo,Xanomeline Low Dose,Xan_Lo,Xanomeline Low Dose,Xanomeline Low Dose,2014-03-18,2014-03-18T00:00:00Z,H,2014-03-31,2014-03-31T23:59:59Z,H,DISCONTINUED,2014-04-14,,,2014-04-14,14,,,,,,,Measurable Disease at Baseline by Investigator,MDIS,,Investigator,RECIST 1.1,0,N,Y,,,,,,,,,,,,,
53,CDISCPILOT01,01-701-1033,1033,701,USA,,2014-03-18,2014-04-14,2014-03-18,2014-03-31,2014-09-15,,2014-09-15,,,,,,,,,,11,NA,2014-03-10,-8,74,YEARS,>64,M,WHITE,White,NOT HISPANIC OR LATINO,Y,Xanomeline Low Dose,Xan_Lo,Xanomeline Low Dose,Xan_Lo,Xanomeline Low Dose,Xanomeline Low Dose,2014-03-18,2014-03-18T00:00:00Z,H,2014-03-31,2014-03-31T23:59:59Z,H,DISCONTINUED,2014-04-14,,2014-03-18,2014-04-14,14,,,,,,,Disease Progression by Investigator,PD,Tumor Response,Investigator,RECIST 1.1,0,N,Y,,,,,,,,,,,,,
54,CDISCPILOT01,01-701-1033,1033,701,USA,,2014-03-18,2014-04-14,2014-03-18,2014-03-31,2014-09-15,,2014-09-15,,,,,,,,,,12,NA,2014-03-10,-8,74,YEARS,>64,M,WHITE,White,NOT HISPANIC OR LATINO,Y,Xanomeline Low Dose,Xan_Lo,Xanomeline Low Dose,Xan_Lo,Xanomeline Low Dose,Xanomeline Low Dose,2014-03-18,2014-03-18T00:00:00Z,H,2014-03-31,2014-03-31T23:59:59Z,H,DISCONTINUED,2014-04-14,,2014-03-18,2014-04-14,14,,,,,,,Response by Investigator (confirmation not required),RSP,Tumor Response,Investigator,RECIST 1.1,0,N,Y,,,,,,,,,,,,,
55,CDISCPILOT01,01-701-1034,1034,701,USA,,2014-07-01,2014-12-30,2014-07-01,2014-12-30,2014-12-30T09:50,,,,,,,,,,,,1,NA,2014-06-24,-7,77,YEARS,>64,F,WHITE,White,NOT HISPANIC OR LATINO,Y,Xanomeline High Dose,Xan_Hi,Xanomeline High Dose,Xan_Hi,Xanomeline High Dose,Xanomeline High Dose,2014-07-01,2014-07-01T00:00:00Z,H,2014-12-30,2014-12-30T23:59:59Z,H,COMPLETED,2014-12-30,,2014-07-01,2014-12-30,183,,,,,,,Best Overall Response of CR/PR by Investigator (confirmation not required),BCP,Tumor Response,Investigator,RECIST 1.1,0,N,Y,,,,,,,,,,,,,
56,CDISCPILOT01,01-701-1034,1034,701,USA,RS,2014-07-01,2014-12-30,2014-07-01,2014-12-30,2014-12-30T09:50,,,,,,,,,,,,2,NA,2014-06-24,-7,77,YEARS,>64,F,WHITE,White,NOT HISPANIC OR LATINO,Y,Xanomeline High Dose,Xan_Hi,Xanomeline High Dose,Xan_Hi,Xanomeline High Dose,Xanomeline High Dose,2014-07-01,2014-07-01T00:00:00Z,H,2014-12-30,2014-12-30T23:59:59Z,H,COMPLETED,2014-12-30,,2014-07-01,2014-12-30,183,,,,2014-08-12,,WEEK 6,Best Overall Response by Investigator (confirmation not required),BOR,Tumor Response,Investigator,RECIST 1.1,4,NON-CR/NON-PD,Y,Y,3,WEEK 6,OVRLRESP,Overall Response,NON-CR/NON-PD,NON-CR/NON-PD,INVESTIGATOR,,,2014-08-12,6,
57,CDISCPILOT01,01-701-1034,1034,701,USA,RS,2014-07-01,2014-12-30,2014-07-01,2014-12-30,2014-12-30T09:50,,,,,,,,,,,,3,NA,2014-06-24,-7,77,YEARS,>64,F,WHITE,White,NOT HISPANIC OR LATINO,Y,Xanomeline High Dose,Xan_Hi,Xanomeline High Dose,Xan_Hi,Xanomeline High Dose,Xanomeline High Dose,2014-07-01,2014-07-01T00:00:00Z,H,2014-12-30,2014-12-30T23:59:59Z,H,COMPLETED,2014-12-30,,2014-07-01,2014-12-30,183,,,,2014-08-12,,WEEK 6,Clinical Benefit by Investigator (confirmation for response not required),CB,Tumor Response,Investigator,RECIST 1.1,1,Y,Y,Y,3,WEEK 6,OVRLRESP,Overall Response,NON-CR/NON-PD,NON-CR/NON-PD,INVESTIGATOR,,,2014-08-12,6,
58,CDISCPILOT01,01-701-1034,1034,701,USA,,2014-07-01,2014-12-30,2014-07-01,2014-12-30,2014-12-30T09:50,,,,,,,,,,,,4,NA,2014-06-24,-7,77,YEARS,>64,F,WHITE,White,NOT HISPANIC OR LATINO,Y,Xanomeline High Dose,Xan_Hi,Xanomeline High Dose,Xan_Hi,Xanomeline High Dose,Xanomeline High Dose,2014-07-01,2014-07-01T00:00:00Z,H,2014-12-30,2014-12-30T23:59:59Z,H,COMPLETED,2014-12-30,,2014-07-01,2014-12-30,183,,,,,,,Best Confirmed Overall Response of CR/PR by Investigator,CBCP,Tumor Response,Investigator,RECIST 1.1,0,N,Y,,,,,,,,,,,,,
59,CDISCPILOT01,01-701-1034,1034,701,USA,RS,2014-07-01,2014-12-30,2014-07-01,2014-12-30,2014-12-30T09:50,,,,,,,,,,,,5,NA,2014-06-24,-7,77,YEARS,>64,F,WHITE,White,NOT HISPANIC OR LATINO,Y,Xanomeline High Dose,Xan_Hi,Xanomeline High Dose,Xan_Hi,Xanomeline High Dose,Xanomeline High Dose,2014-07-01,2014-07-01T00:00:00Z,H,2014-12-30,2014-12-30T23:59:59Z,H,COMPLETED,2014-12-30,,2014-07-01,2014-12-30,183,,,,2014-08-12,,WEEK 6,Best Confirmed Overall Response by Investigator,CBOR,Tumor Response,Investigator,RECIST 1.1,4,NON-CR/NON-PD,Y,Y,3,WEEK 6,OVRLRESP,Overall Response,NON-CR/NON-PD,NON-CR/NON-PD,INVESTIGATOR,,,2014-08-12,6,
60,CDISCPILOT01,01-701-1034,1034,701,USA,RS,2014-07-01,2014-12-30,2014-07-01,2014-12-30,2014-12-30T09:50,,,,,,,,,,,,6,NA,2014-06-24,-7,77,YEARS,>64,F,WHITE,White,NOT HISPANIC OR LATINO,Y,Xanomeline High Dose,Xan_Hi,Xanomeline High Dose,Xan_Hi,Xanomeline High Dose,Xanomeline High Dose,2014-07-01,2014-07-01T00:00:00Z,H,2014-12-30,2014-12-30T23:59:59Z,H,COMPLETED,2014-12-30,,2014-07-01,2014-12-30,183,,,,2014-08-12,,WEEK 6,Confirmed Clinical Benefit by Investigator,CCB,Tumor Response,Investigator,RECIST 1.1,1,Y,Y,Y,3,WEEK 6,OVRLRESP,Overall Response,NON-CR/NON-PD,NON-CR/NON-PD,INVESTIGATOR,,,2014-08-12,6,
61,CDISCPILOT01,01-701-1034,1034,701,USA,,2014-07-01,2014-12-30,2014-07-01,2014-12-30,2014-12-30T09:50,,,,,,,,,,,,7,NA,2014-06-24,-7,77,YEARS,>64,F,WHITE,White,NOT HISPANIC OR LATINO,Y,Xanomeline High Dose,Xan_Hi,Xanomeline High Dose,Xan_Hi,Xanomeline High Dose,Xanomeline High Dose,2014-07-01,2014-07-01T00:00:00Z,H,2014-12-30,2014-12-30T23:59:59Z,H,COMPLETED,2014-12-30,,2014-07-01,2014-12-30,183,,,,,,,Confirmed Response by Investigator,CRSP,Tumor Response,Investigator,RECIST 1.1,0,N,Y,,,,,,,,,,,,,
62,CDISCPILOT01,01-701-1034,1034,701,USA,,2014-07-01,2014-12-30,2014-07-01,2014-12-30,2014-12-30T09:50,,,,,,,,,,,,8,NA,2014-06-24,-7,77,YEARS,>64,F,WHITE,White,NOT HISPANIC OR LATINO,Y,Xanomeline High Dose,Xan_Hi,Xanomeline High Dose,Xan_Hi,Xanomeline High Dose,Xanomeline High Dose,2014-07-01,2014-07-01T00:00:00Z,H,2014-12-30,2014-12-30T23:59:59Z,H,COMPLETED,2014-12-30,,2014-07-01,2014-12-30,183,,,,,,,Death,DEATH,Reference Event,,,0,N,Y,,,,,,,,,,,,,
63,CDISCPILOT01,01-701-1034,1034,701,USA,RS,2014-07-01,2014-12-30,2014-07-01,2014-12-30,2014-12-30T09:50,,,,,,,,,,,,9,NA,2014-06-24,-7,77,YEARS,>64,F,WHITE,White,NOT HISPANIC OR LATINO,Y,Xanomeline High Dose,Xan_Hi,Xanomeline High Dose,Xan_Hi,Xanomeline High Dose,Xanomeline High Dose,2014-07-01,2014-07-01T00:00:00Z,H,2014-12-30,2014-12-30T23:59:59Z,H,COMPLETED,2014-12-30,,2014-07-01,2014-12-30,183,,,,2014-08-12,,WEEK 6,Last Disease Assessment by Investigator,LSTA,Tumor Response,Investigator,RECIST 1.1,4,NON-CR/NON-PD,Y,Y,3,WEEK 6,OVRLRESP,Overall Response,NON-CR/NON-PD,NON-CR/NON-PD,INVESTIGATOR,,,2014-08-12,6,
64,CDISCPILOT01,01-701-1034,1034,701,USA,,2014-07-01,2014-12-30,2014-07-01,2014-12-30,2014-12-30T09:50,,,,,,,,,,,,10,NA,2014-06-24,-7,77,YEARS,>64,F,WHITE,White,NOT HISPANIC OR LATINO,Y,Xanomeline High Dose,Xan_Hi,Xanomeline High Dose,Xan_Hi,Xanomeline High Dose,Xanomeline High Dose,2014-07-01,2014-07-01T00:00:00Z,H,2014-12-30,2014-12-30T23:59:59Z,H,COMPLETED,2014-12-30,,,2014-12-30,183,,,,,,,Measurable Disease at Baseline by Investigator,MDIS,,Investigator,RECIST 1.1,0,N,Y,,,,,,,,,,,,,
65,CDISCPILOT01,01-701-1034,1034,701,USA,RS,2014-07-01,2014-12-30,2014-07-01,2014-12-30,2014-12-30T09:50,,,,,,,,,,,,11,NA,2014-06-24,-7,77,YEARS,>64,F,WHITE,White,NOT HISPANIC OR LATINO,Y,Xanomeline High Dose,Xan_Hi,Xanomeline High Dose,Xan_Hi,Xanomeline High Dose,Xanomeline High Dose,2014-07-01,2014-07-01T00:00:00Z,H,2014-12-30,2014-12-30T23:59:59Z,H,COMPLETED,2014-12-30,,2014-07-01,2014-12-30,183,,,,2014-07-22,,WEEK 3,Overall Response by Investigator,OVR,Tumor Response,Investigator,RECIST 1.1,4,NON-CR/NON-PD,Y,Y,2,WEEK 3,OVRLRESP,Overall Response,NON-CR/NON-PD,NON-CR/NON-PD,INVESTIGATOR,,,2014-07-22,3,
66,CDISCPILOT01,01-701-1034,1034,701,USA,RS,2014-07-01,2014-12-30,2014-07-01,2014-12-30,2014-12-30T09:50,,,,,,,,,,,,12,NA,2014-06-24,-7,77,YEARS,>64,F,WHITE,White,NOT HISPANIC OR LATINO,Y,Xanomeline High Dose,Xan_Hi,Xanomeline High Dose,Xan_Hi,Xanomeline High Dose,Xanomeline High Dose,2014-07-01,2014-07-01T00:00:00Z,H,2014-12-30,2014-12-30T23:59:59Z,H,COMPLETED,2014-12-30,,2014-07-01,2014-12-30,183,,,,2014-08-12,,WEEK 6,Overall Response by Investigator,OVR,Tumor Response,Investigator,RECIST 1.1,4,NON-CR/NON-PD,Y,Y,3,WEEK 6,OVRLRESP,Overall Response,NON-CR/NON-PD,NON-CR/NON-PD,INVESTIGATOR,,,2014-08-12,6,
67,CDISCPILOT01,01-701-1034,1034,701,USA,,2014-07-01,2014-12-30,2014-07-01,2014-12-30,2014-12-30T09:50,,,,,,,,,,,,13,NA,2014-06-24,-7,77,YEARS,>64,F,WHITE,White,NOT HISPANIC OR LATINO,Y,Xanomeline High Dose,Xan_Hi,Xanomeline High Dose,Xan_Hi,Xanomeline High Dose,Xanomeline High Dose,2014-07-01,2014-07-01T00:00:00Z,H,2014-12-30,2014-12-30T23:59:59Z,H,COMPLETED,2014-12-30,,2014-07-01,2014-12-30,183,,,,,,,Disease Progression by Investigator,PD,Tumor Response,Investigator,RECIST 1.1,0,N,Y,,,,,,,,,,,,,
68,CDISCPILOT01,01-701-1034,1034,701,USA,,2014-07-01,2014-12-30,2014-07-01,2014-12-30,2014-12-30T09:50,,,,,,,,,,,,14,NA,2014-06-24,-7,77,YEARS,>64,F,WHITE,White,NOT HISPANIC OR LATINO,Y,Xanomeline High Dose,Xan_Hi,Xanomeline High Dose,Xan_Hi,Xanomeline High Dose,Xanomeline High Dose,2014-07-01,2014-07-01T00:00:00Z,H,2014-12-30,2014-12-30T23:59:59Z,H,COMPLETED,2014-12-30,,2014-07-01,2014-12-30,183,,,,,,,Response by Investigator (confirmation not required),RSP,Tumor Response,Investigator,RECIST 1.1,0,N,Y,,,,,,,,,,,,,
69,CDISCPILOT01,01-701-1047,1047,701,USA,,2013-02-12,2013-03-29,2013-02-12,2013-03-09,2013-07-28,,2013-07-28,,,,,,,,,,1,NA,2013-01-22,-21,85,YEARS,>64,F,WHITE,White,NOT HISPANIC OR LATINO,Y,Placebo,Pbo,Placebo,Pbo,Placebo,Placebo,2013-02-12,2013-02-12T00:00:00Z,H,2013-03-09,2013-03-09T23:59:59Z,H,DISCONTINUED,2013-03-29,,2013-02-12,2013-04-07,26,,,,,,,Best Overall Response of CR/PR by Investigator (confirmation not required),BCP,Tumor Response,Investigator,RECIST 1.1,0,N,Y,,,,,,,,,,,,,
70,CDISCPILOT01,01-701-1047,1047,701,USA,,2013-02-12,2013-03-29,2013-02-12,2013-03-09,2013-07-28,,2013-07-28,,,,,,,,,,2,NA,2013-01-22,-21,85,YEARS,>64,F,WHITE,White,NOT HISPANIC OR LATINO,Y,Placebo,Pbo,Placebo,Pbo,Placebo,Placebo,2013-02-12,2013-02-12T00:00:00Z,H,2013-03-09,2013-03-09T23:59:59Z,H,DISCONTINUED,2013-03-29,,2013-02-12,2013-04-07,26,,,,,,,Best Overall Response by Investigator (confirmation not required),BOR,Tumor Response,Investigator,RECIST 1.1,7,MISSING,Y,,,,,,,,,,,,,
71,CDISCPILOT01,01-701-1047,1047,701,USA,,2013-02-12,2013-03-29,2013-02-12,2013-03-09,2013-07-28,,2013-07-28,,,,,,,,,,3,NA,2013-01-22,-21,85,YEARS,>64,F,WHITE,White,NOT HISPANIC OR LATINO,Y,Placebo,Pbo,Placebo,Pbo,Placebo,Placebo,2013-02-12,2013-02-12T00:00:00Z,H,2013-03-09,2013-03-09T23:59:59Z,H,DISCONTINUED,2013-03-29,,2013-02-12,2013-04-07,26,,,,,,,Clinical Benefit by Investigator (confirmation for response not required),CB,Tumor Response,Investigator,RECIST 1.1,0,N,Y,,,,,,,,,,,,,
72,CDISCPILOT01,01-701-1047,1047,701,USA,,2013-02-12,2013-03-29,2013-02-12,2013-03-09,2013-07-28,,2013-07-28,,,,,,,,,,4,NA,2013-01-22,-21,85,YEARS,>64,F,WHITE,White,NOT HISPANIC OR LATINO,Y,Placebo,Pbo,Placebo,Pbo,Placebo,Placebo,2013-02-12,2013-02-12T00:00:00Z,H,2013-03-09,2013-03-09T23:59:59Z,H,DISCONTINUED,2013-03-29,,2013-02-12,2013-04-07,26,,,,,,,Best Confirmed Overall Response of CR/PR by Investigator,CBCP,Tumor Response,Investigator,RECIST 1.1,0,N,Y,,,,,,,,,,,,,
73,CDISCPILOT01,01-701-1047,1047,701,USA,,2013-02-12,2013-03-29,2013-02-12,2013-03-09,2013-07-28,,2013-07-28,,,,,,,,,,5,NA,2013-01-22,-21,85,YEARS,>64,F,WHITE,White,NOT HISPANIC OR LATINO,Y,Placebo,Pbo,Placebo,Pbo,Placebo,Placebo,2013-02-12,2013-02-12T00:00:00Z,H,2013-03-09,2013-03-09T23:59:59Z,H,DISCONTINUED,2013-03-29,,2013-02-12,2013-04-07,26,,,,,,,Best Confirmed Overall Response by Investigator,CBOR,Tumor Response,Investigator,RECIST 1.1,7,MISSING,Y,,,,,,,,,,,,,
74,CDISCPILOT01,01-701-1047,1047,701,USA,,2013-02-12,2013-03-29,2013-02-12,2013-03-09,2013-07-28,,2013-07-28,,,,,,,,,,6,NA,2013-01-22,-21,85,YEARS,>64,F,WHITE,White,NOT HISPANIC OR LATINO,Y,Placebo,Pbo,Placebo,Pbo,Placebo,Placebo,2013-02-12,2013-02-12T00:00:00Z,H,2013-03-09,2013-03-09T23:59:59Z,H,DISCONTINUED,2013-03-29,,2013-02-12,2013-04-07,26,,,,,,,Confirmed Clinical Benefit by Investigator,CCB,Tumor Response,Investigator,RECIST 1.1,0,N,Y,,,,,,,,,,,,,
75,CDISCPILOT01,01-701-1047,1047,701,USA,,2013-02-12,2013-03-29,2013-02-12,2013-03-09,2013-07-28,,2013-07-28,,,,,,,,,,7,NA,2013-01-22,-21,85,YEARS,>64,F,WHITE,White,NOT HISPANIC OR LATINO,Y,Placebo,Pbo,Placebo,Pbo,Placebo,Placebo,2013-02-12,2013-02-12T00:00:00Z,H,2013-03-09,2013-03-09T23:59:59Z,H,DISCONTINUED,2013-03-29,,2013-02-12,2013-04-07,26,,,,,,,Confirmed Response by Investigator,CRSP,Tumor Response,Investigator,RECIST 1.1,0,N,Y,,,,,,,,,,,,,
76,CDISCPILOT01,01-701-1047,1047,701,USA,,2013-02-12,2013-03-29,2013-02-12,2013-03-09,2013-07-28,,2013-07-28,,,,,,,,,,8,NA,2013-01-22,-21,85,YEARS,>64,F,WHITE,White,NOT HISPANIC OR LATINO,Y,Placebo,Pbo,Placebo,Pbo,Placebo,Placebo,2013-02-12,2013-02-12T00:00:00Z,H,2013-03-09,2013-03-09T23:59:59Z,H,DISCONTINUED,2013-03-29,,2013-02-12,2013-04-07,26,,,,,,,Death,DEATH,Reference Event,,,0,N,Y,,,,,,,,,,,,,
77,CDISCPILOT01,01-701-1047,1047,701,USA,,2013-02-12,2013-03-29,2013-02-12,2013-03-09,2013-07-28,,2013-07-28,,,,,,,,,,9,NA,2013-01-22,-21,85,YEARS,>64,F,WHITE,White,NOT HISPANIC OR LATINO,Y,Placebo,Pbo,Placebo,Pbo,Placebo,Placebo,2013-02-12,2013-02-12T00:00:00Z,H,2013-03-09,2013-03-09T23:59:59Z,H,DISCONTINUED,2013-03-29,,2013-02-12,2013-04-07,26,,,,,,,Last Disease Assessment by Investigator,LSTA,Tumor Response,Investigator,RECIST 1.1,,,Y,,,,,,,,,,,,,
78,CDISCPILOT01,01-701-1047,1047,701,USA,,2013-02-12,2013-03-29,2013-02-12,2013-03-09,2013-07-28,,2013-07-28,,,,,,,,,,10,NA,2013-01-22,-21,85,YEARS,>64,F,WHITE,White,NOT HISPANIC OR LATINO,Y,Placebo,Pbo,Placebo,Pbo,Placebo,Placebo,2013-02-12,2013-02-12T00:00:00Z,H,2013-03-09,2013-03-09T23:59:59Z,H,DISCONTINUED,2013-03-29,,,2013-04-07,26,,,,,,,Measurable Disease at Baseline by Investigator,MDIS,,Investigator,RECIST 1.1,0,N,Y,,,,,,,,,,,,,
79,CDISCPILOT01,01-701-1047,1047,701,USA,,2013-02-12,2013-03-29,2013-02-12,2013-03-09,2013-07-28,,2013-07-28,,,,,,,,,,11,NA,2013-01-22,-21,85,YEARS,>64,F,WHITE,White,NOT HISPANIC OR LATINO,Y,Placebo,Pbo,Placebo,Pbo,Placebo,Placebo,2013-02-12,2013-02-12T00:00:00Z,H,2013-03-09,2013-03-09T23:59:59Z,H,DISCONTINUED,2013-03-29,,2013-02-12,2013-04-07,26,,,,,,,Disease Progression by Investigator,PD,Tumor Response,Investigator,RECIST 1.1,0,N,Y,,,,,,,,,,,,,
80,CDISCPILOT01,01-701-1047,1047,701,USA,,2013-02-12,2013-03-29,2013-02-12,2013-03-09,2013-07-28,,2013-07-28,,,,,,,,,,12,NA,2013-01-22,-21,85,YEARS,>64,F,WHITE,White,NOT HISPANIC OR LATINO,Y,Placebo,Pbo,Placebo,Pbo,Placebo,Placebo,2013-02-12,2013-02-12T00:00:00Z,H,2013-03-09,2013-03-09T23:59:59Z,H,DISCONTINUED,2013-03-29,,2013-02-12,2013-04-07,26,,,,,,,Response by Investigator (confirmation not required),RSP,Tumor Response,Investigator,RECIST 1.1,0,N,Y,,,,,,,,,,,,,
81,CDISCPILOT01,01-701-1057,1057,701,USA,,,,,,2013-12-27,2013-12-20,,,,,,,,,,,1,NA,2013-12-20,,59,YEARS,18-64,F,WHITE,White,HISPANIC OR LATINO,N,Screen Failure,Scrnfail,Screen Failure,Scrnfail,Screen Failure,Screen Failure,,,,,,,,,,,,,,,,,,,Best Overall Response of CR/PR by Investigator (confirmation not required),BCP,Tumor Response,Investigator,RECIST 1.1,0,N,Y,,,,,,,,,,,,,
82,CDISCPILOT01,01-701-1057,1057,701,USA,,,,,,2013-12-27,2013-12-20,,,,,,,,,,,2,NA,2013-12-20,,59,YEARS,18-64,F,WHITE,White,HISPANIC OR LATINO,N,Screen Failure,Scrnfail,Screen Failure,Scrnfail,Screen Failure,Screen Failure,,,,,,,,,,,,,,,,,,,Best Overall Response by Investigator (confirmation not required),BOR,Tumor Response,Investigator,RECIST 1.1,7,MISSING,Y,,,,,,,,,,,,,
83,CDISCPILOT01,01-701-1057,1057,701,USA,,,,,,2013-12-27,2013-12-20,,,,,,,,,,,3,NA,2013-12-20,,59,YEARS,18-64,F,WHITE,White,HISPANIC OR LATINO,N,Screen Failure,Scrnfail,Screen Failure,Scrnfail,Screen Failure,Screen Failure,,,,,,,,,,,,,,,,,,,Clinical Benefit by Investigator (confirmation for response not required),CB,Tumor Response,Investigator,RECIST 1.1,0,N,Y,,,,,,,,,,,,,
84,CDISCPILOT01,01-701-1057,1057,701,USA,,,,,,2013-12-27,2013-12-20,,,,,,,,,,,4,NA,2013-12-20,,59,YEARS,18-64,F,WHITE,White,HISPANIC OR LATINO,N,Screen Failure,Scrnfail,Screen Failure,Scrnfail,Screen Failure,Screen Failure,,,,,,,,,,,,,,,,,,,Best Confirmed Overall Response of CR/PR by Investigator,CBCP,Tumor Response,Investigator,RECIST 1.1,0,N,Y,,,,,,,,,,,,,
85,CDISCPILOT01,01-701-1057,1057,701,USA,,,,,,2013-12-27,2013-12-20,,,,,,,,,,,5,NA,2013-12-20,,59,YEARS,18-64,F,WHITE,White,HISPANIC OR LATINO,N,Screen Failure,Scrnfail,Screen Failure,Scrnfail,Screen Failure,Screen Failure,,,,,,,,,,,,,,,,,,,Best Confirmed Overall Response by Investigator,CBOR,Tumor Response,Investigator,RECIST 1.1,7,MISSING,Y,,,,,,,,,,,,,
86,CDISCPILOT01,01-701-1057,1057,701,USA,,,,,,2013-12-27,2013-12-20,,,,,,,,,,,6,NA,2013-12-20,,59,YEARS,18-64,F,WHITE,White,HISPANIC OR LATINO,N,Screen Failure,Scrnfail,Screen Failure,Scrnfail,Screen Failure,Screen Failure,,,,,,,,,,,,,,,,,,,Confirmed Clinical Benefit by Investigator,CCB,Tumor Response,Investigator,RECIST 1.1,0,N,Y,,,,,,,,,,,,,
87,CDISCPILOT01,01-701-1057,1057,701,USA,,,,,,2013-12-27,2013-12-20,,,,,,,,,,,7,NA,2013-12-20,,59,YEARS,18-64,F,WHITE,White,HISPANIC OR LATINO,N,Screen Failure,Scrnfail,Screen Failure,Scrnfail,Screen Failure,Screen Failure,,,,,,,,,,,,,,,,,,,Confirmed Response by Investigator,CRSP,Tumor Response,Investigator,RECIST 1.1,0,N,Y,,,,,,,,,,,,,
88,CDISCPILOT01,01-701-1057,1057,701,USA,,,,,,2013-12-27,2013-12-20,,,,,,,,,,,8,NA,2013-12-20,,59,YEARS,18-64,F,WHITE,White,HISPANIC OR LATINO,N,Screen Failure,Scrnfail,Screen Failure,Scrnfail,Screen Failure,Screen Failure,,,,,,,,,,,,,,,,,,,Death,DEATH,Reference Event,,,0,N,Y,,,,,,,,,,,,,
89,CDISCPILOT01,01-701-1057,1057,701,USA,,,,,,2013-12-27,2013-12-20,,,,,,,,,,,9,NA,2013-12-20,,59,YEARS,18-64,F,WHITE,White,HISPANIC OR LATINO,N,Screen Failure,Scrnfail,Screen Failure,Scrnfail,Screen Failure,Screen Failure,,,,,,,,,,,,,,,,,,,Last Disease Assessment by Investigator,LSTA,Tumor Response,Investigator,RECIST 1.1,,,Y,,,,,,,,,,,,,
90,CDISCPILOT01,01-701-1057,1057,701,USA,,,,,,2013-12-27,2013-12-20,,,,,,,,,,,10,NA,2013-12-20,,59,YEARS,18-64,F,WHITE,White,HISPANIC OR LATINO,N,Screen Failure,Scrnfail,Screen Failure,Scrnfail,Screen Failure,Screen Failure,,,,,,,,,,,,,,,,,,,Measurable Disease at Baseline by Investigator,MDIS,,Investigator,RECIST 1.1,0,N,Y,,,,,,,,,,,,,
91,CDISCPILOT01,01-701-1057,1057,701,USA,,,,,,2013-12-27,2013-12-20,,,,,,,,,,,11,NA,2013-12-20,,59,YEARS,18-64,F,WHITE,White,HISPANIC OR LATINO,N,Screen Failure,Scrnfail,Screen Failure,Scrnfail,Screen Failure,Screen Failure,,,,,,,,,,,,,,,,,,,Disease Progression by Investigator,PD,Tumor Response,Investigator,RECIST 1.1,0,N,Y,,,,,,,,,,,,,
92,CDISCPILOT01,01-701-1057,1057,701,USA,,,,,,2013-12-27,2013-12-20,,,,,,,,,,,12,NA,2013-12-20,,59,YEARS,18-64,F,WHITE,White,HISPANIC OR LATINO,N,Screen Failure,Scrnfail,Screen Failure,Scrnfail,Screen Failure,Screen Failure,,,,,,,,,,,,,,,,,,,Response by Investigator (confirmation not required),RSP,Tumor Response,Investigator,RECIST 1.1,0,N,Y,,,,,,,,,,,,,
93,CDISCPILOT01,01-701-1097,1097,701,USA,,2014-01-01,2014-07-09,2014-01-01,2014-07-09,2014-07-09T09:39,,,,,,,,,,,,1,NA,2013-12-23,-9,68,YEARS,>64,M,WHITE,White,NOT HISPANIC OR LATINO,Y,Xanomeline Low Dose,Xan_Lo,Xanomeline Low Dose,Xan_Lo,Xanomeline Low Dose,Xanomeline Low Dose,2014-01-01,2014-01-01T00:00:00Z,H,2014-07-09,2014-07-09T23:59:59Z,H,COMPLETED,2014-07-09,,2014-01-01,2014-07-09,190,,,,,,,Best Overall Response of CR/PR by Investigator (confirmation not required),BCP,Tumor Response,Investigator,RECIST 1.1,0,N,Y,,,,,,,,,,,,,
94,CDISCPILOT01,01-701-1097,1097,701,USA,RS,2014-01-01,2014-07-09,2014-01-01,2014-07-09,2014-07-09T09:39,,,,,,,,,,,,2,NA,2013-12-23,-9,68,YEARS,>64,M,WHITE,White,NOT HISPANIC OR LATINO,Y,Xanomeline Low Dose,Xan_Lo,Xanomeline Low Dose,Xan_Lo,Xanomeline Low Dose,Xanomeline Low Dose,2014-01-01,2014-01-01T00:00:00Z,H,2014-07-09,2014-07-09T23:59:59Z,H,COMPLETED,2014-07-09,,2014-01-01,2014-07-09,190,,,,2014-01-22,,WEEK 3,Best Overall Response by Investigator (confirmation not required),BOR,Tumor Response,Investigator,RECIST 1.1,6,NE,Y,Y,2,WEEK 3,OVRLRESP,Overall Response,NON-CR/NON-PD,NON-CR/NON-PD,INVESTIGATOR,,,2014-01-22,3,
95,CDISCPILOT01,01-701-1097,1097,701,USA,,2014-01-01,2014-07-09,2014-01-01,2014-07-09,2014-07-09T09:39,,,,,,,,,,,,3,NA,2013-12-23,-9,68,YEARS,>64,M,WHITE,White,NOT HISPANIC OR LATINO,Y,Xanomeline Low Dose,Xan_Lo,Xanomeline Low Dose,Xan_Lo,Xanomeline Low Dose,Xanomeline Low Dose,2014-01-01,2014-01-01T00:00:00Z,H,2014-07-09,2014-07-09T23:59:59Z,H,COMPLETED,2014-07-09,,2014-01-01,2014-07-09,190,,,,,,,Clinical Benefit by Investigator (confirmation for response not required),CB,Tumor Response,Investigator,RECIST 1.1,0,N,Y,,,,,,,,,,,,,
96,CDISCPILOT01,01-701-1097,1097,701,USA,,2014-01-01,2014-07-09,2014-01-01,2014-07-09,2014-07-09T09:39,,,,,,,,,,,,4,NA,2013-12-23,-9,68,YEARS,>64,M,WHITE,White,NOT HISPANIC OR LATINO,Y,Xanomeline Low Dose,Xan_Lo,Xanomeline Low Dose,Xan_Lo,Xanomeline Low Dose,Xanomeline Low Dose,2014-01-01,2014-01-01T00:00:00Z,H,2014-07-09,2014-07-09T23:59:59Z,H,COMPLETED,2014-07-09,,2014-01-01,2014-07-09,190,,,,,,,Best Confirmed Overall Response of CR/PR by Investigator,CBCP,Tumor Response,Investigator,RECIST 1.1,0,N,Y,,,,,,,,,,,,,
97,CDISCPILOT01,01-701-1097,1097,701,USA,RS,2014-01-01,2014-07-09,2014-01-01,2014-07-09,2014-07-09T09:39,,,,,,,,,,,,5,NA,2013-12-23,-9,68,YEARS,>64,M,WHITE,White,NOT HISPANIC OR LATINO,Y,Xanomeline Low Dose,Xan_Lo,Xanomeline Low Dose,Xan_Lo,Xanomeline Low Dose,Xanomeline Low Dose,2014-01-01,2014-01-01T00:00:00Z,H,2014-07-09,2014-07-09T23:59:59Z,H,COMPLETED,2014-07-09,,2014-01-01,2014-07-09,190,,,,2014-01-22,,WEEK 3,Best Confirmed Overall Response by Investigator,CBOR,Tumor Response,Investigator,RECIST 1.1,6,NE,Y,Y,2,WEEK 3,OVRLRESP,Overall Response,NON-CR/NON-PD,NON-CR/NON-PD,INVESTIGATOR,,,2014-01-22,3,
98,CDISCPILOT01,01-701-1097,1097,701,USA,,2014-01-01,2014-07-09,2014-01-01,2014-07-09,2014-07-09T09:39,,,,,,,,,,,,6,NA,2013-12-23,-9,68,YEARS,>64,M,WHITE,White,NOT HISPANIC OR LATINO,Y,Xanomeline Low Dose,Xan_Lo,Xanomeline Low Dose,Xan_Lo,Xanomeline Low Dose,Xanomeline Low Dose,2014-01-01,2014-01-01T00:00:00Z,H,2014-07-09,2014-07-09T23:59:59Z,H,COMPLETED,2014-07-09,,2014-01-01,2014-07-09,190,,,,,,,Confirmed Clinical Benefit by Investigator,CCB,Tumor Response,Investigator,RECIST 1.1,0,N,Y,,,,,,,,,,,,,
99,CDISCPILOT01,01-701-1097,1097,701,USA,,2014-01-01,2014-07-09,2014-01-01,2014-07-09,2014-07-09T09:39,,,,,,,,,,,,7,NA,2013-12-23,-9,68,YEARS,>64,M,WHITE,White,NOT HISPANIC OR LATINO,Y,Xanomeline Low Dose,Xan_Lo,Xanomeline Low Dose,Xan_Lo,Xanomeline Low Dose,Xanomeline Low Dose,2014-01-01,2014-01-01T00:00:00Z,H,2014-07-09,2014-07-09T23:59:59Z,H,COMPLETED,2014-07-09,,2014-01-01,2014-07-09,190,,,,,,,Confirmed Response by Investigator,CRSP,Tumor Response,Investigator,RECIST 1.1,0,N,Y,,,,,,,,,,,,,
100,CDISCPILOT01,01-701-1097,1097,701,USA,,2014-01-01,2014-07-09,2014-01-01,2014-07-09,2014-07-09T09:39,,,,,,,,,,,,8,NA,2013-12-23,-9,68,YEARS,>64,M,WHITE,White,NOT HISPANIC OR LATINO,Y,Xanomeline Low Dose,Xan_Lo,Xanomeline Low Dose,Xan_Lo,Xanomeline Low Dose,Xanomeline Low Dose,2014-01-01,2014-01-01T00:00:00Z,H,2014-07-09,2014-07-09T23:59:59Z,H,COMPLETED,2014-07-09,,2014-01-01,2014-07-09,190,,,,,,,Death,DEATH,Reference Event,,,0,N,Y,,,,,,,,,,,,,
101,CDISCPILOT01,01-701-1097,1097,701,USA,RS,2014-01-01,2014-07-09,2014-01-01,2014-07-09,2014-07-09T09:39,,,,,,,,,,,,9,NA,2013-12-23,-9,68,YEARS,>64,M,WHITE,White,NOT HISPANIC OR LATINO,Y,Xanomeline Low Dose,Xan_Lo,Xanomeline Low Dose,Xan_Lo,Xanomeline Low Dose,Xanomeline Low Dose,2014-01-01,2014-01-01T00:00:00Z,H,2014-07-09,2014-07-09T23:59:59Z,H,COMPLETED,2014-07-09,,2014-01-01,2014-07-09,190,,,,2014-01-22,,WEEK 3,Last Disease Assessment by Investigator,LSTA,Tumor Response,Investigator,RECIST 1.1,4,NON-CR/NON-PD,Y,Y,2,WEEK 3,OVRLRESP,Overall Response,NON-CR/NON-PD,NON-CR/NON-PD,INVESTIGATOR,,,2014-01-22,3,
102,CDISCPILOT01,01-701-1097,1097,701,USA,,2014-01-01,2014-07-09,2014-01-01,2014-07-09,2014-07-09T09:39,,,,,,,,,,,,10,NA,2013-12-23,-9,68,YEARS,>64,M,WHITE,White,NOT HISPANIC OR LATINO,Y,Xanomeline Low Dose,Xan_Lo,Xanomeline Low Dose,Xan_Lo,Xanomeline Low Dose,Xanomeline Low Dose,2014-01-01,2014-01-01T00:00:00Z,H,2014-07-09,2014-07-09T23:59:59Z,H,COMPLETED,2014-07-09,,,2014-07-09,190,,,,,,,Measurable Disease at Baseline by Investigator,MDIS,,Investigator,RECIST 1.1,0,N,Y,,,,,,,,,,,,,
103,CDISCPILOT01,01-701-1097,1097,701,USA,RS,2014-01-01,2014-07-09,2014-01-01,2014-07-09,2014-07-09T09:39,,,,,,,,,,,,11,NA,2013-12-23,-9,68,YEARS,>64,M,WHITE,White,NOT HISPANIC OR LATINO,Y,Xanomeline Low Dose,Xan_Lo,Xanomeline Low Dose,Xan_Lo,Xanomeline Low Dose,Xanomeline Low Dose,2014-01-01,2014-01-01T00:00:00Z,H,2014-07-09,2014-07-09T23:59:59Z,H,COMPLETED,2014-07-09,,2014-01-01,2014-07-09,190,,,,2014-01-22,,WEEK 3,Overall Response by Investigator,OVR,Tumor Response,Investigator,RECIST 1.1,4,NON-CR/NON-PD,Y,Y,2,WEEK 3,OVRLRESP,Overall Response,NON-CR/NON-PD,NON-CR/NON-PD,INVESTIGATOR,,,2014-01-22,3,
104,CDISCPILOT01,01-701-1097,1097,701,USA,,2014-01-01,2014-07-09,2014-01-01,2014-07-09,2014-07-09T09:39,,,,,,,,,,,,12,NA,2013-12-23,-9,68,YEARS,>64,M,WHITE,White,NOT HISPANIC OR LATINO,Y,Xanomeline Low Dose,Xan_Lo,Xanomeline Low Dose,Xan_Lo,Xanomeline Low Dose,Xanomeline Low Dose,2014-01-01,2014-01-01T00:00:00Z,H,2014-07-09,2014-07-09T23:59:59Z,H,COMPLETED,2014-07-09,,2014-01-01,2014-07-09,190,,,,,,,Disease Progression by Investigator,PD,Tumor Response,Investigator,RECIST 1.1,0,N,Y,,,,,,,,,,,,,
105,CDISCPILOT01,01-701-1097,1097,701,USA,,2014-01-01,2014-07-09,2014-01-01,2014-07-09,2014-07-09T09:39,,,,,,,,,,,,13,NA,2013-12-23,-9,68,YEARS,>64,M,WHITE,White,NOT HISPANIC OR LATINO,Y,Xanomeline Low Dose,Xan_Lo,Xanomeline Low Dose,Xan_Lo,Xanomeline Low Dose,Xanomeline Low Dose,2014-01-01,2014-01-01T00:00:00Z,H,2014-07-09,2014-07-09T23:59:59Z,H,COMPLETED,2014-07-09,,2014-01-01,2014-07-09,190,,,,,,,Response by Investigator (confirmation not required),RSP,Tumor Response,Investigator,RECIST 1.1,0,N,Y,,,,,,,,,,,,,
106,CDISCPILOT01,01-701-1111,1111,701,USA,,2012-09-07,2012-09-17,2012-09-07,2012-09-16,2013-02-22,,2013-02-22,,,,,,,,,,1,NA,2012-08-25,-13,81,YEARS,>64,F,WHITE,White,NOT HISPANIC OR LATINO,Y,Xanomeline Low Dose,Xan_Lo,Xanomeline Low Dose,Xan_Lo,Xanomeline Low Dose,Xanomeline Low Dose,2012-09-07,2012-09-07T00:00:00Z,H,2012-09-16,2012-09-16T23:59:59Z,H,DISCONTINUED,2012-09-17,,2012-09-07,2012-09-17,10,,,,,,,Best Overall Response of CR/PR by Investigator (confirmation not required),BCP,Tumor Response,Investigator,RECIST 1.1,0,N,Y,,,,,,,,,,,,,
107,CDISCPILOT01,01-701-1111,1111,701,USA,,2012-09-07,2012-09-17,2012-09-07,2012-09-16,2013-02-22,,2013-02-22,,,,,,,,,,2,NA,2012-08-25,-13,81,YEARS,>64,F,WHITE,White,NOT HISPANIC OR LATINO,Y,Xanomeline Low Dose,Xan_Lo,Xanomeline Low Dose,Xan_Lo,Xanomeline Low Dose,Xanomeline Low Dose,2012-09-07,2012-09-07T00:00:00Z,H,2012-09-16,2012-09-16T23:59:59Z,H,DISCONTINUED,2012-09-17,,2012-09-07,2012-09-17,10,,,,,,,Best Overall Response by Investigator (confirmation not required),BOR,Tumor Response,Investigator,RECIST 1.1,7,MISSING,Y,,,,,,,,,,,,,
108,CDISCPILOT01,01-701-1111,1111,701,USA,,2012-09-07,2012-09-17,2012-09-07,2012-09-16,2013-02-22,,2013-02-22,,,,,,,,,,3,NA,2012-08-25,-13,81,YEARS,>64,F,WHITE,White,NOT HISPANIC OR LATINO,Y,Xanomeline Low Dose,Xan_Lo,Xanomeline Low Dose,Xan_Lo,Xanomeline Low Dose,Xanomeline Low Dose,2012-09-07,2012-09-07T00:00:00Z,H,2012-09-16,2012-09-16T23:59:59Z,H,DISCONTINUED,2012-09-17,,2012-09-07,2012-09-17,10,,,,,,,Clinical Benefit by Investigator (confirmation for response not required),CB,Tumor Response,Investigator,RECIST 1.1,0,N,Y,,,,,,,,,,,,,
109,CDISCPILOT01,01-701-1111,1111,701,USA,,2012-09-07,2012-09-17,2012-09-07,2012-09-16,2013-02-22,,2013-02-22,,,,,,,,,,4,NA,2012-08-25,-13,81,YEARS,>64,F,WHITE,White,NOT HISPANIC OR LATINO,Y,Xanomeline Low Dose,Xan_Lo,Xanomeline Low Dose,Xan_Lo,Xanomeline Low Dose,Xanomeline Low Dose,2012-09-07,2012-09-07T00:00:00Z,H,2012-09-16,2012-09-16T23:59:59Z,H,DISCONTINUED,2012-09-17,,2012-09-07,2012-09-17,10,,,,,,,Best Confirmed Overall Response of CR/PR by Investigator,CBCP,Tumor Response,Investigator,RECIST 1.1,0,N,Y,,,,,,,,,,,,,
110,CDISCPILOT01,01-701-1111,1111,701,USA,,2012-09-07,2012-09-17,2012-09-07,2012-09-16,2013-02-22,,2013-02-22,,,,,,,,,,5,NA,2012-08-25,-13,81,YEARS,>64,F,WHITE,White,NOT HISPANIC OR LATINO,Y,Xanomeline Low Dose,Xan_Lo,Xanomeline Low Dose,Xan_Lo,Xanomeline Low Dose,Xanomeline Low Dose,2012-09-07,2012-09-07T00:00:00Z,H,2012-09-16,2012-09-16T23:59:59Z,H,DISCONTINUED,2012-09-17,,2012-09-07,2012-09-17,10,,,,,,,Best Confirmed Overall Response by Investigator,CBOR,Tumor Response,Investigator,RECIST 1.1,7,MISSING,Y,,,,,,,,,,,,,
111,CDISCPILOT01,01-701-1111,1111,701,USA,,2012-09-07,2012-09-17,2012-09-07,2012-09-16,2013-02-22,,2013-02-22,,,,,,,,,,6,NA,2012-08-25,-13,81,YEARS,>64,F,WHITE,White,NOT HISPANIC OR LATINO,Y,Xanomeline Low Dose,Xan_Lo,Xanomeline Low Dose,Xan_Lo,Xanomeline Low Dose,Xanomeline Low Dose,2012-09-07,2012-09-07T00:00:00Z,H,2012-09-16,2012-09-16T23:59:59Z,H,DISCONTINUED,2012-09-17,,2012-09-07,2012-09-17,10,,,,,,,Confirmed Clinical Benefit by Investigator,CCB,Tumor Response,Investigator,RECIST 1.1,0,N,Y,,,,,,,,,,,,,
112,CDISCPILOT01,01-701-1111,1111,701,USA,,2012-09-07,2012-09-17,2012-09-07,2012-09-16,2013-02-22,,2013-02-22,,,,,,,,,,7,NA,2012-08-25,-13,81,YEARS,>64,F,WHITE,White,NOT HISPANIC OR LATINO,Y,Xanomeline Low Dose,Xan_Lo,Xanomeline Low Dose,Xan_Lo,Xanomeline Low Dose,Xanomeline Low Dose,2012-09-07,2012-09-07T00:00:00Z,H,2012-09-16,2012-09-16T23:59:59Z,H,DISCONTINUED,2012-09-17,,2012-09-07,2012-09-17,10,,,,,,,Confirmed Response by Investigator,CRSP,Tumor Response,Investigator,RECIST 1.1,0,N,Y,,,,,,,,,,,,,
113,CDISCPILOT01,01-701-1111,1111,701,USA,,2012-09-07,2012-09-17,2012-09-07,2012-09-16,2013-02-22,,2013-02-22,,,,,,,,,,8,NA,2012-08-25,-13,81,YEARS,>64,F,WHITE,White,NOT HISPANIC OR LATINO,Y,Xanomeline Low Dose,Xan_Lo,Xanomeline Low Dose,Xan_Lo,Xanomeline Low Dose,Xanomeline Low Dose,2012-09-07,2012-09-07T00:00:00Z,H,2012-09-16,2012-09-16T23:59:59Z,H,DISCONTINUED,2012-09-17,,2012-09-07,2012-09-17,10,,,,,,,Death,DEATH,Reference Event,,,0,N,Y,,,,,,,,,,,,,
114,CDISCPILOT01,01-701-1111,1111,701,USA,,2012-09-07,2012-09-17,2012-09-07,2012-09-16,2013-02-22,,2013-02-22,,,,,,,,,,9,NA,2012-08-25,-13,81,YEARS,>64,F,WHITE,White,NOT HISPANIC OR LATINO,Y,Xanomeline Low Dose,Xan_Lo,Xanomeline Low Dose,Xan_Lo,Xanomeline Low Dose,Xanomeline Low Dose,2012-09-07,2012-09-07T00:00:00Z,H,2012-09-16,2012-09-16T23:59:59Z,H,DISCONTINUED,2012-09-17,,2012-09-07,2012-09-17,10,,,,,,,Last Disease Assessment by Investigator,LSTA,Tumor Response,Investigator,RECIST 1.1,,,Y,,,,,,,,,,,,,
115,CDISCPILOT01,01-701-1111,1111,701,USA,,2012-09-07,2012-09-17,2012-09-07,2012-09-16,2013-02-22,,2013-02-22,,,,,,,,,,10,NA,2012-08-25,-13,81,YEARS,>64,F,WHITE,White,NOT HISPANIC OR LATINO,Y,Xanomeline Low Dose,Xan_Lo,Xanomeline Low Dose,Xan_Lo,Xanomeline Low Dose,Xanomeline Low Dose,2012-09-07,2012-09-07T00:00:00Z,H,2012-09-16,2012-09-16T23:59:59Z,H,DISCONTINUED,2012-09-17,,,2012-09-17,10,,,,,,,Measurable Disease at Baseline by Investigator,MDIS,,Investigator,RECIST 1.1,0,N,Y,,,,,,,,,,,,,
116,CDISCPILOT01,01-701-1111,1111,701,USA,,2012-09-07,2012-09-17,2012-09-07,2012-09-16,2013-02-22,,2013-02-22,,,,,,,,,,11,NA,2012-08-25,-13,81,YEARS,>64,F,WHITE,White,NOT HISPANIC OR LATINO,Y,Xanomeline Low Dose,Xan_Lo,Xanomeline Low Dose,Xan_Lo,Xanomeline Low Dose,Xanomeline Low Dose,2012-09-07,2012-09-07T00:00:00Z,H,2012-09-16,2012-09-16T23:59:59Z,H,DISCONTINUED,2012-09-17,,2012-09-07,2012-09-17,10,,,,,,,Disease Progression by Investigator,PD,Tumor Response,Investigator,RECIST 1.1,0,N,Y,,,,,,,,,,,,,
117,CDISCPILOT01,01-701-1111,1111,701,USA,,2012-09-07,2012-09-17,2012-09-07,2012-09-16,2013-02-22,,2013-02-22,,,,,,,,,,12,NA,2012-08-25,-13,81,YEARS,>64,F,WHITE,White,NOT HISPANIC OR LATINO,Y,Xanomeline Low Dose,Xan_Lo,Xanomeline Low Dose,Xan_Lo,Xanomeline Low Dose,Xanomeline Low Dose,2012-09-07,2012-09-07T00:00:00Z,H,2012-09-16,2012-09-16T23:59:59Z,H,DISCONTINUED,2012-09-17,,2012-09-07,2012-09-17,10,,,,,,,Response by Investigator (confirmation not required),RSP,Tumor Response,Investigator,RECIST 1.1,0,N,Y,,,,,,,,,,,,,
118,CDISCPILOT01,01-701-1115,1115,701,USA,RS,2012-11-30,2013-01-23,2012-11-30,2013-01-23,2013-05-20,,2013-05-20,,,,,,,,,,1,NA,2012-11-23,-7,84,YEARS,>64,M,WHITE,White,NOT HISPANIC OR LATINO,Y,Xanomeline Low Dose,Xan_Lo,Xanomeline Low Dose,Xan_Lo,Xanomeline Low Dose,Xanomeline Low Dose,2012-11-30,2012-11-30T00:00:00Z,H,2013-01-23,2013-01-23T23:59:59Z,H,DISCONTINUED,2013-01-23,,2012-11-30,2013-01-23,55,,,,2013-02-01,,WEEK 9,Best Overall Response of CR/PR by Investigator (confirmation not required),BCP,Tumor Response,Investigator,RECIST 1.1,1,Y,Y,Y,4,WEEK 9,OVRLRESP,Overall Response,CR,CR,INVESTIGATOR,,,2013-02-01,9,
119,CDISCPILOT01,01-701-1115,1115,701,USA,RS,2012-11-30,2013-01-23,2012-11-30,2013-01-23,2013-05-20,,2013-05-20,,,,,,,,,,2,NA,2012-11-23,-7,84,YEARS,>64,M,WHITE,White,NOT HISPANIC OR LATINO,Y,Xanomeline Low Dose,Xan_Lo,Xanomeline Low Dose,Xan_Lo,Xanomeline Low Dose,Xanomeline Low Dose,2012-11-30,2012-11-30T00:00:00Z,H,2013-01-23,2013-01-23T23:59:59Z,H,DISCONTINUED,2013-01-23,,2012-11-30,2013-01-23,55,,,,2013-02-01,,WEEK 9,Best Overall Response by Investigator (confirmation not required),BOR,Tumor Response,Investigator,RECIST 1.1,1,CR,Y,Y,4,WEEK 9,OVRLRESP,Overall Response,CR,CR,INVESTIGATOR,,,2013-02-01,9,
120,CDISCPILOT01,01-701-1115,1115,701,USA,RS,2012-11-30,2013-01-23,2012-11-30,2013-01-23,2013-05-20,,2013-05-20,,,,,,,,,,3,NA,2012-11-23,-7,84,YEARS,>64,M,WHITE,White,NOT HISPANIC OR LATINO,Y,Xanomeline Low Dose,Xan_Lo,Xanomeline Low Dose,Xan_Lo,Xanomeline Low Dose,Xanomeline Low Dose,2012-11-30,2012-11-30T00:00:00Z,H,2013-01-23,2013-01-23T23:59:59Z,H,DISCONTINUED,2013-01-23,,2012-11-30,2013-01-23,55,,,,2013-01-11,,WEEK 6,Clinical Benefit by Investigator (confirmation for response not required),CB,Tumor Response,Investigator,RECIST 1.1,1,Y,Y,Y,3,WEEK 6,OVRLRESP,Overall Response,PR,PR,INVESTIGATOR,,,2013-01-11,6,
121,CDISCPILOT01,01-701-1115,1115,701,USA,,2012-11-30,2013-01-23,2012-11-30,2013-01-23,2013-05-20,,2013-05-20,,,,,,,,,,4,NA,2012-11-23,-7,84,YEARS,>64,M,WHITE,White,NOT HISPANIC OR LATINO,Y,Xanomeline Low Dose,Xan_Lo,Xanomeline Low Dose,Xan_Lo,Xanomeline Low Dose,Xanomeline Low Dose,2012-11-30,2012-11-30T00:00:00Z,H,2013-01-23,2013-01-23T23:59:59Z,H,DISCONTINUED,2013-01-23,,2012-11-30,2013-01-23,55,,,,,,,Best Confirmed Overall Response of CR/PR by Investigator,CBCP,Tumor Response,Investigator,RECIST 1.1,0,N,Y,,,,,,,,,,,,,
122,CDISCPILOT01,01-701-1115,1115,701,USA,RS,2012-11-30,2013-01-23,2012-11-30,2013-01-23,2013-05-20,,2013-05-20,,,,,,,,,,5,NA,2012-11-23,-7,84,YEARS,>64,M,WHITE,White,NOT HISPANIC OR LATINO,Y,Xanomeline Low Dose,Xan_Lo,Xanomeline Low Dose,Xan_Lo,Xanomeline Low Dose,Xanomeline Low Dose,2012-11-30,2012-11-30T00:00:00Z,H,2013-01-23,2013-01-23T23:59:59Z,H,DISCONTINUED,2013-01-23,,2012-11-30,2013-01-23,55,,,,2013-01-11,,WEEK 6,Best Confirmed Overall Response by Investigator,CBOR,Tumor Response,Investigator,RECIST 1.1,3,SD,Y,Y,3,WEEK 6,OVRLRESP,Overall Response,PR,PR,INVESTIGATOR,,,2013-01-11,6,
123,CDISCPILOT01,01-701-1115,1115,701,USA,RS,2012-11-30,2013-01-23,2012-11-30,2013-01-23,2013-05-20,,2013-05-20,,,,,,,,,,6,NA,2012-11-23,-7,84,YEARS,>64,M,WHITE,White,NOT HISPANIC OR LATINO,Y,Xanomeline Low Dose,Xan_Lo,Xanomeline Low Dose,Xan_Lo,Xanomeline Low Dose,Xanomeline Low Dose,2012-11-30,2012-11-30T00:00:00Z,H,2013-01-23,2013-01-23T23:59:59Z,H,DISCONTINUED,2013-01-23,,2012-11-30,2013-01-23,55,,,,2013-01-11,,WEEK 6,Confirmed Clinical Benefit by Investigator,CCB,Tumor Response,Investigator,RECIST 1.1,1,Y,Y,Y,3,WEEK 6,OVRLRESP,Overall Response,PR,PR,INVESTIGATOR,,,2013-01-11,6,
124,CDISCPILOT01,01-701-1115,1115,701,USA,,2012-11-30,2013-01-23,2012-11-30,2013-01-23,2013-05-20,,2013-05-20,,,,,,,,,,7,NA,2012-11-23,-7,84,YEARS,>64,M,WHITE,White,NOT HISPANIC OR LATINO,Y,Xanomeline Low Dose,Xan_Lo,Xanomeline Low Dose,Xan_Lo,Xanomeline Low Dose,Xanomeline Low Dose,2012-11-30,2012-11-30T00:00:00Z,H,2013-01-23,2013-01-23T23:59:59Z,H,DISCONTINUED,2013-01-23,,2012-11-30,2013-01-23,55,,,,,,,Confirmed Response by Investigator,CRSP,Tumor Response,Investigator,RECIST 1.1,0,N,Y,,,,,,,,,,,,,
125,CDISCPILOT01,01-701-1115,1115,701,USA,,2012-11-30,2013-01-23,2012-11-30,2013-01-23,2013-05-20,,2013-05-20,,,,,,,,,,8,NA,2012-11-23,-7,84,YEARS,>64,M,WHITE,White,NOT HISPANIC OR LATINO,Y,Xanomeline Low Dose,Xan_Lo,Xanomeline Low Dose,Xan_Lo,Xanomeline Low Dose,Xanomeline Low Dose,2012-11-30,2012-11-30T00:00:00Z,H,2013-01-23,2013-01-23T23:59:59Z,H,DISCONTINUED,2013-01-23,,2012-11-30,2013-01-23,55,,,,,,,Death,DEATH,Reference Event,,,0,N,Y,,,,,,,,,,,,,
126,CDISCPILOT01,01-701-1115,1115,701,USA,RS,2012-11-30,2013-01-23,2012-11-30,2013-01-23,2013-05-20,,2013-05-20,,,,,,,,,,9,NA,2012-11-23,-7,84,YEARS,>64,M,WHITE,White,NOT HISPANIC OR LATINO,Y,Xanomeline Low Dose,Xan_Lo,Xanomeline Low Dose,Xan_Lo,Xanomeline Low Dose,Xanomeline Low Dose,2012-11-30,2012-11-30T00:00:00Z,H,2013-01-23,2013-01-23T23:59:59Z,H,DISCONTINUED,2013-01-23,,2012-11-30,2013-01-23,55,,,,2013-02-01,,WEEK 9,Last Disease Assessment by Investigator,LSTA,Tumor Response,Investigator,RECIST 1.1,1,CR,Y,Y,4,WEEK 9,OVRLRESP,Overall Response,CR,CR,INVESTIGATOR,,,2013-02-01,9,
127,CDISCPILOT01,01-701-1115,1115,701,USA,,2012-11-30,2013-01-23,2012-11-30,2013-01-23,2013-05-20,,2013-05-20,,,,,,,,,,10,NA,2012-11-23,-7,84,YEARS,>64,M,WHITE,White,NOT HISPANIC OR LATINO,Y,Xanomeline Low Dose,Xan_Lo,Xanomeline Low Dose,Xan_Lo,Xanomeline Low Dose,Xanomeline Low Dose,2012-11-30,2012-11-30T00:00:00Z,H,2013-01-23,2013-01-23T23:59:59Z,H,DISCONTINUED,2013-01-23,,,2013-01-23,55,,,,,,,Measurable Disease at Baseline by Investigator,MDIS,,Investigator,RECIST 1.1,1,Y,Y,,,,,,,,,,,,,
128,CDISCPILOT01,01-701-1115,1115,701,USA,RS,2012-11-30,2013-01-23,2012-11-30,2013-01-23,2013-05-20,,2013-05-20,,,,,,,,,,11,NA,2012-11-23,-7,84,YEARS,>64,M,WHITE,White,NOT HISPANIC OR LATINO,Y,Xanomeline Low Dose,Xan_Lo,Xanomeline Low Dose,Xan_Lo,Xanomeline Low Dose,Xanomeline Low Dose,2012-11-30,2012-11-30T00:00:00Z,H,2013-01-23,2013-01-23T23:59:59Z,H,DISCONTINUED,2013-01-23,,2012-11-30,2013-01-23,55,,,,2012-12-21,,WEEK 3,Overall Response by Investigator,OVR,Tumor Response,Investigator,RECIST 1.1,3,SD,Y,Y,2,WEEK 3,OVRLRESP,Overall Response,SD,SD,INVESTIGATOR,,,2012-12-21,3,
129,CDISCPILOT01,01-701-1115,1115,701,USA,RS,2012-11-30,2013-01-23,2012-11-30,2013-01-23,2013-05-20,,2013-05-20,,,,,,,,,,12,NA,2012-11-23,-7,84,YEARS,>64,M,WHITE,White,NOT HISPANIC OR LATINO,Y,Xanomeline Low Dose,Xan_Lo,Xanomeline Low Dose,Xan_Lo,Xanomeline Low Dose,Xanomeline Low Dose,2012-11-30,2012-11-30T00:00:00Z,H,2013-01-23,2013-01-23T23:59:59Z,H,DISCONTINUED,2013-01-23,,2012-11-30,2013-01-23,55,,,,2013-01-11,,WEEK 6,Overall Response by Investigator,OVR,Tumor Response,Investigator,RECIST 1.1,2,PR,Y,Y,3,WEEK 6,OVRLRESP,Overall Response,PR,PR,INVESTIGATOR,,,2013-01-11,6,
130,CDISCPILOT01,01-701-1115,1115,701,USA,RS,2012-11-30,2013-01-23,2012-11-30,2013-01-23,2013-05-20,,2013-05-20,,,,,,,,,,13,NA,2012-11-23,-7,84,YEARS,>64,M,WHITE,White,NOT HISPANIC OR LATINO,Y,Xanomeline Low Dose,Xan_Lo,Xanomeline Low Dose,Xan_Lo,Xanomeline Low Dose,Xanomeline Low Dose,2012-11-30,2012-11-30T00:00:00Z,H,2013-01-23,2013-01-23T23:59:59Z,H,DISCONTINUED,2013-01-23,,2012-11-30,2013-01-23,55,,,,2013-02-01,,WEEK 9,Overall Response by Investigator,OVR,Tumor Response,Investigator,RECIST 1.1,1,CR,Y,Y,4,WEEK 9,OVRLRESP,Overall Response,CR,CR,INVESTIGATOR,,,2013-02-01,9,
131,CDISCPILOT01,01-701-1115,1115,701,USA,,2012-11-30,2013-01-23,2012-11-30,2013-01-23,2013-05-20,,2013-05-20,,,,,,,,,,14,NA,2012-11-23,-7,84,YEARS,>64,M,WHITE,White,NOT HISPANIC OR LATINO,Y,Xanomeline Low Dose,Xan_Lo,Xanomeline Low Dose,Xan_Lo,Xanomeline Low Dose,Xanomeline Low Dose,2012-11-30,2012-11-30T00:00:00Z,H,2013-01-23,2013-01-23T23:59:59Z,H,DISCONTINUED,2013-01-23,,2012-11-30,2013-01-23,55,,,,,,,Disease Progression by Investigator,PD,Tumor Response,Investigator,RECIST 1.1,0,N,Y,,,,,,,,,,,,,
132,CDISCPILOT01,01-701-1115,1115,701,USA,RS,2012-11-30,2013-01-23,2012-11-30,2013-01-23,2013-05-20,,2013-05-20,,,,,,,,,,15,NA,2012-11-23,-7,84,YEARS,>64,M,WHITE,White,NOT HISPANIC OR LATINO,Y,Xanomeline Low Dose,Xan_Lo,Xanomeline Low Dose,Xan_Lo,Xanomeline Low Dose,Xanomeline Low Dose,2012-11-30,2012-11-30T00:00:00Z,H,2013-01-23,2013-01-23T23:59:59Z,H,DISCONTINUED,2013-01-23,,2012-11-30,2013-01-23,55,,,,2013-01-11,,WEEK 6,Response by Investigator (confirmation not required),RSP,Tumor Response,Investigator,RECIST 1.1,1,Y,Y,Y,3,WEEK 6,OVRLRESP,Overall Response,PR,PR,INVESTIGATOR,,,2013-01-11,6,
133,CDISCPILOT01,01-701-1118,1118,701,USA,RS,2014-03-12,2014-09-09,2014-03-12,2014-09-09,2014-09-09T13:28,,,,,,,,,,,,1,NA,2014-02-27,-13,52,YEARS,18-64,M,WHITE,White,NOT HISPANIC OR LATINO,Y,Placebo,Pbo,Placebo,Pbo,Placebo,Placebo,2014-03-12,2014-03-12T00:00:00Z,H,2014-09-09,2014-09-09T23:59:59Z,H,COMPLETED,2014-09-09,,2014-03-12,2014-09-09,182,,,,2014-04-23,,WEEK 6,Best Overall Response of CR/PR by Investigator (confirmation not required),BCP,Tumor Response,Investigator,RECIST 1.1,1,Y,Y,Y,3,WEEK 6,OVRLRESP,Overall Response,PR,PR,INVESTIGATOR,,,2014-04-23,6,
134,CDISCPILOT01,01-701-1118,1118,701,USA,RS,2014-03-12,2014-09-09,2014-03-12,2014-09-09,2014-09-09T13:28,,,,,,,,,,,,2,NA,2014-02-27,-13,52,YEARS,18-64,M,WHITE,White,NOT HISPANIC OR LATINO,Y,Placebo,Pbo,Placebo,Pbo,Placebo,Placebo,2014-03-12,2014-03-12T00:00:00Z,H,2014-09-09,2014-09-09T23:59:59Z,H,COMPLETED,2014-09-09,,2014-03-12,2014-09-09,182,,,,2014-04-23,,WEEK 6,Best Overall Response by Investigator (confirmation not required),BOR,Tumor Response,Investigator,RECIST 1.1,2,PR,Y,Y,3,WEEK 6,OVRLRESP,Overall Response,PR,PR,INVESTIGATOR,,,2014-04-23,6,
135,CDISCPILOT01,01-701-1118,1118,701,USA,RS,2014-03-12,2014-09-09,2014-03-12,2014-09-09,2014-09-09T13:28,,,,,,,,,,,,3,NA,2014-02-27,-13,52,YEARS,18-64,M,WHITE,White,NOT HISPANIC OR LATINO,Y,Placebo,Pbo,Placebo,Pbo,Placebo,Placebo,2014-03-12,2014-03-12T00:00:00Z,H,2014-09-09,2014-09-09T23:59:59Z,H,COMPLETED,2014-09-09,,2014-03-12,2014-09-09,182,,,,2014-04-23,,WEEK 6,Clinical Benefit by Investigator (confirmation for response not required),CB,Tumor Response,Investigator,RECIST 1.1,1,Y,Y,Y,3,WEEK 6,OVRLRESP,Overall Response,PR,PR,INVESTIGATOR,,,2014-04-23,6,
136,CDISCPILOT01,01-701-1118,1118,701,USA,,2014-03-12,2014-09-09,2014-03-12,2014-09-09,2014-09-09T13:28,,,,,,,,,,,,4,NA,2014-02-27,-13,52,YEARS,18-64,M,WHITE,White,NOT HISPANIC OR LATINO,Y,Placebo,Pbo,Placebo,Pbo,Placebo,Placebo,2014-03-12,2014-03-12T00:00:00Z,H,2014-09-09,2014-09-09T23:59:59Z,H,COMPLETED,2014-09-09,,2014-03-12,2014-09-09,182,,,,,,,Best Confirmed Overall Response of CR/PR by Investigator,CBCP,Tumor Response,Investigator,RECIST 1.1,0,N,Y,,,,,,,,,,,,,
137,CDISCPILOT01,01-701-1118,1118,701,USA,RS,2014-03-12,2014-09-09,2014-03-12,2014-09-09,2014-09-09T13:28,,,,,,,,,,,,5,NA,2014-02-27,-13,52,YEARS,18-64,M,WHITE,White,NOT HISPANIC OR LATINO,Y,Placebo,Pbo,Placebo,Pbo,Placebo,Placebo,2014-03-12,2014-03-12T00:00:00Z,H,2014-09-09,2014-09-09T23:59:59Z,H,COMPLETED,2014-09-09,,2014-03-12,2014-09-09,182,,,,2014-04-23,,WEEK 6,Best Confirmed Overall Response by Investigator,CBOR,Tumor Response,Investigator,RECIST 1.1,2,PR,Y,Y,3,WEEK 6,OVRLRESP,Overall Response,PR,PR,INVESTIGATOR,,,2014-04-23,6,
138,CDISCPILOT01,01-701-1118,1118,701,USA,RS,2014-03-12,2014-09-09,2014-03-12,2014-09-09,2014-09-09T13:28,,,,,,,,,,,,6,NA,2014-02-27,-13,52,YEARS,18-64,M,WHITE,White,NOT HISPANIC OR LATINO,Y,Placebo,Pbo,Placebo,Pbo,Placebo,Placebo,2014-03-12,2014-03-12T00:00:00Z,H,2014-09-09,2014-09-09T23:59:59Z,H,COMPLETED,2014-09-09,,2014-03-12,2014-09-09,182,,,,2014-04-23,,WEEK 6,Confirmed Clinical Benefit by Investigator,CCB,Tumor Response,Investigator,RECIST 1.1,1,Y,Y,Y,3,WEEK 6,OVRLRESP,Overall Response,PR,PR,INVESTIGATOR,,,2014-04-23,6,
139,CDISCPILOT01,01-701-1118,1118,701,USA,RS,2014-03-12,2014-09-09,2014-03-12,2014-09-09,2014-09-09T13:28,,,,,,,,,,,,7,NA,2014-02-27,-13,52,YEARS,18-64,M,WHITE,White,NOT HISPANIC OR LATINO,Y,Placebo,Pbo,Placebo,Pbo,Placebo,Placebo,2014-03-12,2014-03-12T00:00:00Z,H,2014-09-09,2014-09-09T23:59:59Z,H,COMPLETED,2014-09-09,,2014-03-12,2014-09-09,182,,,,2014-04-23,,WEEK 6,Confirmed Response by Investigator,CRSP,Tumor Response,Investigator,RECIST 1.1,1,Y,Y,Y,3,WEEK 6,OVRLRESP,Overall Response,PR,PR,INVESTIGATOR,,,2014-04-23,6,
140,CDISCPILOT01,01-701-1118,1118,701,USA,,2014-03-12,2014-09-09,2014-03-12,2014-09-09,2014-09-09T13:28,,,,,,,,,,,,8,NA,2014-02-27,-13,52,YEARS,18-64,M,WHITE,White,NOT HISPANIC OR LATINO,Y,Placebo,Pbo,Placebo,Pbo,Placebo,Placebo,2014-03-12,2014-03-12T00:00:00Z,H,2014-09-09,2014-09-09T23:59:59Z,H,COMPLETED,2014-09-09,,2014-03-12,2014-09-09,182,,,,,,,Death,DEATH,Reference Event,,,0,N,Y,,,,,,,,,,,,,
141,CDISCPILOT01,01-701-1118,1118,701,USA,RS,2014-03-12,2014-09-09,2014-03-12,2014-09-09,2014-09-09T13:28,,,,,,,,,,,,9,NA,2014-02-27,-13,52,YEARS,18-64,M,WHITE,White,NOT HISPANIC OR LATINO,Y,Placebo,Pbo,Placebo,Pbo,Placebo,Placebo,2014-03-12,2014-03-12T00:00:00Z,H,2014-09-09,2014-09-09T23:59:59Z,H,COMPLETED,2014-09-09,,2014-03-12,2014-09-09,182,,,,2014-06-04,,WEEK 12,Last Disease Assessment by Investigator,LSTA,Tumor Response,Investigator,RECIST 1.1,2,PR,Y,Y,5,WEEK 12,OVRLRESP,Overall Response,PR,PR,INVESTIGATOR,,,2014-06-04,12,
142,CDISCPILOT01,01-701-1118,1118,701,USA,,2014-03-12,2014-09-09,2014-03-12,2014-09-09,2014-09-09T13:28,,,,,,,,,,,,10,NA,2014-02-27,-13,52,YEARS,18-64,M,WHITE,White,NOT HISPANIC OR LATINO,Y,Placebo,Pbo,Placebo,Pbo,Placebo,Placebo,2014-03-12,2014-03-12T00:00:00Z,H,2014-09-09,2014-09-09T23:59:59Z,H,COMPLETED,2014-09-09,,,2014-09-09,182,,,,,,,Measurable Disease at Baseline by Investigator,MDIS,,Investigator,RECIST 1.1,1,Y,Y,,,,,,,,,,,,,
143,CDISCPILOT01,01-701-1118,1118,701,USA,RS,2014-03-12,2014-09-09,2014-03-12,2014-09-09,2014-09-09T13:28,,,,,,,,,,,,11,NA,2014-02-27,-13,52,YEARS,18-64,M,WHITE,White,NOT HISPANIC OR LATINO,Y,Placebo,Pbo,Placebo,Pbo,Placebo,Placebo,2014-03-12,2014-03-12T00:00:00Z,H,2014-09-09,2014-09-09T23:59:59Z,H,COMPLETED,2014-09-09,,2014-03-12,2014-09-09,182,,,,2014-04-02,,WEEK 3,Overall Response by Investigator,OVR,Tumor Response,Investigator,RECIST 1.1,3,SD,Y,Y,2,WEEK 3,OVRLRESP,Overall Response,SD,SD,INVESTIGATOR,,,2014-04-02,3,
144,CDISCPILOT01,01-701-1118,1118,701,USA,RS,2014-03-12,2014-09-09,2014-03-12,2014-09-09,2014-09-09T13:28,,,,,,,,,,,,12,NA,2014-02-27,-13,52,YEARS,18-64,M,WHITE,White,NOT HISPANIC OR LATINO,Y,Placebo,Pbo,Placebo,Pbo,Placebo,Placebo,2014-03-12,2014-03-12T00:00:00Z,H,2014-09-09,2014-09-09T23:59:59Z,H,COMPLETED,2014-09-09,,2014-03-12,2014-09-09,182,,,,2014-04-23,,WEEK 6,Overall Response by Investigator,OVR,Tumor Response,Investigator,RECIST 1.1,2,PR,Y,Y,3,WEEK 6,OVRLRESP,Overall Response,PR,PR,INVESTIGATOR,,,2014-04-23,6,
145,CDISCPILOT01,01-701-1118,1118,701,USA,RS,2014-03-12,2014-09-09,2014-03-12,2014-09-09,2014-09-09T13:28,,,,,,,,,,,,13,NA,2014-02-27,-13,52,YEARS,18-64,M,WHITE,White,NOT HISPANIC OR LATINO,Y,Placebo,Pbo,Placebo,Pbo,Placebo,Placebo,2014-03-12,2014-03-12T00:00:00Z,H,2014-09-09,2014-09-09T23:59:59Z,H,COMPLETED,2014-09-09,,2014-03-12,2014-09-09,182,,,,2014-05-14,,WEEK 9,Overall Response by Investigator,OVR,Tumor Response,Investigator,RECIST 1.1,6,NE,Y,Y,4,WEEK 9,OVRLRESP,Overall Response,NE,NE,INVESTIGATOR,,,2014-05-14,9,
146,CDISCPILOT01,01-701-1118,1118,701,USA,RS,2014-03-12,2014-09-09,2014-03-12,2014-09-09,2014-09-09T13:28,,,,,,,,,,,,14,NA,2014-02-27,-13,52,YEARS,18-64,M,WHITE,White,NOT HISPANIC OR LATINO,Y,Placebo,Pbo,Placebo,Pbo,Placebo,Placebo,2014-03-12,2014-03-12T00:00:00Z,H,2014-09-09,2014-09-09T23:59:59Z,H,COMPLETED,2014-09-09,,2014-03-12,2014-09-09,182,,,,2014-06-04,,WEEK 12,Overall Response by Investigator,OVR,Tumor Response,Investigator,RECIST 1.1,2,PR,Y,Y,5,WEEK 12,OVRLRESP,Overall Response,PR,PR,INVESTIGATOR,,,2014-06-04,12,
147,CDISCPILOT01,01-701-1118,1118,701,USA,,2014-03-12,2014-09-09,2014-03-12,2014-09-09,2014-09-09T13:28,,,,,,,,,,,,15,NA,2014-02-27,-13,52,YEARS,18-64,M,WHITE,White,NOT HISPANIC OR LATINO,Y,Placebo,Pbo,Placebo,Pbo,Placebo,Placebo,2014-03-12,2014-03-12T00:00:00Z,H,2014-09-09,2014-09-09T23:59:59Z,H,COMPLETED,2014-09-09,,2014-03-12,2014-09-09,182,,,,,,,Disease Progression by Investigator,PD,Tumor Response,Investigator,RECIST 1.1,0,N,Y,,,,,,,,,,,,,
148,CDISCPILOT01,01-701-1118,1118,701,USA,RS,2014-03-12,2014-09-09,2014-03-12,2014-09-09,2014-09-09T13:28,,,,,,,,,,,,16,NA,2014-02-27,-13,52,YEARS,18-64,M,WHITE,White,NOT HISPANIC OR LATINO,Y,Placebo,Pbo,Placebo,Pbo,Placebo,Placebo,2014-03-12,2014-03-12T00:00:00Z,H,2014-09-09,2014-09-09T23:59:59Z,H,COMPLETED,2014-09-09,,2014-03-12,2014-09-09,182,,,,2014-04-23,,WEEK 6,Response by Investigator (confirmation not required),RSP,Tumor Response,Investigator,RECIST 1.1,1,Y,Y,Y,3,WEEK 6,OVRLRESP,Overall Response,PR,PR,INVESTIGATOR,,,2014-04-23,6,
149,CDISCPILOT01,01-701-1130,1130,701,USA,,2014-02-15,2014-08-16,2014-02-15,2014-08-16,2014-08-16T13:10,,,,,,,,,,,,1,NA,2014-02-09,-6,84,YEARS,>64,M,WHITE,White,NOT HISPANIC OR LATINO,Y,Placebo,Pbo,Placebo,Pbo,Placebo,Placebo,2014-02-15,2014-02-15T00:00:00Z,H,2014-08-16,2014-08-16T23:59:59Z,H,COMPLETED,2014-08-16,,2014-02-15,2014-08-16,183,,,,,,,Best Overall Response of CR/PR by Investigator (confirmation not required),BCP,Tumor Response,Investigator,RECIST 1.1,0,N,Y,,,,,,,,,,,,,
150,CDISCPILOT01,01-701-1130,1130,701,USA,RS,2014-02-15,2014-08-16,2014-02-15,2014-08-16,2014-08-16T13:10,,,,,,,,,,,,2,NA,2014-02-09,-6,84,YEARS,>64,M,WHITE,White,NOT HISPANIC OR LATINO,Y,Placebo,Pbo,Placebo,Pbo,Placebo,Placebo,2014-02-15,2014-02-15T00:00:00Z,H,2014-08-16,2014-08-16T23:59:59Z,H,COMPLETED,2014-08-16,,2014-02-15,2014-08-16,183,,,,2014-03-29,,WEEK 6,Best Overall Response by Investigator (confirmation not required),BOR,Tumor Response,Investigator,RECIST 1.1,3,SD,Y,Y,3,WEEK 6,OVRLRESP,Overall Response,SD,SD,INVESTIGATOR,,,2014-03-29,6,
151,CDISCPILOT01,01-701-1130,1130,701,USA,RS,2014-02-15,2014-08-16,2014-02-15,2014-08-16,2014-08-16T13:10,,,,,,,,,,,,3,NA,2014-02-09,-6,84,YEARS,>64,M,WHITE,White,NOT HISPANIC OR LATINO,Y,Placebo,Pbo,Placebo,Pbo,Placebo,Placebo,2014-02-15,2014-02-15T00:00:00Z,H,2014-08-16,2014-08-16T23:59:59Z,H,COMPLETED,2014-08-16,,2014-02-15,2014-08-16,183,,,,2014-03-29,,WEEK 6,Clinical Benefit by Investigator (confirmation for response not required),CB,Tumor Response,Investigator,RECIST 1.1,1,Y,Y,Y,3,WEEK 6,OVRLRESP,Overall Response,SD,SD,INVESTIGATOR,,,2014-03-29,6,
152,CDISCPILOT01,01-701-1130,1130,701,USA,,2014-02-15,2014-08-16,2014-02-15,2014-08-16,2014-08-16T13:10,,,,,,,,,,,,4,NA,2014-02-09,-6,84,YEARS,>64,M,WHITE,White,NOT HISPANIC OR LATINO,Y,Placebo,Pbo,Placebo,Pbo,Placebo,Placebo,2014-02-15,2014-02-15T00:00:00Z,H,2014-08-16,2014-08-16T23:59:59Z,H,COMPLETED,2014-08-16,,2014-02-15,2014-08-16,183,,,,,,,Best Confirmed Overall Response of CR/PR by Investigator,CBCP,Tumor Response,Investigator,RECIST 1.1,0,N,Y,,,,,,,,,,,,,
153,CDISCPILOT01,01-701-1130,1130,701,USA,RS,2014-02-15,2014-08-16,2014-02-15,2014-08-16,2014-08-16T13:10,,,,,,,,,,,,5,NA,2014-02-09,-6,84,YEARS,>64,M,WHITE,White,NOT HISPANIC OR LATINO,Y,Placebo,Pbo,Placebo,Pbo,Placebo,Placebo,2014-02-15,2014-02-15T00:00:00Z,H,2014-08-16,2014-08-16T23:59:59Z,H,COMPLETED,2014-08-16,,2014-02-15,2014-08-16,183,,,,2014-03-29,,WEEK 6,Best Confirmed Overall Response by Investigator,CBOR,Tumor Response,Investigator,RECIST 1.1,3,SD,Y,Y,3,WEEK 6,OVRLRESP,Overall Response,SD,SD,INVESTIGATOR,,,2014-03-29,6,
154,CDISCPILOT01,01-701-1130,1130,701,USA,RS,2014-02-15,2014-08-16,2014-02-15,2014-08-16,2014-08-16T13:10,,,,,,,,,,,,6,NA,2014-02-09,-6,84,YEARS,>64,M,WHITE,White,NOT HISPANIC OR LATINO,Y,Placebo,Pbo,Placebo,Pbo,Placebo,Placebo,2014-02-15,2014-02-15T00:00:00Z,H,2014-08-16,2014-08-16T23:59:59Z,H,COMPLETED,2014-08-16,,2014-02-15,2014-08-16,183,,,,2014-03-29,,WEEK 6,Confirmed Clinical Benefit by Investigator,CCB,Tumor Response,Investigator,RECIST 1.1,1,Y,Y,Y,3,WEEK 6,OVRLRESP,Overall Response,SD,SD,INVESTIGATOR,,,2014-03-29,6,
155,CDISCPILOT01,01-701-1130,1130,701,USA,,2014-02-15,2014-08-16,2014-02-15,2014-08-16,2014-08-16T13:10,,,,,,,,,,,,7,NA,2014-02-09,-6,84,YEARS,>64,M,WHITE,White,NOT HISPANIC OR LATINO,Y,Placebo,Pbo,Placebo,Pbo,Placebo,Placebo,2014-02-15,2014-02-15T00:00:00Z,H,2014-08-16,2014-08-16T23:59:59Z,H,COMPLETED,2014-08-16,,2014-02-15,2014-08-16,183,,,,,,,Confirmed Response by Investigator,CRSP,Tumor Response,Investigator,RECIST 1.1,0,N,Y,,,,,,,,,,,,,
156,CDISCPILOT01,01-701-1130,1130,701,USA,,2014-02-15,2014-08-16,2014-02-15,2014-08-16,2014-08-16T13:10,,,,,,,,,,,,8,NA,2014-02-09,-6,84,YEARS,>64,M,WHITE,White,NOT HISPANIC OR LATINO,Y,Placebo,Pbo,Placebo,Pbo,Placebo,Placebo,2014-02-15,2014-02-15T00:00:00Z,H,2014-08-16,2014-08-16T23:59:59Z,H,COMPLETED,2014-08-16,,2014-02-15,2014-08-16,183,,,,,,,Death,DEATH,Reference Event,,,0,N,Y,,,,,,,,,,,,,
157,CDISCPILOT01,01-701-1130,1130,701,USA,RS,2014-02-15,2014-08-16,2014-02-15,2014-08-16,2014-08-16T13:10,,,,,,,,,,,,9,NA,2014-02-09,-6,84,YEARS,>64,M,WHITE,White,NOT HISPANIC OR LATINO,Y,Placebo,Pbo,Placebo,Pbo,Placebo,Placebo,2014-02-15,2014-02-15T00:00:00Z,H,2014-08-16,2014-08-16T23:59:59Z,H,COMPLETED,2014-08-16,,2014-02-15,2014-08-16,183,,,,2014-04-19,,WEEK 9,Last Disease Assessment by Investigator,LSTA,Tumor Response,Investigator,RECIST 1.1,5,PD,Y,Y,4,WEEK 9,OVRLRESP,Overall Response,PD,PD,INVESTIGATOR,,,2014-04-19,9,
158,CDISCPILOT01,01-701-1130,1130,701,USA,,2014-02-15,2014-08-16,2014-02-15,2014-08-16,2014-08-16T13:10,,,,,,,,,,,,10,NA,2014-02-09,-6,84,YEARS,>64,M,WHITE,White,NOT HISPANIC OR LATINO,Y,Placebo,Pbo,Placebo,Pbo,Placebo,Placebo,2014-02-15,2014-02-15T00:00:00Z,H,2014-08-16,2014-08-16T23:59:59Z,H,COMPLETED,2014-08-16,,,2014-08-16,183,,,,,,,Measurable Disease at Baseline by Investigator,MDIS,,Investigator,RECIST 1.1,1,Y,Y,,,,,,,,,,,,,
159,CDISCPILOT01,01-701-1130,1130,701,USA,RS,2014-02-15,2014-08-16,2014-02-15,2014-08-16,2014-08-16T13:10,,,,,,,,,,,,11,NA,2014-02-09,-6,84,YEARS,>64,M,WHITE,White,NOT HISPANIC OR LATINO,Y,Placebo,Pbo,Placebo,Pbo,Placebo,Placebo,2014-02-15,2014-02-15T00:00:00Z,H,2014-08-16,2014-08-16T23:59:59Z,H,COMPLETED,2014-08-16,,2014-02-15,2014-08-16,183,,,,2014-03-08,,WEEK 3,Overall Response by Investigator,OVR,Tumor Response,Investigator,RECIST 1.1,3,SD,Y,Y,2,WEEK 3,OVRLRESP,Overall Response,SD,SD,INVESTIGATOR,,,2014-03-08,3,
160,CDISCPILOT01,01-701-1130,1130,701,USA,RS,2014-02-15,2014-08-16,2014-02-15,2014-08-16,2014-08-16T13:10,,,,,,,,,,,,12,NA,2014-02-09,-6,84,YEARS,>64,M,WHITE,White,NOT HISPANIC OR LATINO,Y,Placebo,Pbo,Placebo,Pbo,Placebo,Placebo,2014-02-15,2014-02-15T00:00:00Z,H,2014-08-16,2014-08-16T23:59:59Z,H,COMPLETED,2014-08-16,,2014-02-15,2014-08-16,183,,,,2014-03-29,,WEEK 6,Overall Response by Investigator,OVR,Tumor Response,Investigator,RECIST 1.1,3,SD,Y,Y,3,WEEK 6,OVRLRESP,Overall Response,SD,SD,INVESTIGATOR,,,2014-03-29,6,
161,CDISCPILOT01,01-701-1130,1130,701,USA,RS,2014-02-15,2014-08-16,2014-02-15,2014-08-16,2014-08-16T13:10,,,,,,,,,,,,13,NA,2014-02-09,-6,84,YEARS,>64,M,WHITE,White,NOT HISPANIC OR LATINO,Y,Placebo,Pbo,Placebo,Pbo,Placebo,Placebo,2014-02-15,2014-02-15T00:00:00Z,H,2014-08-16,2014-08-16T23:59:59Z,H,COMPLETED,2014-08-16,,2014-02-15,2014-08-16,183,,,,2014-04-19,,WEEK 9,Overall Response by Investigator,OVR,Tumor Response,Investigator,RECIST 1.1,5,PD,Y,Y,4,WEEK 9,OVRLRESP,Overall Response,PD,PD,INVESTIGATOR,,,2014-04-19,9,
162,CDISCPILOT01,01-701-1130,1130,701,USA,RS,2014-02-15,2014-08-16,2014-02-15,2014-08-16,2014-08-16T13:10,,,,,,,,,,,,14,NA,2014-02-09,-6,84,YEARS,>64,M,WHITE,White,NOT HISPANIC OR LATINO,Y,Placebo,Pbo,Placebo,Pbo,Placebo,Placebo,2014-02-15,2014-02-15T00:00:00Z,H,2014-08-16,2014-08-16T23:59:59Z,H,COMPLETED,2014-08-16,,2014-02-15,2014-08-16,183,,,,2014-04-19,,WEEK 9,Disease Progression by Investigator,PD,Tumor Response,Investigator,RECIST 1.1,1,Y,Y,Y,4,WEEK 9,OVRLRESP,Overall Response,PD,PD,INVESTIGATOR,,,2014-04-19,9,
163,CDISCPILOT01,01-701-1130,1130,701,USA,,2014-02-15,2014-08-16,2014-02-15,2014-08-16,2014-08-16T13:10,,,,,,,,,,,,15,NA,2014-02-09,-6,84,YEARS,>64,M,WHITE,White,NOT HISPANIC OR LATINO,Y,Placebo,Pbo,Placebo,Pbo,Placebo,Placebo,2014-02-15,2014-02-15T00:00:00Z,H,2014-08-16,2014-08-16T23:59:59Z,H,COMPLETED,2014-08-16,,2014-02-15,2014-08-16,183,,,,,,,Response by Investigator (confirmation not required),RSP,Tumor Response,Investigator,RECIST 1.1,0,N,Y,,,,,,,,,,,,,
164,CDISCPILOT01,01-701-1133,1133,701,USA,RS,2012-10-28,2013-04-29,2012-10-28,2013-04-28,2013-04-29T10:13,,,,,,,,,,,,1,NA,2012-10-23,-5,81,YEARS,>64,F,WHITE,White,NOT HISPANIC OR LATINO,Y,Xanomeline High Dose,Xan_Hi,Xanomeline High Dose,Xan_Hi,Xanomeline High Dose,Xanomeline High Dose,2012-10-28,2012-10-28T00:00:00Z,H,2013-04-28,2013-04-28T23:59:59Z,H,COMPLETED,2013-04-29,,2012-10-28,2013-04-29,183,,,,2012-12-09,,WEEK 6,Best Overall Response of CR/PR by Investigator (confirmation not required),BCP,Tumor Response,Investigator,RECIST 1.1,1,Y,Y,Y,3,WEEK 6,OVRLRESP,Overall Response,CR,CR,INVESTIGATOR,,,2012-12-09,6,
165,CDISCPILOT01,01-701-1133,1133,701,USA,RS,2012-10-28,2013-04-29,2012-10-28,2013-04-28,2013-04-29T10:13,,,,,,,,,,,,2,NA,2012-10-23,-5,81,YEARS,>64,F,WHITE,White,NOT HISPANIC OR LATINO,Y,Xanomeline High Dose,Xan_Hi,Xanomeline High Dose,Xan_Hi,Xanomeline High Dose,Xanomeline High Dose,2012-10-28,2012-10-28T00:00:00Z,H,2013-04-28,2013-04-28T23:59:59Z,H,COMPLETED,2013-04-29,,2012-10-28,2013-04-29,183,,,,2012-12-09,,WEEK 6,Best Overall Response by Investigator (confirmation not required),BOR,Tumor Response,Investigator,RECIST 1.1,1,CR,Y,Y,3,WEEK 6,OVRLRESP,Overall Response,CR,CR,INVESTIGATOR,,,2012-12-09,6,
166,CDISCPILOT01,01-701-1133,1133,701,USA,RS,2012-10-28,2013-04-29,2012-10-28,2013-04-28,2013-04-29T10:13,,,,,,,,,,,,3,NA,2012-10-23,-5,81,YEARS,>64,F,WHITE,White,NOT HISPANIC OR LATINO,Y,Xanomeline High Dose,Xan_Hi,Xanomeline High Dose,Xan_Hi,Xanomeline High Dose,Xanomeline High Dose,2012-10-28,2012-10-28T00:00:00Z,H,2013-04-28,2013-04-28T23:59:59Z,H,COMPLETED,2013-04-29,,2012-10-28,2013-04-29,183,,,,2012-11-18,,WEEK 3,Clinical Benefit by Investigator (confirmation for response not required),CB,Tumor Response,Investigator,RECIST 1.1,1,Y,Y,Y,2,WEEK 3,OVRLRESP,Overall Response,PR,PR,INVESTIGATOR,,,2012-11-18,3,
167,CDISCPILOT01,01-701-1133,1133,701,USA,,2012-10-28,2013-04-29,2012-10-28,2013-04-28,2013-04-29T10:13,,,,,,,,,,,,4,NA,2012-10-23,-5,81,YEARS,>64,F,WHITE,White,NOT HISPANIC OR LATINO,Y,Xanomeline High Dose,Xan_Hi,Xanomeline High Dose,Xan_Hi,Xanomeline High Dose,Xanomeline High Dose,2012-10-28,2012-10-28T00:00:00Z,H,2013-04-28,2013-04-28T23:59:59Z,H,COMPLETED,2013-04-29,,2012-10-28,2013-04-29,183,,,,,,,Best Confirmed Overall Response of CR/PR by Investigator,CBCP,Tumor Response,Investigator,RECIST 1.1,0,N,Y,,,,,,,,,,,,,
168,CDISCPILOT01,01-701-1133,1133,701,USA,RS,2012-10-28,2013-04-29,2012-10-28,2013-04-28,2013-04-29T10:13,,,,,,,,,,,,5,NA,2012-10-23,-5,81,YEARS,>64,F,WHITE,White,NOT HISPANIC OR LATINO,Y,Xanomeline High Dose,Xan_Hi,Xanomeline High Dose,Xan_Hi,Xanomeline High Dose,Xanomeline High Dose,2012-10-28,2012-10-28T00:00:00Z,H,2013-04-28,2013-04-28T23:59:59Z,H,COMPLETED,2013-04-29,,2012-10-28,2013-04-29,183,,,,2012-12-09,,WEEK 6,Best Confirmed Overall Response by Investigator,CBOR,Tumor Response,Investigator,RECIST 1.1,3,SD,Y,Y,3,WEEK 6,OVRLRESP,Overall Response,CR,CR,INVESTIGATOR,,,2012-12-09,6,
169,CDISCPILOT01,01-701-1133,1133,701,USA,RS,2012-10-28,2013-04-29,2012-10-28,2013-04-28,2013-04-29T10:13,,,,,,,,,,,,6,NA,2012-10-23,-5,81,YEARS,>64,F,WHITE,White,NOT HISPANIC OR LATINO,Y,Xanomeline High Dose,Xan_Hi,Xanomeline High Dose,Xan_Hi,Xanomeline High Dose,Xanomeline High Dose,2012-10-28,2012-10-28T00:00:00Z,H,2013-04-28,2013-04-28T23:59:59Z,H,COMPLETED,2013-04-29,,2012-10-28,2013-04-29,183,,,,2012-12-09,,WEEK 6,Confirmed Clinical Benefit by Investigator,CCB,Tumor Response,Investigator,RECIST 1.1,1,Y,Y,Y,3,WEEK 6,OVRLRESP,Overall Response,CR,CR,INVESTIGATOR,,,2012-12-09,6,
170,CDISCPILOT01,01-701-1133,1133,701,USA,,2012-10-28,2013-04-29,2012-10-28,2013-04-28,2013-04-29T10:13,,,,,,,,,,,,7,NA,2012-10-23,-5,81,YEARS,>64,F,WHITE,White,NOT HISPANIC OR LATINO,Y,Xanomeline High Dose,Xan_Hi,Xanomeline High Dose,Xan_Hi,Xanomeline High Dose,Xanomeline High Dose,2012-10-28,2012-10-28T00:00:00Z,H,2013-04-28,2013-04-28T23:59:59Z,H,COMPLETED,2013-04-29,,2012-10-28,2013-04-29,183,,,,,,,Confirmed Response by Investigator,CRSP,Tumor Response,Investigator,RECIST 1.1,0,N,Y,,,,,,,,,,,,,
171,CDISCPILOT01,01-701-1133,1133,701,USA,,2012-10-28,2013-04-29,2012-10-28,2013-04-28,2013-04-29T10:13,,,,,,,,,,,,8,NA,2012-10-23,-5,81,YEARS,>64,F,WHITE,White,NOT HISPANIC OR LATINO,Y,Xanomeline High Dose,Xan_Hi,Xanomeline High Dose,Xan_Hi,Xanomeline High Dose,Xanomeline High Dose,2012-10-28,2012-10-28T00:00:00Z,H,2013-04-28,2013-04-28T23:59:59Z,H,COMPLETED,2013-04-29,,2012-10-28,2013-04-29,183,,,,,,,Death,DEATH,Reference Event,,,0,N,Y,,,,,,,,,,,,,
172,CDISCPILOT01,01-701-1133,1133,701,USA,RS,2012-10-28,2013-04-29,2012-10-28,2013-04-28,2013-04-29T10:13,,,,,,,,,,,,9,NA,2012-10-23,-5,81,YEARS,>64,F,WHITE,White,NOT HISPANIC OR LATINO,Y,Xanomeline High Dose,Xan_Hi,Xanomeline High Dose,Xan_Hi,Xanomeline High Dose,Xanomeline High Dose,2012-10-28,2012-10-28T00:00:00Z,H,2013-04-28,2013-04-28T23:59:59Z,H,COMPLETED,2013-04-29,,2012-10-28,2013-04-29,183,,,,2012-12-30,,WEEK 9,Last Disease Assessment by Investigator,LSTA,Tumor Response,Investigator,RECIST 1.1,5,PD,Y,Y,4,WEEK 9,OVRLRESP,Overall Response,PD,PD,INVESTIGATOR,,,2012-12-30,9,
173,CDISCPILOT01,01-701-1133,1133,701,USA,,2012-10-28,2013-04-29,2012-10-28,2013-04-28,2013-04-29T10:13,,,,,,,,,,,,10,NA,2012-10-23,-5,81,YEARS,>64,F,WHITE,White,NOT HISPANIC OR LATINO,Y,Xanomeline High Dose,Xan_Hi,Xanomeline High Dose,Xan_Hi,Xanomeline High Dose,Xanomeline High Dose,2012-10-28,2012-10-28T00:00:00Z,H,2013-04-28,2013-04-28T23:59:59Z,H,COMPLETED,2013-04-29,,,2013-04-29,183,,,,,,,Measurable Disease at Baseline by Investigator,MDIS,,Investigator,RECIST 1.1,1,Y,Y,,,,,,,,,,,,,
174,CDISCPILOT01,01-701-1133,1133,701,USA,RS,2012-10-28,2013-04-29,2012-10-28,2013-04-28,2013-04-29T10:13,,,,,,,,,,,,11,NA,2012-10-23,-5,81,YEARS,>64,F,WHITE,White,NOT HISPANIC OR LATINO,Y,Xanomeline High Dose,Xan_Hi,Xanomeline High Dose,Xan_Hi,Xanomeline High Dose,Xanomeline High Dose,2012-10-28,2012-10-28T00:00:00Z,H,2013-04-28,2013-04-28T23:59:59Z,H,COMPLETED,2013-04-29,,2012-10-28,2013-04-29,183,,,,2012-11-18,,WEEK 3,Overall Response by Investigator,OVR,Tumor Response,Investigator,RECIST 1.1,2,PR,Y,Y,2,WEEK 3,OVRLRESP,Overall Response,PR,PR,INVESTIGATOR,,,2012-11-18,3,
175,CDISCPILOT01,01-701-1133,1133,701,USA,RS,2012-10-28,2013-04-29,2012-10-28,2013-04-28,2013-04-29T10:13,,,,,,,,,,,,12,NA,2012-10-23,-5,81,YEARS,>64,F,WHITE,White,NOT HISPANIC OR LATINO,Y,Xanomeline High Dose,Xan_Hi,Xanomeline High Dose,Xan_Hi,Xanomeline High Dose,Xanomeline High Dose,2012-10-28,2012-10-28T00:00:00Z,H,2013-04-28,2013-04-28T23:59:59Z,H,COMPLETED,2013-04-29,,2012-10-28,2013-04-29,183,,,,2012-12-09,,WEEK 6,Overall Response by Investigator,OVR,Tumor Response,Investigator,RECIST 1.1,1,CR,Y,Y,3,WEEK 6,OVRLRESP,Overall Response,CR,CR,INVESTIGATOR,,,2012-12-09,6,
176,CDISCPILOT01,01-701-1133,1133,701,USA,RS,2012-10-28,2013-04-29,2012-10-28,2013-04-28,2013-04-29T10:13,,,,,,,,,,,,13,NA,2012-10-23,-5,81,YEARS,>64,F,WHITE,White,NOT HISPANIC OR LATINO,Y,Xanomeline High Dose,Xan_Hi,Xanomeline High Dose,Xan_Hi,Xanomeline High Dose,Xanomeline High Dose,2012-10-28,2012-10-28T00:00:00Z,H,2013-04-28,2013-04-28T23:59:59Z,H,COMPLETED,2013-04-29,,2012-10-28,2013-04-29,183,,,,2012-12-30,,WEEK 9,Overall Response by Investigator,OVR,Tumor Response,Investigator,RECIST 1.1,5,PD,Y,Y,4,WEEK 9,OVRLRESP,Overall Response,PD,PD,INVESTIGATOR,,,2012-12-30,9,
177,CDISCPILOT01,01-701-1133,1133,701,USA,RS,2012-10-28,2013-04-29,2012-10-28,2013-04-28,2013-04-29T10:13,,,,,,,,,,,,14,NA,2012-10-23,-5,81,YEARS,>64,F,WHITE,White,NOT HISPANIC OR LATINO,Y,Xanomeline High Dose,Xan_Hi,Xanomeline High Dose,Xan_Hi,Xanomeline High Dose,Xanomeline High Dose,2012-10-28,2012-10-28T00:00:00Z,H,2013-04-28,2013-04-28T23:59:59Z,H,COMPLETED,2013-04-29,,2012-10-28,2013-04-29,183,,,,2012-12-30,,WEEK 9,Disease Progression by Investigator,PD,Tumor Response,Investigator,RECIST 1.1,1,Y,Y,Y,4,WEEK 9,OVRLRESP,Overall Response,PD,PD,INVESTIGATOR,,,2012-12-30,9,
178,CDISCPILOT01,01-701-1133,1133,701,USA,RS,2012-10-28,2013-04-29,2012-10-28,2013-04-28,2013-04-29T10:13,,,,,,,,,,,,15,NA,2012-10-23,-5,81,YEARS,>64,F,WHITE,White,NOT HISPANIC OR LATINO,Y,Xanomeline High Dose,Xan_Hi,Xanomeline High Dose,Xan_Hi,Xanomeline High Dose,Xanomeline High Dose,2012-10-28,2012-10-28T00:00:00Z,H,2013-04-28,2013-04-28T23:59:59Z,H,COMPLETED,2013-04-29,,2012-10-28,2013-04-29,183,,,,2012-11-18,,WEEK 3,Response by Investigator (confirmation not required),RSP,Tumor Response,Investigator,RECIST 1.1,1,Y,Y,Y,2,WEEK 3,OVRLRESP,Overall Response,PR,PR,INVESTIGATOR,,,2012-11-18,3,
179,CDISCPILOT01,01-701-1145,1145,701,USA,,,,,,2013-09-19,2013-09-05,,,,,,,,,,,1,NA,2013-09-05,,57,YEARS,18-64,F,WHITE,White,NOT HISPANIC OR LATINO,N,Screen Failure,Scrnfail,Screen Failure,Scrnfail,Screen Failure,Screen Failure,,,,,,,,,,,,,,,,,,,Best Overall Response of CR/PR by Investigator (confirmation not required),BCP,Tumor Response,Investigator,RECIST 1.1,0,N,Y,,,,,,,,,,,,,
180,CDISCPILOT01,01-701-1145,1145,701,USA,,,,,,2013-09-19,2013-09-05,,,,,,,,,,,2,NA,2013-09-05,,57,YEARS,18-64,F,WHITE,White,NOT HISPANIC OR LATINO,N,Screen Failure,Scrnfail,Screen Failure,Scrnfail,Screen Failure,Screen Failure,,,,,,,,,,,,,,,,,,,Best Overall Response by Investigator (confirmation not required),BOR,Tumor Response,Investigator,RECIST 1.1,7,MISSING,Y,,,,,,,,,,,,,
181,CDISCPILOT01,01-701-1145,1145,701,USA,,,,,,2013-09-19,2013-09-05,,,,,,,,,,,3,NA,2013-09-05,,57,YEARS,18-64,F,WHITE,White,NOT HISPANIC OR LATINO,N,Screen Failure,Scrnfail,Screen Failure,Scrnfail,Screen Failure,Screen Failure,,,,,,,,,,,,,,,,,,,Clinical Benefit by Investigator (confirmation for response not required),CB,Tumor Response,Investigator,RECIST 1.1,0,N,Y,,,,,,,,,,,,,
182,CDISCPILOT01,01-701-1145,1145,701,USA,,,,,,2013-09-19,2013-09-05,,,,,,,,,,,4,NA,2013-09-05,,57,YEARS,18-64,F,WHITE,White,NOT HISPANIC OR LATINO,N,Screen Failure,Scrnfail,Screen Failure,Scrnfail,Screen Failure,Screen Failure,,,,,,,,,,,,,,,,,,,Best Confirmed Overall Response of CR/PR by Investigator,CBCP,Tumor Response,Investigator,RECIST 1.1,0,N,Y,,,,,,,,,,,,,
183,CDISCPILOT01,01-701-1145,1145,701,USA,,,,,,2013-09-19,2013-09-05,,,,,,,,,,,5,NA,2013-09-05,,57,YEARS,18-64,F,WHITE,White,NOT HISPANIC OR LATINO,N,Screen Failure,Scrnfail,Screen Failure,Scrnfail,Screen Failure,Screen Failure,,,,,,,,,,,,,,,,,,,Best Confirmed Overall Response by Investigator,CBOR,Tumor Response,Investigator,RECIST 1.1,7,MISSING,Y,,,,,,,,,,,,,
184,CDISCPILOT01,01-701-1145,1145,701,USA,,,,,,2013-09-19,2013-09-05,,,,,,,,,,,6,NA,2013-09-05,,57,YEARS,18-64,F,WHITE,White,NOT HISPANIC OR LATINO,N,Screen Failure,Scrnfail,Screen Failure,Scrnfail,Screen Failure,Screen Failure,,,,,,,,,,,,,,,,,,,Confirmed Clinical Benefit by Investigator,CCB,Tumor Response,Investigator,RECIST 1.1,0,N,Y,,,,,,,,,,,,,
185,CDISCPILOT01,01-701-1145,1145,701,USA,,,,,,2013-09-19,2013-09-05,,,,,,,,,,,7,NA,2013-09-05,,57,YEARS,18-64,F,WHITE,White,NOT HISPANIC OR LATINO,N,Screen Failure,Scrnfail,Screen Failure,Scrnfail,Screen Failure,Screen Failure,,,,,,,,,,,,,,,,,,,Confirmed Response by Investigator,CRSP,Tumor Response,Investigator,RECIST 1.1,0,N,Y,,,,,,,,,,,,,
186,CDISCPILOT01,01-701-1145,1145,701,USA,,,,,,2013-09-19,2013-09-05,,,,,,,,,,,8,NA,2013-09-05,,57,YEARS,18-64,F,WHITE,White,NOT HISPANIC OR LATINO,N,Screen Failure,Scrnfail,Screen Failure,Scrnfail,Screen Failure,Screen Failure,,,,,,,,,,,,,,,,,,,Death,DEATH,Reference Event,,,0,N,Y,,,,,,,,,,,,,
187,CDISCPILOT01,01-701-1145,1145,701,USA,,,,,,2013-09-19,2013-09-05,,,,,,,,,,,9,NA,2013-09-05,,57,YEARS,18-64,F,WHITE,White,NOT HISPANIC OR LATINO,N,Screen Failure,Scrnfail,Screen Failure,Scrnfail,Screen Failure,Screen Failure,,,,,,,,,,,,,,,,,,,Last Disease Assessment by Investigator,LSTA,Tumor Response,Investigator,RECIST 1.1,,,Y,,,,,,,,,,,,,
188,CDISCPILOT01,01-701-1145,1145,701,USA,,,,,,2013-09-19,2013-09-05,,,,,,,,,,,10,NA,2013-09-05,,57,YEARS,18-64,F,WHITE,White,NOT HISPANIC OR LATINO,N,Screen Failure,Scrnfail,Screen Failure,Scrnfail,Screen Failure,Screen Failure,,,,,,,,,,,,,,,,,,,Measurable Disease at Baseline by Investigator,MDIS,,Investigator,RECIST 1.1,0,N,Y,,,,,,,,,,,,,
189,CDISCPILOT01,01-701-1145,1145,701,USA,,,,,,2013-09-19,2013-09-05,,,,,,,,,,,11,NA,2013-09-05,,57,YEARS,18-64,F,WHITE,White,NOT HISPANIC OR LATINO,N,Screen Failure,Scrnfail,Screen Failure,Scrnfail,Screen Failure,Screen Failure,,,,,,,,,,,,,,,,,,,Disease Progression by Investigator,PD,Tumor Response,Investigator,RECIST 1.1,0,N,Y,,,,,,,,,,,,,
190,CDISCPILOT01,01-701-1145,1145,701,USA,,,,,,2013-09-19,2013-09-05,,,,,,,,,,,12,NA,2013-09-05,,57,YEARS,18-64,F,WHITE,White,NOT HISPANIC OR LATINO,N,Screen Failure,Scrnfail,Screen Failure,Scrnfail,Screen Failure,Screen Failure,,,,,,,,,,,,,,,,,,,Response by Investigator (confirmation not required),RSP,Tumor Response,Investigator,RECIST 1.1,0,N,Y,,,,,,,,,,,,,
191,CDISCPILOT01,01-701-1146,1146,701,USA,,2013-05-20,2013-06-30,2013-05-20,2013-06-26,2013-07-15,,,,,,,,,,,,1,NA,2013-05-07,-13,75,YEARS,>64,F,WHITE,White,NOT HISPANIC OR LATINO,Y,Xanomeline High Dose,Xan_Hi,Xanomeline High Dose,Xan_Hi,Xanomeline High Dose,Xanomeline High Dose,2013-05-20,2013-05-20T00:00:00Z,H,2013-06-26,2013-06-26T23:59:59Z,H,DISCONTINUED,2013-06-30,,2013-05-20,2013-06-30,38,,,,,,,Best Overall Response of CR/PR by Investigator (confirmation not required),BCP,Tumor Response,Investigator,RECIST 1.1,0,N,Y,,,,,,,,,,,,,
192,CDISCPILOT01,01-701-1146,1146,701,USA,,2013-05-20,2013-06-30,2013-05-20,2013-06-26,2013-07-15,,,,,,,,,,,,2,NA,2013-05-07,-13,75,YEARS,>64,F,WHITE,White,NOT HISPANIC OR LATINO,Y,Xanomeline High Dose,Xan_Hi,Xanomeline High Dose,Xan_Hi,Xanomeline High Dose,Xanomeline High Dose,2013-05-20,2013-05-20T00:00:00Z,H,2013-06-26,2013-06-26T23:59:59Z,H,DISCONTINUED,2013-06-30,,2013-05-20,2013-06-30,38,,,,,,,Best Overall Response by Investigator (confirmation not required),BOR,Tumor Response,Investigator,RECIST 1.1,7,MISSING,Y,,,,,,,,,,,,,
193,CDISCPILOT01,01-701-1146,1146,701,USA,,2013-05-20,2013-06-30,2013-05-20,2013-06-26,2013-07-15,,,,,,,,,,,,3,NA,2013-05-07,-13,75,YEARS,>64,F,WHITE,White,NOT HISPANIC OR LATINO,Y,Xanomeline High Dose,Xan_Hi,Xanomeline High Dose,Xan_Hi,Xanomeline High Dose,Xanomeline High Dose,2013-05-20,2013-05-20T00:00:00Z,H,2013-06-26,2013-06-26T23:59:59Z,H,DISCONTINUED,2013-06-30,,2013-05-20,2013-06-30,38,,,,,,,Clinical Benefit by Investigator (confirmation for response not required),CB,Tumor Response,Investigator,RECIST 1.1,0,N,Y,,,,,,,,,,,,,
194,CDISCPILOT01,01-701-1146,1146,701,USA,,2013-05-20,2013-06-30,2013-05-20,2013-06-26,2013-07-15,,,,,,,,,,,,4,NA,2013-05-07,-13,75,YEARS,>64,F,WHITE,White,NOT HISPANIC OR LATINO,Y,Xanomeline High Dose,Xan_Hi,Xanomeline High Dose,Xan_Hi,Xanomeline High Dose,Xanomeline High Dose,2013-05-20,2013-05-20T00:00:00Z,H,2013-06-26,2013-06-26T23:59:59Z,H,DISCONTINUED,2013-06-30,,2013-05-20,2013-06-30,38,,,,,,,Best Confirmed Overall Response of CR/PR by Investigator,CBCP,Tumor Response,Investigator,RECIST 1.1,0,N,Y,,,,,,,,,,,,,
195,CDISCPILOT01,01-701-1146,1146,701,USA,,2013-05-20,2013-06-30,2013-05-20,2013-06-26,2013-07-15,,,,,,,,,,,,5,NA,2013-05-07,-13,75,YEARS,>64,F,WHITE,White,NOT HISPANIC OR LATINO,Y,Xanomeline High Dose,Xan_Hi,Xanomeline High Dose,Xan_Hi,Xanomeline High Dose,Xanomeline High Dose,2013-05-20,2013-05-20T00:00:00Z,H,2013-06-26,2013-06-26T23:59:59Z,H,DISCONTINUED,2013-06-30,,2013-05-20,2013-06-30,38,,,,,,,Best Confirmed Overall Response by Investigator,CBOR,Tumor Response,Investigator,RECIST 1.1,7,MISSING,Y,,,,,,,,,,,,,
196,CDISCPILOT01,01-701-1146,1146,701,USA,,2013-05-20,2013-06-30,2013-05-20,2013-06-26,2013-07-15,,,,,,,,,,,,6,NA,2013-05-07,-13,75,YEARS,>64,F,WHITE,White,NOT HISPANIC OR LATINO,Y,Xanomeline High Dose,Xan_Hi,Xanomeline High Dose,Xan_Hi,Xanomeline High Dose,Xanomeline High Dose,2013-05-20,2013-05-20T00:00:00Z,H,2013-06-26,2013-06-26T23:59:59Z,H,DISCONTINUED,2013-06-30,,2013-05-20,2013-06-30,38,,,,,,,Confirmed Clinical Benefit by Investigator,CCB,Tumor Response,Investigator,RECIST 1.1,0,N,Y,,,,,,,,,,,,,
197,CDISCPILOT01,01-701-1146,1146,701,USA,,2013-05-20,2013-06-30,2013-05-20,2013-06-26,2013-07-15,,,,,,,,,,,,7,NA,2013-05-07,-13,75,YEARS,>64,F,WHITE,White,NOT HISPANIC OR LATINO,Y,Xanomeline High Dose,Xan_Hi,Xanomeline High Dose,Xan_Hi,Xanomeline High Dose,Xanomeline High Dose,2013-05-20,2013-05-20T00:00:00Z,H,2013-06-26,2013-06-26T23:59:59Z,H,DISCONTINUED,2013-06-30,,2013-05-20,2013-06-30,38,,,,,,,Confirmed Response by Investigator,CRSP,Tumor Response,Investigator,RECIST 1.1,0,N,Y,,,,,,,,,,,,,
198,CDISCPILOT01,01-701-1146,1146,701,USA,,2013-05-20,2013-06-30,2013-05-20,2013-06-26,2013-07-15,,,,,,,,,,,,8,NA,2013-05-07,-13,75,YEARS,>64,F,WHITE,White,NOT HISPANIC OR LATINO,Y,Xanomeline High Dose,Xan_Hi,Xanomeline High Dose,Xan_Hi,Xanomeline High Dose,Xanomeline High Dose,2013-05-20,2013-05-20T00:00:00Z,H,2013-06-26,2013-06-26T23:59:59Z,H,DISCONTINUED,2013-06-30,,2013-05-20,2013-06-30,38,,,,,,,Death,DEATH,Reference Event,,,0,N,Y,,,,,,,,,,,,,
199,CDISCPILOT01,01-701-1146,1146,701,USA,,2013-05-20,2013-06-30,2013-05-20,2013-06-26,2013-07-15,,,,,,,,,,,,9,NA,2013-05-07,-13,75,YEARS,>64,F,WHITE,White,NOT HISPANIC OR LATINO,Y,Xanomeline High Dose,Xan_Hi,Xanomeline High Dose,Xan_Hi,Xanomeline High Dose,Xanomeline High Dose,2013-05-20,2013-05-20T00:00:00Z,H,2013-06-26,2013-06-26T23:59:59Z,H,DISCONTINUED,2013-06-30,,2013-05-20,2013-06-30,38,,,,,,,Last Disease Assessment by Investigator,LSTA,Tumor Response,Investigator,RECIST 1.1,,,Y,,,,,,,,,,,,,
200,CDISCPILOT01,01-701-1146,1146,701,USA,,2013-05-20,2013-06-30,2013-05-20,2013-06-26,2013-07-15,,,,,,,,,,,,10,NA,2013-05-07,-13,75,YEARS,>64,F,WHITE,White,NOT HISPANIC OR LATINO,Y,Xanomeline High Dose,Xan_Hi,Xanomeline High Dose,Xan_Hi,Xanomeline High Dose,Xanomeline High Dose,2013-05-20,2013-05-20T00:00:00Z,H,2013-06-26,2013-06-26T23:59:59Z,H,DISCONTINUED,2013-06-30,,,2013-06-30,38,,,,,,,Measurable Disease at Baseline by Investigator,MDIS,,Investigator,RECIST 1.1,0,N,Y,,,,,,,,,,,,,
201,CDISCPILOT01,01-701-1146,1146,701,USA,,2013-05-20,2013-06-30,2013-05-20,2013-06-26,2013-07-15,,,,,,,,,,,,11,NA,2013-05-07,-13,75,YEARS,>64,F,WHITE,White,NOT HISPANIC OR LATINO,Y,Xanomeline High Dose,Xan_Hi,Xanomeline High Dose,Xan_Hi,Xanomeline High Dose,Xanomeline High Dose,2013-05-20,2013-05-20T00:00:00Z,H,2013-06-26,2013-06-26T23:59:59Z,H,DISCONTINUED,2013-06-30,,2013-05-20,2013-06-30,38,,,,,,,Disease Progression by Investigator,PD,Tumor Response,Investigator,RECIST 1.1,0,N,Y,,,,,,,,,,,,,
202,CDISCPILOT01,01-701-1146,1146,701,USA,,2013-05-20,2013-06-30,2013-05-20,2013-06-26,2013-07-15,,,,,,,,,,,,12,NA,2013-05-07,-13,75,YEARS,>64,F,WHITE,White,NOT HISPANIC OR LATINO,Y,Xanomeline High Dose,Xan_Hi,Xanomeline High Dose,Xan_Hi,Xanomeline High Dose,Xanomeline High Dose,2013-05-20,2013-05-20T00:00:00Z,H,2013-06-26,2013-06-26T23:59:59Z,H,DISCONTINUED,2013-06-30,,2013-05-20,2013-06-30,38,,,,,,,Response by Investigator (confirmation not required),RSP,Tumor Response,Investigator,RECIST 1.1,0,N,Y,,,,,,,,,,,,,
203,CDISCPILOT01,01-701-1148,1148,701,USA,,2013-08-23,2014-02-20,2013-08-23,2014-02-20,2014-02-20T15:07,,,,,,,,,,,,1,NA,2013-08-14,-9,57,YEARS,18-64,M,WHITE,White,NOT HISPANIC OR LATINO,Y,Xanomeline High Dose,Xan_Hi,Xanomeline High Dose,Xan_Hi,Xanomeline High Dose,Xanomeline High Dose,2013-08-23,2013-08-23T00:00:00Z,H,2014-02-20,2014-02-20T23:59:59Z,H,COMPLETED,2014-02-20,,2013-08-23,2014-02-20,182,,,,,,,Best Overall Response of CR/PR by Investigator (confirmation not required),BCP,Tumor Response,Investigator,RECIST 1.1,0,N,Y,,,,,,,,,,,,,
204,CDISCPILOT01,01-701-1148,1148,701,USA,,2013-08-23,2014-02-20,2013-08-23,2014-02-20,2014-02-20T15:07,,,,,,,,,,,,2,NA,2013-08-14,-9,57,YEARS,18-64,M,WHITE,White,NOT HISPANIC OR LATINO,Y,Xanomeline High Dose,Xan_Hi,Xanomeline High Dose,Xan_Hi,Xanomeline High Dose,Xanomeline High Dose,2013-08-23,2013-08-23T00:00:00Z,H,2014-02-20,2014-02-20T23:59:59Z,H,COMPLETED,2014-02-20,,2013-08-23,2014-02-20,182,,,,,,,Best Overall Response by Investigator (confirmation not required),BOR,Tumor Response,Investigator,RECIST 1.1,7,MISSING,Y,,,,,,,,,,,,,
205,CDISCPILOT01,01-701-1148,1148,701,USA,,2013-08-23,2014-02-20,2013-08-23,2014-02-20,2014-02-20T15:07,,,,,,,,,,,,3,NA,2013-08-14,-9,57,YEARS,18-64,M,WHITE,White,NOT HISPANIC OR LATINO,Y,Xanomeline High Dose,Xan_Hi,Xanomeline High Dose,Xan_Hi,Xanomeline High Dose,Xanomeline High Dose,2013-08-23,2013-08-23T00:00:00Z,H,2014-02-20,2014-02-20T23:59:59Z,H,COMPLETED,2014-02-20,,2013-08-23,2014-02-20,182,,,,,,,Clinical Benefit by Investigator (confirmation for response not required),CB,Tumor Response,Investigator,RECIST 1.1,0,N,Y,,,,,,,,,,,,,
206,CDISCPILOT01,01-701-1148,1148,701,USA,,2013-08-23,2014-02-20,2013-08-23,2014-02-20,2014-02-20T15:07,,,,,,,,,,,,4,NA,2013-08-14,-9,57,YEARS,18-64,M,WHITE,White,NOT HISPANIC OR LATINO,Y,Xanomeline High Dose,Xan_Hi,Xanomeline High Dose,Xan_Hi,Xanomeline High Dose,Xanomeline High Dose,2013-08-23,2013-08-23T00:00:00Z,H,2014-02-20,2014-02-20T23:59:59Z,H,COMPLETED,2014-02-20,,2013-08-23,2014-02-20,182,,,,,,,Best Confirmed Overall Response of CR/PR by Investigator,CBCP,Tumor Response,Investigator,RECIST 1.1,0,N,Y,,,,,,,,,,,,,
207,CDISCPILOT01,01-701-1148,1148,701,USA,,2013-08-23,2014-02-20,2013-08-23,2014-02-20,2014-02-20T15:07,,,,,,,,,,,,5,NA,2013-08-14,-9,57,YEARS,18-64,M,WHITE,White,NOT HISPANIC OR LATINO,Y,Xanomeline High Dose,Xan_Hi,Xanomeline High Dose,Xan_Hi,Xanomeline High Dose,Xanomeline High Dose,2013-08-23,2013-08-23T00:00:00Z,H,2014-02-20,2014-02-20T23:59:59Z,H,COMPLETED,2014-02-20,,2013-08-23,2014-02-20,182,,,,,,,Best Confirmed Overall Response by Investigator,CBOR,Tumor Response,Investigator,RECIST 1.1,7,MISSING,Y,,,,,,,,,,,,,
208,CDISCPILOT01,01-701-1148,1148,701,USA,,2013-08-23,2014-02-20,2013-08-23,2014-02-20,2014-02-20T15:07,,,,,,,,,,,,6,NA,2013-08-14,-9,57,YEARS,18-64,M,WHITE,White,NOT HISPANIC OR LATINO,Y,Xanomeline High Dose,Xan_Hi,Xanomeline High Dose,Xan_Hi,Xanomeline High Dose,Xanomeline High Dose,2013-08-23,2013-08-23T00:00:00Z,H,2014-02-20,2014-02-20T23:59:59Z,H,COMPLETED,2014-02-20,,2013-08-23,2014-02-20,182,,,,,,,Confirmed Clinical Benefit by Investigator,CCB,Tumor Response,Investigator,RECIST 1.1,0,N,Y,,,,,,,,,,,,,
209,CDISCPILOT01,01-701-1148,1148,701,USA,,2013-08-23,2014-02-20,2013-08-23,2014-02-20,2014-02-20T15:07,,,,,,,,,,,,7,NA,2013-08-14,-9,57,YEARS,18-64,M,WHITE,White,NOT HISPANIC OR LATINO,Y,Xanomeline High Dose,Xan_Hi,Xanomeline High Dose,Xan_Hi,Xanomeline High Dose,Xanomeline High Dose,2013-08-23,2013-08-23T00:00:00Z,H,2014-02-20,2014-02-20T23:59:59Z,H,COMPLETED,2014-02-20,,2013-08-23,2014-02-20,182,,,,,,,Confirmed Response by Investigator,CRSP,Tumor Response,Investigator,RECIST 1.1,0,N,Y,,,,,,,,,,,,,
210,CDISCPILOT01,01-701-1148,1148,701,USA,,2013-08-23,2014-02-20,2013-08-23,2014-02-20,2014-02-20T15:07,,,,,,,,,,,,8,NA,2013-08-14,-9,57,YEARS,18-64,M,WHITE,White,NOT HISPANIC OR LATINO,Y,Xanomeline High Dose,Xan_Hi,Xanomeline High Dose,Xan_Hi,Xanomeline High Dose,Xanomeline High Dose,2013-08-23,2013-08-23T00:00:00Z,H,2014-02-20,2014-02-20T23:59:59Z,H,COMPLETED,2014-02-20,,2013-08-23,2014-02-20,182,,,,,,,Death,DEATH,Reference Event,,,0,N,Y,,,,,,,,,,,,,
211,CDISCPILOT01,01-701-1148,1148,701,USA,,2013-08-23,2014-02-20,2013-08-23,2014-02-20,2014-02-20T15:07,,,,,,,,,,,,9,NA,2013-08-14,-9,57,YEARS,18-64,M,WHITE,White,NOT HISPANIC OR LATINO,Y,Xanomeline High Dose,Xan_Hi,Xanomeline High Dose,Xan_Hi,Xanomeline High Dose,Xanomeline High Dose,2013-08-23,2013-08-23T00:00:00Z,H,2014-02-20,2014-02-20T23:59:59Z,H,COMPLETED,2014-02-20,,2013-08-23,2014-02-20,182,,,,,,,Last Disease Assessment by Investigator,LSTA,Tumor Response,Investigator,RECIST 1.1,,,Y,,,,,,,,,,,,,
212,CDISCPILOT01,01-701-1148,1148,701,USA,,2013-08-23,2014-02-20,2013-08-23,2014-02-20,2014-02-20T15:07,,,,,,,,,,,,10,NA,2013-08-14,-9,57,YEARS,18-64,M,WHITE,White,NOT HISPANIC OR LATINO,Y,Xanomeline High Dose,Xan_Hi,Xanomeline High Dose,Xan_Hi,Xanomeline High Dose,Xanomeline High Dose,2013-08-23,2013-08-23T00:00:00Z,H,2014-02-20,2014-02-20T23:59:59Z,H,COMPLETED,2014-02-20,,,2014-02-20,182,,,,,,,Measurable Disease at Baseline by Investigator,MDIS,,Investigator,RECIST 1.1,0,N,Y,,,,,,,,,,,,,
213,CDISCPILOT01,01-701-1148,1148,701,USA,,2013-08-23,2014-02-20,2013-08-23,2014-02-20,2014-02-20T15:07,,,,,,,,,,,,11,NA,2013-08-14,-9,57,YEARS,18-64,M,WHITE,White,NOT HISPANIC OR LATINO,Y,Xanomeline High Dose,Xan_Hi,Xanomeline High Dose,Xan_Hi,Xanomeline High Dose,Xanomeline High Dose,2013-08-23,2013-08-23T00:00:00Z,H,2014-02-20,2014-02-20T23:59:59Z,H,COMPLETED,2014-02-20,,2013-08-23,2014-02-20,182,,,,,,,Disease Progression by Investigator,PD,Tumor Response,Investigator,RECIST 1.1,0,N,Y,,,,,,,,,,,,,
214,CDISCPILOT01,01-701-1148,1148,701,USA,,2013-08-23,2014-02-20,2013-08-23,2014-02-20,2014-02-20T15:07,,,,,,,,,,,,12,NA,2013-08-14,-9,57,YEARS,18-64,M,WHITE,White,NOT HISPANIC OR LATINO,Y,Xanomeline High Dose,Xan_Hi,Xanomeline High Dose,Xan_Hi,Xanomeline High Dose,Xanomeline High Dose,2013-08-23,2013-08-23T00:00:00Z,H,2014-02-20,2014-02-20T23:59:59Z,H,COMPLETED,2014-02-20,,2013-08-23,2014-02-20,182,,,,,,,Response by Investigator (confirmation not required),RSP,Tumor Response,Investigator,RECIST 1.1,0,N,Y,,,,,,,,,,,,,
215,CDISCPILOT01,01-701-1153,1153,701,USA,,2013-09-23,2014-04-01,2013-09-23,2014-03-16,2014-04-01T14:25,,,,,,,,,,,,1,NA,2013-09-06,-17,79,YEARS,>64,F,WHITE,White,NOT HISPANIC OR LATINO,Y,Placebo,Pbo,Placebo,Pbo,Placebo,Placebo,2013-09-23,2013-09-23T00:00:00Z,H,2014-03-16,2014-03-16T23:59:59Z,H,COMPLETED,2014-04-01,,2013-09-23,2014-04-01,175,,,,,,,Best Overall Response of CR/PR by Investigator (confirmation not required),BCP,Tumor Response,Investigator,RECIST 1.1,0,N,Y,,,,,,,,,,,,,
216,CDISCPILOT01,01-701-1153,1153,701,USA,,2013-09-23,2014-04-01,2013-09-23,2014-03-16,2014-04-01T14:25,,,,,,,,,,,,2,NA,2013-09-06,-17,79,YEARS,>64,F,WHITE,White,NOT HISPANIC OR LATINO,Y,Placebo,Pbo,Placebo,Pbo,Placebo,Placebo,2013-09-23,2013-09-23T00:00:00Z,H,2014-03-16,2014-03-16T23:59:59Z,H,COMPLETED,2014-04-01,,2013-09-23,2014-04-01,175,,,,,,,Best Overall Response by Investigator (confirmation not required),BOR,Tumor Response,Investigator,RECIST 1.1,7,MISSING,Y,,,,,,,,,,,,,
217,CDISCPILOT01,01-701-1153,1153,701,USA,,2013-09-23,2014-04-01,2013-09-23,2014-03-16,2014-04-01T14:25,,,,,,,,,,,,3,NA,2013-09-06,-17,79,YEARS,>64,F,WHITE,White,NOT HISPANIC OR LATINO,Y,Placebo,Pbo,Placebo,Pbo,Placebo,Placebo,2013-09-23,2013-09-23T00:00:00Z,H,2014-03-16,2014-03-16T23:59:59Z,H,COMPLETED,2014-04-01,,2013-09-23,2014-04-01,175,,,,,,,Clinical Benefit by Investigator (confirmation for response not required),CB,Tumor Response,Investigator,RECIST 1.1,0,N,Y,,,,,,,,,,,,,
218,CDISCPILOT01,01-701-1153,1153,701,USA,,2013-09-23,2014-04-01,2013-09-23,2014-03-16,2014-04-01T14:25,,,,,,,,,,,,4,NA,2013-09-06,-17,79,YEARS,>64,F,WHITE,White,NOT HISPANIC OR LATINO,Y,Placebo,Pbo,Placebo,Pbo,Placebo,Placebo,2013-09-23,2013-09-23T00:00:00Z,H,2014-03-16,2014-03-16T23:59:59Z,H,COMPLETED,2014-04-01,,2013-09-23,2014-04-01,175,,,,,,,Best Confirmed Overall Response of CR/PR by Investigator,CBCP,Tumor Response,Investigator,RECIST 1.1,0,N,Y,,,,,,,,,,,,,
219,CDISCPILOT01,01-701-1153,1153,701,USA,,2013-09-23,2014-04-01,2013-09-23,2014-03-16,2014-04-01T14:25,,,,,,,,,,,,5,NA,2013-09-06,-17,79,YEARS,>64,F,WHITE,White,NOT HISPANIC OR LATINO,Y,Placebo,Pbo,Placebo,Pbo,Placebo,Placebo,2013-09-23,2013-09-23T00:00:00Z,H,2014-03-16,2014-03-16T23:59:59Z,H,COMPLETED,2014-04-01,,2013-09-23,2014-04-01,175,,,,,,,Best Confirmed Overall Response by Investigator,CBOR,Tumor Response,Investigator,RECIST 1.1,7,MISSING,Y,,,,,,,,,,,,,
220,CDISCPILOT01,01-701-1153,1153,701,USA,,2013-09-23,2014-04-01,2013-09-23,2014-03-16,2014-04-01T14:25,,,,,,,,,,,,6,NA,2013-09-06,-17,79,YEARS,>64,F,WHITE,White,NOT HISPANIC OR LATINO,Y,Placebo,Pbo,Placebo,Pbo,Placebo,Placebo,2013-09-23,2013-09-23T00:00:00Z,H,2014-03-16,2014-03-16T23:59:59Z,H,COMPLETED,2014-04-01,,2013-09-23,2014-04-01,175,,,,,,,Confirmed Clinical Benefit by Investigator,CCB,Tumor Response,Investigator,RECIST 1.1,0,N,Y,,,,,,,,,,,,,
221,CDISCPILOT01,01-701-1153,1153,701,USA,,2013-09-23,2014-04-01,2013-09-23,2014-03-16,2014-04-01T14:25,,,,,,,,,,,,7,NA,2013-09-06,-17,79,YEARS,>64,F,WHITE,White,NOT HISPANIC OR LATINO,Y,Placebo,Pbo,Placebo,Pbo,Placebo,Placebo,2013-09-23,2013-09-23T00:00:00Z,H,2014-03-16,2014-03-16T23:59:59Z,H,COMPLETED,2014-04-01,,2013-09-23,2014-04-01,175,,,,,,,Confirmed Response by Investigator,CRSP,Tumor Response,Investigator,RECIST 1.1,0,N,Y,,,,,,,,,,,,,
222,CDISCPILOT01,01-701-1153,1153,701,USA,,2013-09-23,2014-04-01,2013-09-23,2014-03-16,2014-04-01T14:25,,,,,,,,,,,,8,NA,2013-09-06,-17,79,YEARS,>64,F,WHITE,White,NOT HISPANIC OR LATINO,Y,Placebo,Pbo,Placebo,Pbo,Placebo,Placebo,2013-09-23,2013-09-23T00:00:00Z,H,2014-03-16,2014-03-16T23:59:59Z,H,COMPLETED,2014-04-01,,2013-09-23,2014-04-01,175,,,,,,,Death,DEATH,Reference Event,,,0,N,Y,,,,,,,,,,,,,
223,CDISCPILOT01,01-701-1153,1153,701,USA,,2013-09-23,2014-04-01,2013-09-23,2014-03-16,2014-04-01T14:25,,,,,,,,,,,,9,NA,2013-09-06,-17,79,YEARS,>64,F,WHITE,White,NOT HISPANIC OR LATINO,Y,Placebo,Pbo,Placebo,Pbo,Placebo,Placebo,2013-09-23,2013-09-23T00:00:00Z,H,2014-03-16,2014-03-16T23:59:59Z,H,COMPLETED,2014-04-01,,2013-09-23,2014-04-01,175,,,,,,,Last Disease Assessment by Investigator,LSTA,Tumor Response,Investigator,RECIST 1.1,,,Y,,,,,,,,,,,,,
224,CDISCPILOT01,01-701-1153,1153,701,USA,,2013-09-23,2014-04-01,2013-09-23,2014-03-16,2014-04-01T14:25,,,,,,,,,,,,10,NA,2013-09-06,-17,79,YEARS,>64,F,WHITE,White,NOT HISPANIC OR LATINO,Y,Placebo,Pbo,Placebo,Pbo,Placebo,Placebo,2013-09-23,2013-09-23T00:00:00Z,H,2014-03-16,2014-03-16T23:59:59Z,H,COMPLETED,2014-04-01,,,2014-04-01,175,,,,,,,Measurable Disease at Baseline by Investigator,MDIS,,Investigator,RECIST 1.1,0,N,Y,,,,,,,,,,,,,
225,CDISCPILOT01,01-701-1153,1153,701,USA,,2013-09-23,2014-04-01,2013-09-23,2014-03-16,2014-04-01T14:25,,,,,,,,,,,,11,NA,2013-09-06,-17,79,YEARS,>64,F,WHITE,White,NOT HISPANIC OR LATINO,Y,Placebo,Pbo,Placebo,Pbo,Placebo,Placebo,2013-09-23,2013-09-23T00:00:00Z,H,2014-03-16,2014-03-16T23:59:59Z,H,COMPLETED,2014-04-01,,2013-09-23,2014-04-01,175,,,,,,,Disease Progression by Investigator,PD,Tumor Response,Investigator,RECIST 1.1,0,N,Y,,,,,,,,,,,,,
226,CDISCPILOT01,01-701-1153,1153,701,USA,,2013-09-23,2014-04-01,2013-09-23,2014-03-16,2014-04-01T14:25,,,,,,,,,,,,12,NA,2013-09-06,-17,79,YEARS,>64,F,WHITE,White,NOT HISPANIC OR LATINO,Y,Placebo,Pbo,Placebo,Pbo,Placebo,Placebo,2013-09-23,2013-09-23T00:00:00Z,H,2014-03-16,2014-03-16T23:59:59Z,H,COMPLETED,2014-04-01,,2013-09-23,2014-04-01,175,,,,,,,Response by Investigator (confirmation not required),RSP,Tumor Response,Investigator,RECIST 1.1,0,N,Y,,,,,,,,,,,,,
227,CDISCPILOT01,01-701-1162,1162,701,USA,,,,,,2013-04-18,2013-04-18,,,,,,,,,,,1,NA,2013-04-18,,82,YEARS,>64,F,WHITE,White,NOT HISPANIC OR LATINO,N,Screen Failure,Scrnfail,Screen Failure,Scrnfail,Screen Failure,Screen Failure,,,,,,,,,,,,,,,,,,,Best Overall Response of CR/PR by Investigator (confirmation not required),BCP,Tumor Response,Investigator,RECIST 1.1,0,N,Y,,,,,,,,,,,,,
228,CDISCPILOT01,01-701-1162,1162,701,USA,,,,,,2013-04-18,2013-04-18,,,,,,,,,,,2,NA,2013-04-18,,82,YEARS,>64,F,WHITE,White,NOT HISPANIC OR LATINO,N,Screen Failure,Scrnfail,Screen Failure,Scrnfail,Screen Failure,Screen Failure,,,,,,,,,,,,,,,,,,,Best Overall Response by Investigator (confirmation not required),BOR,Tumor Response,Investigator,RECIST 1.1,7,MISSING,Y,,,,,,,,,,,,,
229,CDISCPILOT01,01-701-1162,1162,701,USA,,,,,,2013-04-18,2013-04-18,,,,,,,,,,,3,NA,2013-04-18,,82,YEARS,>64,F,WHITE,White,NOT HISPANIC OR LATINO,N,Screen Failure,Scrnfail,Screen Failure,Scrnfail,Screen Failure,Screen Failure,,,,,,,,,,,,,,,,,,,Clinical Benefit by Investigator (confirmation for response not required),CB,Tumor Response,Investigator,RECIST 1.1,0,N,Y,,,,,,,,,,,,,
230,CDISCPILOT01,01-701-1162,1162,701,USA,,,,,,2013-04-18,2013-04-18,,,,,,,,,,,4,NA,2013-04-18,,82,YEARS,>64,F,WHITE,White,NOT HISPANIC OR LATINO,N,Screen Failure,Scrnfail,Screen Failure,Scrnfail,Screen Failure,Screen Failure,,,,,,,,,,,,,,,,,,,Best Confirmed Overall Response of CR/PR by Investigator,CBCP,Tumor Response,Investigator,RECIST 1.1,0,N,Y,,,,,,,,,,,,,
231,CDISCPILOT01,01-701-1162,1162,701,USA,,,,,,2013-04-18,2013-04-18,,,,,,,,,,,5,NA,2013-04-18,,82,YEARS,>64,F,WHITE,White,NOT HISPANIC OR LATINO,N,Screen Failure,Scrnfail,Screen Failure,Scrnfail,Screen Failure,Screen Failure,,,,,,,,,,,,,,,,,,,Best Confirmed Overall Response by Investigator,CBOR,Tumor Response,Investigator,RECIST 1.1,7,MISSING,Y,,,,,,,,,,,,,
232,CDISCPILOT01,01-701-1162,1162,701,USA,,,,,,2013-04-18,2013-04-18,,,,,,,,,,,6,NA,2013-04-18,,82,YEARS,>64,F,WHITE,White,NOT HISPANIC OR LATINO,N,Screen Failure,Scrnfail,Screen Failure,Scrnfail,Screen Failure,Screen Failure,,,,,,,,,,,,,,,,,,,Confirmed Clinical Benefit by Investigator,CCB,Tumor Response,Investigator,RECIST 1.1,0,N,Y,,,,,,,,,,,,,
233,CDISCPILOT01,01-701-1162,1162,701,USA,,,,,,2013-04-18,2013-04-18,,,,,,,,,,,7,NA,2013-04-18,,82,YEARS,>64,F,WHITE,White,NOT HISPANIC OR LATINO,N,Screen Failure,Scrnfail,Screen Failure,Scrnfail,Screen Failure,Screen Failure,,,,,,,,,,,,,,,,,,,Confirmed Response by Investigator,CRSP,Tumor Response,Investigator,RECIST 1.1,0,N,Y,,,,,,,,,,,,,
234,CDISCPILOT01,01-701-1162,1162,701,USA,,,,,,2013-04-18,2013-04-18,,,,,,,,,,,8,NA,2013-04-18,,82,YEARS,>64,F,WHITE,White,NOT HISPANIC OR LATINO,N,Screen Failure,Scrnfail,Screen Failure,Scrnfail,Screen Failure,Screen Failure,,,,,,,,,,,,,,,,,,,Death,DEATH,Reference Event,,,0,N,Y,,,,,,,,,,,,,
235,CDISCPILOT01,01-701-1162,1162,701,USA,,,,,,2013-04-18,2013-04-18,,,,,,,,,,,9,NA,2013-04-18,,82,YEARS,>64,F,WHITE,White,NOT HISPANIC OR LATINO,N,Screen Failure,Scrnfail,Screen Failure,Scrnfail,Screen Failure,Screen Failure,,,,,,,,,,,,,,,,,,,Last Disease Assessment by Investigator,LSTA,Tumor Response,Investigator,RECIST 1.1,,,Y,,,,,,,,,,,,,
236,CDISCPILOT01,01-701-1162,1162,701,USA,,,,,,2013-04-18,2013-04-18,,,,,,,,,,,10,NA,2013-04-18,,82,YEARS,>64,F,WHITE,White,NOT HISPANIC OR LATINO,N,Screen Failure,Scrnfail,Screen Failure,Scrnfail,Screen Failure,Screen Failure,,,,,,,,,,,,,,,,,,,Measurable Disease at Baseline by Investigator,MDIS,,Investigator,RECIST 1.1,0,N,Y,,,,,,,,,,,,,
237,CDISCPILOT01,01-701-1162,1162,701,USA,,,,,,2013-04-18,2013-04-18,,,,,,,,,,,11,NA,2013-04-18,,82,YEARS,>64,F,WHITE,White,NOT HISPANIC OR LATINO,N,Screen Failure,Scrnfail,Screen Failure,Scrnfail,Screen Failure,Screen Failure,,,,,,,,,,,,,,,,,,,Disease Progression by Investigator,PD,Tumor Response,Investigator,RECIST 1.1,0,N,Y,,,,,,,,,,,,,
238,CDISCPILOT01,01-701-1162,1162,701,USA,,,,,,2013-04-18,2013-04-18,,,,,,,,,,,12,NA,2013-04-18,,82,YEARS,>64,F,WHITE,White,NOT HISPANIC OR LATINO,N,Screen Failure,Scrnfail,Screen Failure,Scrnfail,Screen Failure,Screen Failure,,,,,,,,,,,,,,,,,,,Response by Investigator (confirmation not required),RSP,Tumor Response,Investigator,RECIST 1.1,0,N,Y,,,,,,,,,,,,,
239,CDISCPILOT01,01-701-1176,1176,701,USA,,,,,,2012-09-30,2012-09-30,,,,,,,,,,,1,NA,2012-09-30,,62,YEARS,18-64,F,AMERICAN INDIAN OR ALASKA NATIVE,Non-white,NOT HISPANIC OR LATINO,N,Screen Failure,Scrnfail,Screen Failure,Scrnfail,Screen Failure,Screen Failure,,,,,,,,,,,,,,,,,,,Best Overall Response of CR/PR by Investigator (confirmation not required),BCP,Tumor Response,Investigator,RECIST 1.1,0,N,Y,,,,,,,,,,,,,
240,CDISCPILOT01,01-701-1176,1176,701,USA,,,,,,2012-09-30,2012-09-30,,,,,,,,,,,2,NA,2012-09-30,,62,YEARS,18-64,F,AMERICAN INDIAN OR ALASKA NATIVE,Non-white,NOT HISPANIC OR LATINO,N,Screen Failure,Scrnfail,Screen Failure,Scrnfail,Screen Failure,Screen Failure,,,,,,,,,,,,,,,,,,,Best Overall Response by Investigator (confirmation not required),BOR,Tumor Response,Investigator,RECIST 1.1,7,MISSING,Y,,,,,,,,,,,,,
241,CDISCPILOT01,01-701-1176,1176,701,USA,,,,,,2012-09-30,2012-09-30,,,,,,,,,,,3,NA,2012-09-30,,62,YEARS,18-64,F,AMERICAN INDIAN OR ALASKA NATIVE,Non-white,NOT HISPANIC OR LATINO,N,Screen Failure,Scrnfail,Screen Failure,Scrnfail,Screen Failure,Screen Failure,,,,,,,,,,,,,,,,,,,Clinical Benefit by Investigator (confirmation for response not required),CB,Tumor Response,Investigator,RECIST 1.1,0,N,Y,,,,,,,,,,,,,
242,CDISCPILOT01,01-701-1176,1176,701,USA,,,,,,2012-09-30,2012-09-30,,,,,,,,,,,4,NA,2012-09-30,,62,YEARS,18-64,F,AMERICAN INDIAN OR ALASKA NATIVE,Non-white,NOT HISPANIC OR LATINO,N,Screen Failure,Scrnfail,Screen Failure,Scrnfail,Screen Failure,Screen Failure,,,,,,,,,,,,,,,,,,,Best Confirmed Overall Response of CR/PR by Investigator,CBCP,Tumor Response,Investigator,RECIST 1.1,0,N,Y,,,,,,,,,,,,,
243,CDISCPILOT01,01-701-1176,1176,701,USA,,,,,,2012-09-30,2012-09-30,,,,,,,,,,,5,NA,2012-09-30,,62,YEARS,18-64,F,AMERICAN INDIAN OR ALASKA NATIVE,Non-white,NOT HISPANIC OR LATINO,N,Screen Failure,Scrnfail,Screen Failure,Scrnfail,Screen Failure,Screen Failure,,,,,,,,,,,,,,,,,,,Best Confirmed Overall Response by Investigator,CBOR,Tumor Response,Investigator,RECIST 1.1,7,MISSING,Y,,,,,,,,,,,,,
244,CDISCPILOT01,01-701-1176,1176,701,USA,,,,,,2012-09-30,2012-09-30,,,,,,,,,,,6,NA,2012-09-30,,62,YEARS,18-64,F,AMERICAN INDIAN OR ALASKA NATIVE,Non-white,NOT HISPANIC OR LATINO,N,Screen Failure,Scrnfail,Screen Failure,Scrnfail,Screen Failure,Screen Failure,,,,,,,,,,,,,,,,,,,Confirmed Clinical Benefit by Investigator,CCB,Tumor Response,Investigator,RECIST 1.1,0,N,Y,,,,,,,,,,,,,
245,CDISCPILOT01,01-701-1176,1176,701,USA,,,,,,2012-09-30,2012-09-30,,,,,,,,,,,7,NA,2012-09-30,,62,YEARS,18-64,F,AMERICAN INDIAN OR ALASKA NATIVE,Non-white,NOT HISPANIC OR LATINO,N,Screen Failure,Scrnfail,Screen Failure,Scrnfail,Screen Failure,Screen Failure,,,,,,,,,,,,,,,,,,,Confirmed Response by Investigator,CRSP,Tumor Response,Investigator,RECIST 1.1,0,N,Y,,,,,,,,,,,,,
246,CDISCPILOT01,01-701-1176,1176,701,USA,,,,,,2012-09-30,2012-09-30,,,,,,,,,,,8,NA,2012-09-30,,62,YEARS,18-64,F,AMERICAN INDIAN OR ALASKA NATIVE,Non-white,NOT HISPANIC OR LATINO,N,Screen Failure,Scrnfail,Screen Failure,Scrnfail,Screen Failure,Screen Failure,,,,,,,,,,,,,,,,,,,Death,DEATH,Reference Event,,,0,N,Y,,,,,,,,,,,,,
247,CDISCPILOT01,01-701-1176,1176,701,USA,,,,,,2012-09-30,2012-09-30,,,,,,,,,,,9,NA,2012-09-30,,62,YEARS,18-64,F,AMERICAN INDIAN OR ALASKA NATIVE,Non-white,NOT HISPANIC OR LATINO,N,Screen Failure,Scrnfail,Screen Failure,Scrnfail,Screen Failure,Screen Failure,,,,,,,,,,,,,,,,,,,Last Disease Assessment by Investigator,LSTA,Tumor Response,Investigator,RECIST 1.1,,,Y,,,,,,,,,,,,,
248,CDISCPILOT01,01-701-1176,1176,701,USA,,,,,,2012-09-30,2012-09-30,,,,,,,,,,,10,NA,2012-09-30,,62,YEARS,18-64,F,AMERICAN INDIAN OR ALASKA NATIVE,Non-white,NOT HISPANIC OR LATINO,N,Screen Failure,Scrnfail,Screen Failure,Scrnfail,Screen Failure,Screen Failure,,,,,,,,,,,,,,,,,,,Measurable Disease at Baseline by Investigator,MDIS,,Investigator,RECIST 1.1,0,N,Y,,,,,,,,,,,,,
249,CDISCPILOT01,01-701-1176,1176,701,USA,,,,,,2012-09-30,2012-09-30,,,,,,,,,,,11,NA,2012-09-30,,62,YEARS,18-64,F,AMERICAN INDIAN OR ALASKA NATIVE,Non-white,NOT HISPANIC OR LATINO,N,Screen Failure,Scrnfail,Screen Failure,Scrnfail,Screen Failure,Screen Failure,,,,,,,,,,,,,,,,,,,Disease Progression by Investigator,PD,Tumor Response,Investigator,RECIST 1.1,0,N,Y,,,,,,,,,,,,,
250,CDISCPILOT01,01-701-1176,1176,701,USA,,,,,,2012-09-30,2012-09-30,,,,,,,,,,,12,NA,2012-09-30,,62,YEARS,18-64,F,AMERICAN INDIAN OR ALASKA NATIVE,Non-white,NOT HISPANIC OR LATINO,N,Screen Failure,Scrnfail,Screen Failure,Scrnfail,Screen Failure,Screen Failure,,,,,,,,,,,,,,,,,,,Response by Investigator (confirmation not required),RSP,Tumor Response,Investigator,RECIST 1.1,0,N,Y,,,,,,,,,,,,,
251,CDISCPILOT01,01-701-1180,1180,701,USA,,2013-02-12,2013-03-23,2013-02-12,2013-03-18,2013-04-07,,,,,,,,,,,,1,NA,2013-01-28,-15,56,YEARS,18-64,M,WHITE,White,NOT HISPANIC OR LATINO,Y,Xanomeline High Dose,Xan_Hi,Xanomeline High Dose,Xan_Hi,Xanomeline High Dose,Xanomeline High Dose,2013-02-12,2013-02-12T00:00:00Z,H,2013-03-18,2013-03-18T23:59:59Z,H,DISCONTINUED,2013-03-23,,2013-02-12,2013-03-23,35,,,,,,,Best Overall Response of CR/PR by Investigator (confirmation not required),BCP,Tumor Response,Investigator,RECIST 1.1,0,N,Y,,,,,,,,,,,,,
252,CDISCPILOT01,01-701-1180,1180,701,USA,,2013-02-12,2013-03-23,2013-02-12,2013-03-18,2013-04-07,,,,,,,,,,,,2,NA,2013-01-28,-15,56,YEARS,18-64,M,WHITE,White,NOT HISPANIC OR LATINO,Y,Xanomeline High Dose,Xan_Hi,Xanomeline High Dose,Xan_Hi,Xanomeline High Dose,Xanomeline High Dose,2013-02-12,2013-02-12T00:00:00Z,H,2013-03-18,2013-03-18T23:59:59Z,H,DISCONTINUED,2013-03-23,,2013-02-12,2013-03-23,35,,,,,,,Best Overall Response by Investigator (confirmation not required),BOR,Tumor Response,Investigator,RECIST 1.1,7,MISSING,Y,,,,,,,,,,,,,
253,CDISCPILOT01,01-701-1180,1180,701,USA,,2013-02-12,2013-03-23,2013-02-12,2013-03-18,2013-04-07,,,,,,,,,,,,3,NA,2013-01-28,-15,56,YEARS,18-64,M,WHITE,White,NOT HISPANIC OR LATINO,Y,Xanomeline High Dose,Xan_Hi,Xanomeline High Dose,Xan_Hi,Xanomeline High Dose,Xanomeline High Dose,2013-02-12,2013-02-12T00:00:00Z,H,2013-03-18,2013-03-18T23:59:59Z,H,DISCONTINUED,2013-03-23,,2013-02-12,2013-03-23,35,,,,,,,Clinical Benefit by Investigator (confirmation for response not required),CB,Tumor Response,Investigator,RECIST 1.1,0,N,Y,,,,,,,,,,,,,
254,CDISCPILOT01,01-701-1180,1180,701,USA,,2013-02-12,2013-03-23,2013-02-12,2013-03-18,2013-04-07,,,,,,,,,,,,4,NA,2013-01-28,-15,56,YEARS,18-64,M,WHITE,White,NOT HISPANIC OR LATINO,Y,Xanomeline High Dose,Xan_Hi,Xanomeline High Dose,Xan_Hi,Xanomeline High Dose,Xanomeline High Dose,2013-02-12,2013-02-12T00:00:00Z,H,2013-03-18,2013-03-18T23:59:59Z,H,DISCONTINUED,2013-03-23,,2013-02-12,2013-03-23,35,,,,,,,Best Confirmed Overall Response of CR/PR by Investigator,CBCP,Tumor Response,Investigator,RECIST 1.1,0,N,Y,,,,,,,,,,,,,
255,CDISCPILOT01,01-701-1180,1180,701,USA,,2013-02-12,2013-03-23,2013-02-12,2013-03-18,2013-04-07,,,,,,,,,,,,5,NA,2013-01-28,-15,56,YEARS,18-64,M,WHITE,White,NOT HISPANIC OR LATINO,Y,Xanomeline High Dose,Xan_Hi,Xanomeline High Dose,Xan_Hi,Xanomeline High Dose,Xanomeline High Dose,2013-02-12,2013-02-12T00:00:00Z,H,2013-03-18,2013-03-18T23:59:59Z,H,DISCONTINUED,2013-03-23,,2013-02-12,2013-03-23,35,,,,,,,Best Confirmed Overall Response by Investigator,CBOR,Tumor Response,Investigator,RECIST 1.1,7,MISSING,Y,,,,,,,,,,,,,
256,CDISCPILOT01,01-701-1180,1180,701,USA,,2013-02-12,2013-03-23,2013-02-12,2013-03-18,2013-04-07,,,,,,,,,,,,6,NA,2013-01-28,-15,56,YEARS,18-64,M,WHITE,White,NOT HISPANIC OR LATINO,Y,Xanomeline High Dose,Xan_Hi,Xanomeline High Dose,Xan_Hi,Xanomeline High Dose,Xanomeline High Dose,2013-02-12,2013-02-12T00:00:00Z,H,2013-03-18,2013-03-18T23:59:59Z,H,DISCONTINUED,2013-03-23,,2013-02-12,2013-03-23,35,,,,,,,Confirmed Clinical Benefit by Investigator,CCB,Tumor Response,Investigator,RECIST 1.1,0,N,Y,,,,,,,,,,,,,
257,CDISCPILOT01,01-701-1180,1180,701,USA,,2013-02-12,2013-03-23,2013-02-12,2013-03-18,2013-04-07,,,,,,,,,,,,7,NA,2013-01-28,-15,56,YEARS,18-64,M,WHITE,White,NOT HISPANIC OR LATINO,Y,Xanomeline High Dose,Xan_Hi,Xanomeline High Dose,Xan_Hi,Xanomeline High Dose,Xanomeline High Dose,2013-02-12,2013-02-12T00:00:00Z,H,2013-03-18,2013-03-18T23:59:59Z,H,DISCONTINUED,2013-03-23,,2013-02-12,2013-03-23,35,,,,,,,Confirmed Response by Investigator,CRSP,Tumor Response,Investigator,RECIST 1.1,0,N,Y,,,,,,,,,,,,,
258,CDISCPILOT01,01-701-1180,1180,701,USA,,2013-02-12,2013-03-23,2013-02-12,2013-03-18,2013-04-07,,,,,,,,,,,,8,NA,2013-01-28,-15,56,YEARS,18-64,M,WHITE,White,NOT HISPANIC OR LATINO,Y,Xanomeline High Dose,Xan_Hi,Xanomeline High Dose,Xan_Hi,Xanomeline High Dose,Xanomeline High Dose,2013-02-12,2013-02-12T00:00:00Z,H,2013-03-18,2013-03-18T23:59:59Z,H,DISCONTINUED,2013-03-23,,2013-02-12,2013-03-23,35,,,,,,,Death,DEATH,Reference Event,,,0,N,Y,,,,,,,,,,,,,
259,CDISCPILOT01,01-701-1180,1180,701,USA,,2013-02-12,2013-03-23,2013-02-12,2013-03-18,2013-04-07,,,,,,,,,,,,9,NA,2013-01-28,-15,56,YEARS,18-64,M,WHITE,White,NOT HISPANIC OR LATINO,Y,Xanomeline High Dose,Xan_Hi,Xanomeline High Dose,Xan_Hi,Xanomeline High Dose,Xanomeline High Dose,2013-02-12,2013-02-12T00:00:00Z,H,2013-03-18,2013-03-18T23:59:59Z,H,DISCONTINUED,2013-03-23,,2013-02-12,2013-03-23,35,,,,,,,Last Disease Assessment by Investigator,LSTA,Tumor Response,Investigator,RECIST 1.1,,,Y,,,,,,,,,,,,,
260,CDISCPILOT01,01-701-1180,1180,701,USA,,2013-02-12,2013-03-23,2013-02-12,2013-03-18,2013-04-07,,,,,,,,,,,,10,NA,2013-01-28,-15,56,YEARS,18-64,M,WHITE,White,NOT HISPANIC OR LATINO,Y,Xanomeline High Dose,Xan_Hi,Xanomeline High Dose,Xan_Hi,Xanomeline High Dose,Xanomeline High Dose,2013-02-12,2013-02-12T00:00:00Z,H,2013-03-18,2013-03-18T23:59:59Z,H,DISCONTINUED,2013-03-23,,,2013-03-23,35,,,,,,,Measurable Disease at Baseline by Investigator,MDIS,,Investigator,RECIST 1.1,0,N,Y,,,,,,,,,,,,,
261,CDISCPILOT01,01-701-1180,1180,701,USA,,2013-02-12,2013-03-23,2013-02-12,2013-03-18,2013-04-07,,,,,,,,,,,,11,NA,2013-01-28,-15,56,YEARS,18-64,M,WHITE,White,NOT HISPANIC OR LATINO,Y,Xanomeline High Dose,Xan_Hi,Xanomeline High Dose,Xan_Hi,Xanomeline High Dose,Xanomeline High Dose,2013-02-12,2013-02-12T00:00:00Z,H,2013-03-18,2013-03-18T23:59:59Z,H,DISCONTINUED,2013-03-23,,2013-02-12,2013-03-23,35,,,,,,,Disease Progression by Investigator,PD,Tumor Response,Investigator,RECIST 1.1,0,N,Y,,,,,,,,,,,,,
262,CDISCPILOT01,01-701-1180,1180,701,USA,,2013-02-12,2013-03-23,2013-02-12,2013-03-18,2013-04-07,,,,,,,,,,,,12,NA,2013-01-28,-15,56,YEARS,18-64,M,WHITE,White,NOT HISPANIC OR LATINO,Y,Xanomeline High Dose,Xan_Hi,Xanomeline High Dose,Xan_Hi,Xanomeline High Dose,Xanomeline High Dose,2013-02-12,2013-02-12T00:00:00Z,H,2013-03-18,2013-03-18T23:59:59Z,H,DISCONTINUED,2013-03-23,,2013-02-12,2013-03-23,35,,,,,,,Response by Investigator (confirmation not required),RSP,Tumor Response,Investigator,RECIST 1.1,0,N,Y,,,,,,,,,,,,,
263,CDISCPILOT01,01-701-1181,1181,701,USA,,2013-12-05,2013-12-12,2013-12-05,2013-12-09,2014-05-23,,2014-05-23,,,,,,,,,,1,NA,2013-11-26,-9,79,YEARS,>64,F,WHITE,White,NOT HISPANIC OR LATINO,Y,Xanomeline High Dose,Xan_Hi,Xanomeline Low Dose,Xan_Lo,Xanomeline High Dose,Xanomeline Low Dose,2013-12-05,2013-12-05T00:00:00Z,H,2013-12-09,2013-12-09T23:59:59Z,H,DISCONTINUED,2013-12-12,,2013-12-05,2013-12-12,5,,,,,,,Best Overall Response of CR/PR by Investigator (confirmation not required),BCP,Tumor Response,Investigator,RECIST 1.1,0,N,Y,,,,,,,,,,,,,
264,CDISCPILOT01,01-701-1181,1181,701,USA,,2013-12-05,2013-12-12,2013-12-05,2013-12-09,2014-05-23,,2014-05-23,,,,,,,,,,2,NA,2013-11-26,-9,79,YEARS,>64,F,WHITE,White,NOT HISPANIC OR LATINO,Y,Xanomeline High Dose,Xan_Hi,Xanomeline Low Dose,Xan_Lo,Xanomeline High Dose,Xanomeline Low Dose,2013-12-05,2013-12-05T00:00:00Z,H,2013-12-09,2013-12-09T23:59:59Z,H,DISCONTINUED,2013-12-12,,2013-12-05,2013-12-12,5,,,,,,,Best Overall Response by Investigator (confirmation not required),BOR,Tumor Response,Investigator,RECIST 1.1,7,MISSING,Y,,,,,,,,,,,,,
265,CDISCPILOT01,01-701-1181,1181,701,USA,,2013-12-05,2013-12-12,2013-12-05,2013-12-09,2014-05-23,,2014-05-23,,,,,,,,,,3,NA,2013-11-26,-9,79,YEARS,>64,F,WHITE,White,NOT HISPANIC OR LATINO,Y,Xanomeline High Dose,Xan_Hi,Xanomeline Low Dose,Xan_Lo,Xanomeline High Dose,Xanomeline Low Dose,2013-12-05,2013-12-05T00:00:00Z,H,2013-12-09,2013-12-09T23:59:59Z,H,DISCONTINUED,2013-12-12,,2013-12-05,2013-12-12,5,,,,,,,Clinical Benefit by Investigator (confirmation for response not required),CB,Tumor Response,Investigator,RECIST 1.1,0,N,Y,,,,,,,,,,,,,
266,CDISCPILOT01,01-701-1181,1181,701,USA,,2013-12-05,2013-12-12,2013-12-05,2013-12-09,2014-05-23,,2014-05-23,,,,,,,,,,4,NA,2013-11-26,-9,79,YEARS,>64,F,WHITE,White,NOT HISPANIC OR LATINO,Y,Xanomeline High Dose,Xan_Hi,Xanomeline Low Dose,Xan_Lo,Xanomeline High Dose,Xanomeline Low Dose,2013-12-05,2013-12-05T00:00:00Z,H,2013-12-09,2013-12-09T23:59:59Z,H,DISCONTINUED,2013-12-12,,2013-12-05,2013-12-12,5,,,,,,,Best Confirmed Overall Response of CR/PR by Investigator,CBCP,Tumor Response,Investigator,RECIST 1.1,0,N,Y,,,,,,,,,,,,,
267,CDISCPILOT01,01-701-1181,1181,701,USA,,2013-12-05,2013-12-12,2013-12-05,2013-12-09,2014-05-23,,2014-05-23,,,,,,,,,,5,NA,2013-11-26,-9,79,YEARS,>64,F,WHITE,White,NOT HISPANIC OR LATINO,Y,Xanomeline High Dose,Xan_Hi,Xanomeline Low Dose,Xan_Lo,Xanomeline High Dose,Xanomeline Low Dose,2013-12-05,2013-12-05T00:00:00Z,H,2013-12-09,2013-12-09T23:59:59Z,H,DISCONTINUED,2013-12-12,,2013-12-05,2013-12-12,5,,,,,,,Best Confirmed Overall Response by Investigator,CBOR,Tumor Response,Investigator,RECIST 1.1,7,MISSING,Y,,,,,,,,,,,,,
268,CDISCPILOT01,01-701-1181,1181,701,USA,,2013-12-05,2013-12-12,2013-12-05,2013-12-09,2014-05-23,,2014-05-23,,,,,,,,,,6,NA,2013-11-26,-9,79,YEARS,>64,F,WHITE,White,NOT HISPANIC OR LATINO,Y,Xanomeline High Dose,Xan_Hi,Xanomeline Low Dose,Xan_Lo,Xanomeline High Dose,Xanomeline Low Dose,2013-12-05,2013-12-05T00:00:00Z,H,2013-12-09,2013-12-09T23:59:59Z,H,DISCONTINUED,2013-12-12,,2013-12-05,2013-12-12,5,,,,,,,Confirmed Clinical Benefit by Investigator,CCB,Tumor Response,Investigator,RECIST 1.1,0,N,Y,,,,,,,,,,,,,
269,CDISCPILOT01,01-701-1181,1181,701,USA,,2013-12-05,2013-12-12,2013-12-05,2013-12-09,2014-05-23,,2014-05-23,,,,,,,,,,7,NA,2013-11-26,-9,79,YEARS,>64,F,WHITE,White,NOT HISPANIC OR LATINO,Y,Xanomeline High Dose,Xan_Hi,Xanomeline Low Dose,Xan_Lo,Xanomeline High Dose,Xanomeline Low Dose,2013-12-05,2013-12-05T00:00:00Z,H,2013-12-09,2013-12-09T23:59:59Z,H,DISCONTINUED,2013-12-12,,2013-12-05,2013-12-12,5,,,,,,,Confirmed Response by Investigator,CRSP,Tumor Response,Investigator,RECIST 1.1,0,N,Y,,,,,,,,,,,,,
270,CDISCPILOT01,01-701-1181,1181,701,USA,,2013-12-05,2013-12-12,2013-12-05,2013-12-09,2014-05-23,,2014-05-23,,,,,,,,,,8,NA,2013-11-26,-9,79,YEARS,>64,F,WHITE,White,NOT HISPANIC OR LATINO,Y,Xanomeline High Dose,Xan_Hi,Xanomeline Low Dose,Xan_Lo,Xanomeline High Dose,Xanomeline Low Dose,2013-12-05,2013-12-05T00:00:00Z,H,2013-12-09,2013-12-09T23:59:59Z,H,DISCONTINUED,2013-12-12,,2013-12-05,2013-12-12,5,,,,,,,Death,DEATH,Reference Event,,,0,N,Y,,,,,,,,,,,,,
271,CDISCPILOT01,01-701-1181,1181,701,USA,,2013-12-05,2013-12-12,2013-12-05,2013-12-09,2014-05-23,,2014-05-23,,,,,,,,,,9,NA,2013-11-26,-9,79,YEARS,>64,F,WHITE,White,NOT HISPANIC OR LATINO,Y,Xanomeline High Dose,Xan_Hi,Xanomeline Low Dose,Xan_Lo,Xanomeline High Dose,Xanomeline Low Dose,2013-12-05,2013-12-05T00:00:00Z,H,2013-12-09,2013-12-09T23:59:59Z,H,DISCONTINUED,2013-12-12,,2013-12-05,2013-12-12,5,,,,,,,Last Disease Assessment by Investigator,LSTA,Tumor Response,Investigator,RECIST 1.1,,,Y,,,,,,,,,,,,,
272,CDISCPILOT01,01-701-1181,1181,701,USA,,2013-12-05,2013-12-12,2013-12-05,2013-12-09,2014-05-23,,2014-05-23,,,,,,,,,,10,NA,2013-11-26,-9,79,YEARS,>64,F,WHITE,White,NOT HISPANIC OR LATINO,Y,Xanomeline High Dose,Xan_Hi,Xanomeline Low Dose,Xan_Lo,Xanomeline High Dose,Xanomeline Low Dose,2013-12-05,2013-12-05T00:00:00Z,H,2013-12-09,2013-12-09T23:59:59Z,H,DISCONTINUED,2013-12-12,,,2013-12-12,5,,,,,,,Measurable Disease at Baseline by Investigator,MDIS,,Investigator,RECIST 1.1,0,N,Y,,,,,,,,,,,,,
273,CDISCPILOT01,01-701-1181,1181,701,USA,,2013-12-05,2013-12-12,2013-12-05,2013-12-09,2014-05-23,,2014-05-23,,,,,,,,,,11,NA,2013-11-26,-9,79,YEARS,>64,F,WHITE,White,NOT HISPANIC OR LATINO,Y,Xanomeline High Dose,Xan_Hi,Xanomeline Low Dose,Xan_Lo,Xanomeline High Dose,Xanomeline Low Dose,2013-12-05,2013-12-05T00:00:00Z,H,2013-12-09,2013-12-09T23:59:59Z,H,DISCONTINUED,2013-12-12,,2013-12-05,2013-12-12,5,,,,,,,Disease Progression by Investigator,PD,Tumor Response,Investigator,RECIST 1.1,0,N,Y,,,,,,,,,,,,,
274,CDISCPILOT01,01-701-1181,1181,701,USA,,2013-12-05,2013-12-12,2013-12-05,2013-12-09,2014-05-23,,2014-05-23,,,,,,,,,,12,NA,2013-11-26,-9,79,YEARS,>64,F,WHITE,White,NOT HISPANIC OR LATINO,Y,Xanomeline High Dose,Xan_Hi,Xanomeline Low Dose,Xan_Lo,Xanomeline High Dose,Xanomeline Low Dose,2013-12-05,2013-12-05T00:00:00Z,H,2013-12-09,2013-12-09T23:59:59Z,H,DISCONTINUED,2013-12-12,,2013-12-05,2013-12-12,5,,,,,,,Response by Investigator (confirmation not required),RSP,Tumor Response,Investigator,RECIST 1.1,0,N,Y,,,,,,,,,,,,,
275,CDISCPILOT01,01-701-1188,1188,701,USA,,2013-02-15,2013-03-25,2013-02-15,2013-03-24,2013-08-04,,2013-08-04,,,,,,,,,,1,NA,2013-02-03,-12,71,YEARS,>64,M,WHITE,White,NOT HISPANIC OR LATINO,Y,Xanomeline Low Dose,Xan_Lo,Xanomeline Low Dose,Xan_Lo,Xanomeline Low Dose,Xanomeline Low Dose,2013-02-15,2013-02-15T00:00:00Z,H,2013-03-24,2013-03-24T23:59:59Z,H,DISCONTINUED,2013-03-25,,2013-02-15,2013-03-25,38,,,,,,,Best Overall Response of CR/PR by Investigator (confirmation not required),BCP,Tumor Response,Investigator,RECIST 1.1,0,N,Y,,,,,,,,,,,,,
276,CDISCPILOT01,01-701-1188,1188,701,USA,,2013-02-15,2013-03-25,2013-02-15,2013-03-24,2013-08-04,,2013-08-04,,,,,,,,,,2,NA,2013-02-03,-12,71,YEARS,>64,M,WHITE,White,NOT HISPANIC OR LATINO,Y,Xanomeline Low Dose,Xan_Lo,Xanomeline Low Dose,Xan_Lo,Xanomeline Low Dose,Xanomeline Low Dose,2013-02-15,2013-02-15T00:00:00Z,H,2013-03-24,2013-03-24T23:59:59Z,H,DISCONTINUED,2013-03-25,,2013-02-15,2013-03-25,38,,,,,,,Best Overall Response by Investigator (confirmation not required),BOR,Tumor Response,Investigator,RECIST 1.1,7,MISSING,Y,,,,,,,,,,,,,
277,CDISCPILOT01,01-701-1188,1188,701,USA,,2013-02-15,2013-03-25,2013-02-15,2013-03-24,2013-08-04,,2013-08-04,,,,,,,,,,3,NA,2013-02-03,-12,71,YEARS,>64,M,WHITE,White,NOT HISPANIC OR LATINO,Y,Xanomeline Low Dose,Xan_Lo,Xanomeline Low Dose,Xan_Lo,Xanomeline Low Dose,Xanomeline Low Dose,2013-02-15,2013-02-15T00:00:00Z,H,2013-03-24,2013-03-24T23:59:59Z,H,DISCONTINUED,2013-03-25,,2013-02-15,2013-03-25,38,,,,,,,Clinical Benefit by Investigator (confirmation for response not required),CB,Tumor Response,Investigator,RECIST 1.1,0,N,Y,,,,,,,,,,,,,
278,CDISCPILOT01,01-701-1188,1188,701,USA,,2013-02-15,2013-03-25,2013-02-15,2013-03-24,2013-08-04,,2013-08-04,,,,,,,,,,4,NA,2013-02-03,-12,71,YEARS,>64,M,WHITE,White,NOT HISPANIC OR LATINO,Y,Xanomeline Low Dose,Xan_Lo,Xanomeline Low Dose,Xan_Lo,Xanomeline Low Dose,Xanomeline Low Dose,2013-02-15,2013-02-15T00:00:00Z,H,2013-03-24,2013-03-24T23:59:59Z,H,DISCONTINUED,2013-03-25,,2013-02-15,2013-03-25,38,,,,,,,Best Confirmed Overall Response of CR/PR by Investigator,CBCP,Tumor Response,Investigator,RECIST 1.1,0,N,Y,,,,,,,,,,,,,
279,CDISCPILOT01,01-701-1188,1188,701,USA,,2013-02-15,2013-03-25,2013-02-15,2013-03-24,2013-08-04,,2013-08-04,,,,,,,,,,5,NA,2013-02-03,-12,71,YEARS,>64,M,WHITE,White,NOT HISPANIC OR LATINO,Y,Xanomeline Low Dose,Xan_Lo,Xanomeline Low Dose,Xan_Lo,Xanomeline Low Dose,Xanomeline Low Dose,2013-02-15,2013-02-15T00:00:00Z,H,2013-03-24,2013-03-24T23:59:59Z,H,DISCONTINUED,2013-03-25,,2013-02-15,2013-03-25,38,,,,,,,Best Confirmed Overall Response by Investigator,CBOR,Tumor Response,Investigator,RECIST 1.1,7,MISSING,Y,,,,,,,,,,,,,
280,CDISCPILOT01,01-701-1188,1188,701,USA,,2013-02-15,2013-03-25,2013-02-15,2013-03-24,2013-08-04,,2013-08-04,,,,,,,,,,6,NA,2013-02-03,-12,71,YEARS,>64,M,WHITE,White,NOT HISPANIC OR LATINO,Y,Xanomeline Low Dose,Xan_Lo,Xanomeline Low Dose,Xan_Lo,Xanomeline Low Dose,Xanomeline Low Dose,2013-02-15,2013-02-15T00:00:00Z,H,2013-03-24,2013-03-24T23:59:59Z,H,DISCONTINUED,2013-03-25,,2013-02-15,2013-03-25,38,,,,,,,Confirmed Clinical Benefit by Investigator,CCB,Tumor Response,Investigator,RECIST 1.1,0,N,Y,,,,,,,,,,,,,
281,CDISCPILOT01,01-701-1188,1188,701,USA,,2013-02-15,2013-03-25,2013-02-15,2013-03-24,2013-08-04,,2013-08-04,,,,,,,,,,7,NA,2013-02-03,-12,71,YEARS,>64,M,WHITE,White,NOT HISPANIC OR LATINO,Y,Xanomeline Low Dose,Xan_Lo,Xanomeline Low Dose,Xan_Lo,Xanomeline Low Dose,Xanomeline Low Dose,2013-02-15,2013-02-15T00:00:00Z,H,2013-03-24,2013-03-24T23:59:59Z,H,DISCONTINUED,2013-03-25,,2013-02-15,2013-03-25,38,,,,,,,Confirmed Response by Investigator,CRSP,Tumor Response,Investigator,RECIST 1.1,0,N,Y,,,,,,,,,,,,,
282,CDISCPILOT01,01-701-1188,1188,701,USA,,2013-02-15,2013-03-25,2013-02-15,2013-03-24,2013-08-04,,2013-08-04,,,,,,,,,,8,NA,2013-02-03,-12,71,YEARS,>64,M,WHITE,White,NOT HISPANIC OR LATINO,Y,Xanomeline Low Dose,Xan_Lo,Xanomeline Low Dose,Xan_Lo,Xanomeline Low Dose,Xanomeline Low Dose,2013-02-15,2013-02-15T00:00:00Z,H,2013-03-24,2013-03-24T23:59:59Z,H,DISCONTINUED,2013-03-25,,2013-02-15,2013-03-25,38,,,,,,,Death,DEATH,Reference Event,,,0,N,Y,,,,,,,,,,,,,
283,CDISCPILOT01,01-701-1188,1188,701,USA,,2013-02-15,2013-03-25,2013-02-15,2013-03-24,2013-08-04,,2013-08-04,,,,,,,,,,9,NA,2013-02-03,-12,71,YEARS,>64,M,WHITE,White,NOT HISPANIC OR LATINO,Y,Xanomeline Low Dose,Xan_Lo,Xanomeline Low Dose,Xan_Lo,Xanomeline Low Dose,Xanomeline Low Dose,2013-02-15,2013-02-15T00:00:00Z,H,2013-03-24,2013-03-24T23:59:59Z,H,DISCONTINUED,2013-03-25,,2013-02-15,2013-03-25,38,,,,,,,Last Disease Assessment by Investigator,LSTA,Tumor Response,Investigator,RECIST 1.1,,,Y,,,,,,,,,,,,,
284,CDISCPILOT01,01-701-1188,1188,701,USA,,2013-02-15,2013-03-25,2013-02-15,2013-03-24,2013-08-04,,2013-08-04,,,,,,,,,,10,NA,2013-02-03,-12,71,YEARS,>64,M,WHITE,White,NOT HISPANIC OR LATINO,Y,Xanomeline Low Dose,Xan_Lo,Xanomeline Low Dose,Xan_Lo,Xanomeline Low Dose,Xanomeline Low Dose,2013-02-15,2013-02-15T00:00:00Z,H,2013-03-24,2013-03-24T23:59:59Z,H,DISCONTINUED,2013-03-25,,,2013-03-25,38,,,,,,,Measurable Disease at Baseline by Investigator,MDIS,,Investigator,RECIST 1.1,0,N,Y,,,,,,,,,,,,,
285,CDISCPILOT01,01-701-1188,1188,701,USA,,2013-02-15,2013-03-25,2013-02-15,2013-03-24,2013-08-04,,2013-08-04,,,,,,,,,,11,NA,2013-02-03,-12,71,YEARS,>64,M,WHITE,White,NOT HISPANIC OR LATINO,Y,Xanomeline Low Dose,Xan_Lo,Xanomeline Low Dose,Xan_Lo,Xanomeline Low Dose,Xanomeline Low Dose,2013-02-15,2013-02-15T00:00:00Z,H,2013-03-24,2013-03-24T23:59:59Z,H,DISCONTINUED,2013-03-25,,2013-02-15,2013-03-25,38,,,,,,,Disease Progression by Investigator,PD,Tumor Response,Investigator,RECIST 1.1,0,N,Y,,,,,,,,,,,,,
286,CDISCPILOT01,01-701-1188,1188,701,USA,,2013-02-15,2013-03-25,2013-02-15,2013-03-24,2013-08-04,,2013-08-04,,,,,,,,,,12,NA,2013-02-03,-12,71,YEARS,>64,M,WHITE,White,NOT HISPANIC OR LATINO,Y,Xanomeline Low Dose,Xan_Lo,Xanomeline Low Dose,Xan_Lo,Xanomeline Low Dose,Xanomeline Low Dose,2013-02-15,2013-02-15T00:00:00Z,H,2013-03-24,2013-03-24T23:59:59Z,H,DISCONTINUED,2013-03-25,,2013-02-15,2013-03-25,38,,,,,,,Response by Investigator (confirmation not required),RSP,Tumor Response,Investigator,RECIST 1.1,0,N,Y,,,,,,,,,,,,,
287,CDISCPILOT01,01-701-1192,1192,701,USA,,2012-07-22,2013-01-20,2012-07-22,2013-01-20,2013-01-20T15:47,,,,,,,,,,,,1,NA,2012-07-08,-14,80,YEARS,>64,F,WHITE,White,NOT HISPANIC OR LATINO,Y,Xanomeline Low Dose,Xan_Lo,Xanomeline Low Dose,Xan_Lo,Xanomeline Low Dose,Xanomeline Low Dose,2012-07-22,2012-07-22T00:00:00Z,H,2013-01-20,2013-01-20T23:59:59Z,H,COMPLETED,2013-01-20,,2012-07-22,2013-01-20,183,,,,,,,Best Overall Response of CR/PR by Investigator (confirmation not required),BCP,Tumor Response,Investigator,RECIST 1.1,0,N,Y,,,,,,,,,,,,,
288,CDISCPILOT01,01-701-1192,1192,701,USA,,2012-07-22,2013-01-20,2012-07-22,2013-01-20,2013-01-20T15:47,,,,,,,,,,,,2,NA,2012-07-08,-14,80,YEARS,>64,F,WHITE,White,NOT HISPANIC OR LATINO,Y,Xanomeline Low Dose,Xan_Lo,Xanomeline Low Dose,Xan_Lo,Xanomeline Low Dose,Xanomeline Low Dose,2012-07-22,2012-07-22T00:00:00Z,H,2013-01-20,2013-01-20T23:59:59Z,H,COMPLETED,2013-01-20,,2012-07-22,2013-01-20,183,,,,,,,Best Overall Response by Investigator (confirmation not required),BOR,Tumor Response,Investigator,RECIST 1.1,7,MISSING,Y,,,,,,,,,,,,,
289,CDISCPILOT01,01-701-1192,1192,701,USA,,2012-07-22,2013-01-20,2012-07-22,2013-01-20,2013-01-20T15:47,,,,,,,,,,,,3,NA,2012-07-08,-14,80,YEARS,>64,F,WHITE,White,NOT HISPANIC OR LATINO,Y,Xanomeline Low Dose,Xan_Lo,Xanomeline Low Dose,Xan_Lo,Xanomeline Low Dose,Xanomeline Low Dose,2012-07-22,2012-07-22T00:00:00Z,H,2013-01-20,2013-01-20T23:59:59Z,H,COMPLETED,2013-01-20,,2012-07-22,2013-01-20,183,,,,,,,Clinical Benefit by Investigator (confirmation for response not required),CB,Tumor Response,Investigator,RECIST 1.1,0,N,Y,,,,,,,,,,,,,
290,CDISCPILOT01,01-701-1192,1192,701,USA,,2012-07-22,2013-01-20,2012-07-22,2013-01-20,2013-01-20T15:47,,,,,,,,,,,,4,NA,2012-07-08,-14,80,YEARS,>64,F,WHITE,White,NOT HISPANIC OR LATINO,Y,Xanomeline Low Dose,Xan_Lo,Xanomeline Low Dose,Xan_Lo,Xanomeline Low Dose,Xanomeline Low Dose,2012-07-22,2012-07-22T00:00:00Z,H,2013-01-20,2013-01-20T23:59:59Z,H,COMPLETED,2013-01-20,,2012-07-22,2013-01-20,183,,,,,,,Best Confirmed Overall Response of CR/PR by Investigator,CBCP,Tumor Response,Investigator,RECIST 1.1,0,N,Y,,,,,,,,,,,,,
291,CDISCPILOT01,01-701-1192,1192,701,USA,,2012-07-22,2013-01-20,2012-07-22,2013-01-20,2013-01-20T15:47,,,,,,,,,,,,5,NA,2012-07-08,-14,80,YEARS,>64,F,WHITE,White,NOT HISPANIC OR LATINO,Y,Xanomeline Low Dose,Xan_Lo,Xanomeline Low Dose,Xan_Lo,Xanomeline Low Dose,Xanomeline Low Dose,2012-07-22,2012-07-22T00:00:00Z,H,2013-01-20,2013-01-20T23:59:59Z,H,COMPLETED,2013-01-20,,2012-07-22,2013-01-20,183,,,,,,,Best Confirmed Overall Response by Investigator,CBOR,Tumor Response,Investigator,RECIST 1.1,7,MISSING,Y,,,,,,,,,,,,,
292,CDISCPILOT01,01-701-1192,1192,701,USA,,2012-07-22,2013-01-20,2012-07-22,2013-01-20,2013-01-20T15:47,,,,,,,,,,,,6,NA,2012-07-08,-14,80,YEARS,>64,F,WHITE,White,NOT HISPANIC OR LATINO,Y,Xanomeline Low Dose,Xan_Lo,Xanomeline Low Dose,Xan_Lo,Xanomeline Low Dose,Xanomeline Low Dose,2012-07-22,2012-07-22T00:00:00Z,H,2013-01-20,2013-01-20T23:59:59Z,H,COMPLETED,2013-01-20,,2012-07-22,2013-01-20,183,,,,,,,Confirmed Clinical Benefit by Investigator,CCB,Tumor Response,Investigator,RECIST 1.1,0,N,Y,,,,,,,,,,,,,
293,CDISCPILOT01,01-701-1192,1192,701,USA,,2012-07-22,2013-01-20,2012-07-22,2013-01-20,2013-01-20T15:47,,,,,,,,,,,,7,NA,2012-07-08,-14,80,YEARS,>64,F,WHITE,White,NOT HISPANIC OR LATINO,Y,Xanomeline Low Dose,Xan_Lo,Xanomeline Low Dose,Xan_Lo,Xanomeline Low Dose,Xanomeline Low Dose,2012-07-22,2012-07-22T00:00:00Z,H,2013-01-20,2013-01-20T23:59:59Z,H,COMPLETED,2013-01-20,,2012-07-22,2013-01-20,183,,,,,,,Confirmed Response by Investigator,CRSP,Tumor Response,Investigator,RECIST 1.1,0,N,Y,,,,,,,,,,,,,
294,CDISCPILOT01,01-701-1192,1192,701,USA,,2012-07-22,2013-01-20,2012-07-22,2013-01-20,2013-01-20T15:47,,,,,,,,,,,,8,NA,2012-07-08,-14,80,YEARS,>64,F,WHITE,White,NOT HISPANIC OR LATINO,Y,Xanomeline Low Dose,Xan_Lo,Xanomeline Low Dose,Xan_Lo,Xanomeline Low Dose,Xanomeline Low Dose,2012-07-22,2012-07-22T00:00:00Z,H,2013-01-20,2013-01-20T23:59:59Z,H,COMPLETED,2013-01-20,,2012-07-22,2013-01-20,183,,,,,,,Death,DEATH,Reference Event,,,0,N,Y,,,,,,,,,,,,,
295,CDISCPILOT01,01-701-1192,1192,701,USA,,2012-07-22,2013-01-20,2012-07-22,2013-01-20,2013-01-20T15:47,,,,,,,,,,,,9,NA,2012-07-08,-14,80,YEARS,>64,F,WHITE,White,NOT HISPANIC OR LATINO,Y,Xanomeline Low Dose,Xan_Lo,Xanomeline Low Dose,Xan_Lo,Xanomeline Low Dose,Xanomeline Low Dose,2012-07-22,2012-07-22T00:00:00Z,H,2013-01-20,2013-01-20T23:59:59Z,H,COMPLETED,2013-01-20,,2012-07-22,2013-01-20,183,,,,,,,Last Disease Assessment by Investigator,LSTA,Tumor Response,Investigator,RECIST 1.1,,,Y,,,,,,,,,,,,,
296,CDISCPILOT01,01-701-1192,1192,701,USA,,2012-07-22,2013-01-20,2012-07-22,2013-01-20,2013-01-20T15:47,,,,,,,,,,,,10,NA,2012-07-08,-14,80,YEARS,>64,F,WHITE,White,NOT HISPANIC OR LATINO,Y,Xanomeline Low Dose,Xan_Lo,Xanomeline Low Dose,Xan_Lo,Xanomeline Low Dose,Xanomeline Low Dose,2012-07-22,2012-07-22T00:00:00Z,H,2013-01-20,2013-01-20T23:59:59Z,H,COMPLETED,2013-01-20,,,2013-01-20,183,,,,,,,Measurable Disease at Baseline by Investigator,MDIS,,Investigator,RECIST 1.1,0,N,Y,,,,,,,,,,,,,
297,CDISCPILOT01,01-701-1192,1192,701,USA,,2012-07-22,2013-01-20,2012-07-22,2013-01-20,2013-01-20T15:47,,,,,,,,,,,,11,NA,2012-07-08,-14,80,YEARS,>64,F,WHITE,White,NOT HISPANIC OR LATINO,Y,Xanomeline Low Dose,Xan_Lo,Xanomeline Low Dose,Xan_Lo,Xanomeline Low Dose,Xanomeline Low Dose,2012-07-22,2012-07-22T00:00:00Z,H,2013-01-20,2013-01-20T23:59:59Z,H,COMPLETED,2013-01-20,,2012-07-22,2013-01-20,183,,,,,,,Disease Progression by Investigator,PD,Tumor Response,Investigator,RECIST 1.1,0,N,Y,,,,,,,,,,,,,
298,CDISCPILOT01,01-701-1192,1192,701,USA,,2012-07-22,2013-01-20,2012-07-22,2013-01-20,2013-01-20T15:47,,,,,,,,,,,,12,NA,2012-07-08,-14,80,YEARS,>64,F,WHITE,White,NOT HISPANIC OR LATINO,Y,Xanomeline Low Dose,Xan_Lo,Xanomeline Low Dose,Xan_Lo,Xanomeline Low Dose,Xanomeline Low Dose,2012-07-22,2012-07-22T00:00:00Z,H,2013-01-20,2013-01-20T23:59:59Z,H,COMPLETED,2013-01-20,,2012-07-22,2013-01-20,183,,,,,,,Response by Investigator (confirmation not required),RSP,Tumor Response,Investigator,RECIST 1.1,0,N,Y,,,,,,,,,,,,,
299,CDISCPILOT01,01-701-1203,1203,701,USA,,2013-02-02,2013-08-03,2013-02-02,2013-08-03,2013-08-03T10:10,,,,,,,,,,,,1,NA,2013-01-25,-8,81,YEARS,>64,F,BLACK OR AFRICAN AMERICAN,Non-white,NOT HISPANIC OR LATINO,Y,Placebo,Pbo,Placebo,Pbo,Placebo,Placebo,2013-02-02,2013-02-02T00:00:00Z,H,2013-08-03,2013-08-03T23:59:59Z,H,COMPLETED,2013-08-03,,2013-02-02,2013-08-03,183,,,,,,,Best Overall Response of CR/PR by Investigator (confirmation not required),BCP,Tumor Response,Investigator,RECIST 1.1,0,N,Y,,,,,,,,,,,,,
300,CDISCPILOT01,01-701-1203,1203,701,USA,,2013-02-02,2013-08-03,2013-02-02,2013-08-03,2013-08-03T10:10,,,,,,,,,,,,2,NA,2013-01-25,-8,81,YEARS,>64,F,BLACK OR AFRICAN AMERICAN,Non-white,NOT HISPANIC OR LATINO,Y,Placebo,Pbo,Placebo,Pbo,Placebo,Placebo,2013-02-02,2013-02-02T00:00:00Z,H,2013-08-03,2013-08-03T23:59:59Z,H,COMPLETED,2013-08-03,,2013-02-02,2013-08-03,183,,,,,,,Best Overall Response by Investigator (confirmation not required),BOR,Tumor Response,Investigator,RECIST 1.1,7,MISSING,Y,,,,,,,,,,,,,
301,CDISCPILOT01,01-701-1203,1203,701,USA,,2013-02-02,2013-08-03,2013-02-02,2013-08-03,2013-08-03T10:10,,,,,,,,,,,,3,NA,2013-01-25,-8,81,YEARS,>64,F,BLACK OR AFRICAN AMERICAN,Non-white,NOT HISPANIC OR LATINO,Y,Placebo,Pbo,Placebo,Pbo,Placebo,Placebo,2013-02-02,2013-02-02T00:00:00Z,H,2013-08-03,2013-08-03T23:59:59Z,H,COMPLETED,2013-08-03,,2013-02-02,2013-08-03,183,,,,,,,Clinical Benefit by Investigator (confirmation for response not required),CB,Tumor Response,Investigator,RECIST 1.1,0,N,Y,,,,,,,,,,,,,
302,CDISCPILOT01,01-701-1203,1203,701,USA,,2013-02-02,2013-08-03,2013-02-02,2013-08-03,2013-08-03T10:10,,,,,,,,,,,,4,NA,2013-01-25,-8,81,YEARS,>64,F,BLACK OR AFRICAN AMERICAN,Non-white,NOT HISPANIC OR LATINO,Y,Placebo,Pbo,Placebo,Pbo,Placebo,Placebo,2013-02-02,2013-02-02T00:00:00Z,H,2013-08-03,2013-08-03T23:59:59Z,H,COMPLETED,2013-08-03,,2013-02-02,2013-08-03,183,,,,,,,Best Confirmed Overall Response of CR/PR by Investigator,CBCP,Tumor Response,Investigator,RECIST 1.1,0,N,Y,,,,,,,,,,,,,
303,CDISCPILOT01,01-701-1203,1203,701,USA,,2013-02-02,2013-08-03,2013-02-02,2013-08-03,2013-08-03T10:10,,,,,,,,,,,,5,NA,2013-01-25,-8,81,YEARS,>64,F,BLACK OR AFRICAN AMERICAN,Non-white,NOT HISPANIC OR LATINO,Y,Placebo,Pbo,Placebo,Pbo,Placebo,Placebo,2013-02-02,2013-02-02T00:00:00Z,H,2013-08-03,2013-08-03T23:59:59Z,H,COMPLETED,2013-08-03,,2013-02-02,2013-08-03,183,,,,,,,Best Confirmed Overall Response by Investigator,CBOR,Tumor Response,Investigator,RECIST 1.1,7,MISSING,Y,,,,,,,,,,,,,
304,CDISCPILOT01,01-701-1203,1203,701,USA,,2013-02-02,2013-08-03,2013-02-02,2013-08-03,2013-08-03T10:10,,,,,,,,,,,,6,NA,2013-01-25,-8,81,YEARS,>64,F,BLACK OR AFRICAN AMERICAN,Non-white,NOT HISPANIC OR LATINO,Y,Placebo,Pbo,Placebo,Pbo,Placebo,Placebo,2013-02-02,2013-02-02T00:00:00Z,H,2013-08-03,2013-08-03T23:59:59Z,H,COMPLETED,2013-08-03,,2013-02-02,2013-08-03,183,,,,,,,Confirmed Clinical Benefit by Investigator,CCB,Tumor Response,Investigator,RECIST 1.1,0,N,Y,,,,,,,,,,,,,
305,CDISCPILOT01,01-701-1203,1203,701,USA,,2013-02-02,2013-08-03,2013-02-02,2013-08-03,2013-08-03T10:10,,,,,,,,,,,,7,NA,2013-01-25,-8,81,YEARS,>64,F,BLACK OR AFRICAN AMERICAN,Non-white,NOT HISPANIC OR LATINO,Y,Placebo,Pbo,Placebo,Pbo,Placebo,Placebo,2013-02-02,2013-02-02T00:00:00Z,H,2013-08-03,2013-08-03T23:59:59Z,H,COMPLETED,2013-08-03,,2013-02-02,2013-08-03,183,,,,,,,Confirmed Response by Investigator,CRSP,Tumor Response,Investigator,RECIST 1.1,0,N,Y,,,,,,,,,,,,,
306,CDISCPILOT01,01-701-1203,1203,701,USA,,2013-02-02,2013-08-03,2013-02-02,2013-08-03,2013-08-03T10:10,,,,,,,,,,,,8,NA,2013-01-25,-8,81,YEARS,>64,F,BLACK OR AFRICAN AMERICAN,Non-white,NOT HISPANIC OR LATINO,Y,Placebo,Pbo,Placebo,Pbo,Placebo,Placebo,2013-02-02,2013-02-02T00:00:00Z,H,2013-08-03,2013-08-03T23:59:59Z,H,COMPLETED,2013-08-03,,2013-02-02,2013-08-03,183,,,,,,,Death,DEATH,Reference Event,,,0,N,Y,,,,,,,,,,,,,
307,CDISCPILOT01,01-701-1203,1203,701,USA,,2013-02-02,2013-08-03,2013-02-02,2013-08-03,2013-08-03T10:10,,,,,,,,,,,,9,NA,2013-01-25,-8,81,YEARS,>64,F,BLACK OR AFRICAN AMERICAN,Non-white,NOT HISPANIC OR LATINO,Y,Placebo,Pbo,Placebo,Pbo,Placebo,Placebo,2013-02-02,2013-02-02T00:00:00Z,H,2013-08-03,2013-08-03T23:59:59Z,H,COMPLETED,2013-08-03,,2013-02-02,2013-08-03,183,,,,,,,Last Disease Assessment by Investigator,LSTA,Tumor Response,Investigator,RECIST 1.1,,,Y,,,,,,,,,,,,,
308,CDISCPILOT01,01-701-1203,1203,701,USA,,2013-02-02,2013-08-03,2013-02-02,2013-08-03,2013-08-03T10:10,,,,,,,,,,,,10,NA,2013-01-25,-8,81,YEARS,>64,F,BLACK OR AFRICAN AMERICAN,Non-white,NOT HISPANIC OR LATINO,Y,Placebo,Pbo,Placebo,Pbo,Placebo,Placebo,2013-02-02,2013-02-02T00:00:00Z,H,2013-08-03,2013-08-03T23:59:59Z,H,COMPLETED,2013-08-03,,,2013-08-03,183,,,,,,,Measurable Disease at Baseline by Investigator,MDIS,,Investigator,RECIST 1.1,0,N,Y,,,,,,,,,,,,,
309,CDISCPILOT01,01-701-1203,1203,701,USA,,2013-02-02,2013-08-03,2013-02-02,2013-08-03,2013-08-03T10:10,,,,,,,,,,,,11,NA,2013-01-25,-8,81,YEARS,>64,F,BLACK OR AFRICAN AMERICAN,Non-white,NOT HISPANIC OR LATINO,Y,Placebo,Pbo,Placebo,Pbo,Placebo,Placebo,2013-02-02,2013-02-02T00:00:00Z,H,2013-08-03,2013-08-03T23:59:59Z,H,COMPLETED,2013-08-03,,2013-02-02,2013-08-03,183,,,,,,,Disease Progression by Investigator,PD,Tumor Response,Investigator,RECIST 1.1,0,N,Y,,,,,,,,,,,,,
310,CDISCPILOT01,01-701-1203,1203,701,USA,,2013-02-02,2013-08-03,2013-02-02,2013-08-03,2013-08-03T10:10,,,,,,,,,,,,12,NA,2013-01-25,-8,81,YEARS,>64,F,BLACK OR AFRICAN AMERICAN,Non-white,NOT HISPANIC OR LATINO,Y,Placebo,Pbo,Placebo,Pbo,Placebo,Placebo,2013-02-02,2013-02-02T00:00:00Z,H,2013-08-03,2013-08-03T23:59:59Z,H,COMPLETED,2013-08-03,,2013-02-02,2013-08-03,183,,,,,,,Response by Investigator (confirmation not required),RSP,Tumor Response,Investigator,RECIST 1.1,0,N,Y,,,,,,,,,,,,,
311,CDISCPILOT01,01-701-1211,1211,701,USA,,2012-11-15,2013-01-14,2012-11-15,2013-01-12,2013-01-14,,,2013-01-14,61,Y,2,<= 30,Y,,AE,,1,NA,2012-10-30,-16,76,YEARS,>64,F,WHITE,White,NOT HISPANIC OR LATINO,Y,Xanomeline Low Dose,Xan_Lo,Xanomeline Low Dose,Xan_Lo,Xanomeline Low Dose,Xanomeline Low Dose,2012-11-15,2012-11-15T00:00:00Z,H,2013-01-12,2013-01-12T23:59:59Z,H,DISCONTINUED,2013-01-14,,2012-11-15,2013-01-14,59,2013-01-14,SUDDEN DEATH,ADVERSE EVENT,,,,Best Overall Response of CR/PR by Investigator (confirmation not required),BCP,Tumor Response,Investigator,RECIST 1.1,0,N,Y,,,,,,,,,,,,,
312,CDISCPILOT01,01-701-1211,1211,701,USA,,2012-11-15,2013-01-14,2012-11-15,2013-01-12,2013-01-14,,,2013-01-14,61,Y,2,<= 30,Y,,AE,,2,NA,2012-10-30,-16,76,YEARS,>64,F,WHITE,White,NOT HISPANIC OR LATINO,Y,Xanomeline Low Dose,Xan_Lo,Xanomeline Low Dose,Xan_Lo,Xanomeline Low Dose,Xanomeline Low Dose,2012-11-15,2012-11-15T00:00:00Z,H,2013-01-12,2013-01-12T23:59:59Z,H,DISCONTINUED,2013-01-14,,2012-11-15,2013-01-14,59,2013-01-14,SUDDEN DEATH,ADVERSE EVENT,,,,Best Overall Response by Investigator (confirmation not required),BOR,Tumor Response,Investigator,RECIST 1.1,7,MISSING,Y,,,,,,,,,,,,,
313,CDISCPILOT01,01-701-1211,1211,701,USA,,2012-11-15,2013-01-14,2012-11-15,2013-01-12,2013-01-14,,,2013-01-14,61,Y,2,<= 30,Y,,AE,,3,NA,2012-10-30,-16,76,YEARS,>64,F,WHITE,White,NOT HISPANIC OR LATINO,Y,Xanomeline Low Dose,Xan_Lo,Xanomeline Low Dose,Xan_Lo,Xanomeline Low Dose,Xanomeline Low Dose,2012-11-15,2012-11-15T00:00:00Z,H,2013-01-12,2013-01-12T23:59:59Z,H,DISCONTINUED,2013-01-14,,2012-11-15,2013-01-14,59,2013-01-14,SUDDEN DEATH,ADVERSE EVENT,,,,Clinical Benefit by Investigator (confirmation for response not required),CB,Tumor Response,Investigator,RECIST 1.1,0,N,Y,,,,,,,,,,,,,
314,CDISCPILOT01,01-701-1211,1211,701,USA,,2012-11-15,2013-01-14,2012-11-15,2013-01-12,2013-01-14,,,2013-01-14,61,Y,2,<= 30,Y,,AE,,4,NA,2012-10-30,-16,76,YEARS,>64,F,WHITE,White,NOT HISPANIC OR LATINO,Y,Xanomeline Low Dose,Xan_Lo,Xanomeline Low Dose,Xan_Lo,Xanomeline Low Dose,Xanomeline Low Dose,2012-11-15,2012-11-15T00:00:00Z,H,2013-01-12,2013-01-12T23:59:59Z,H,DISCONTINUED,2013-01-14,,2012-11-15,2013-01-14,59,2013-01-14,SUDDEN DEATH,ADVERSE EVENT,,,,Best Confirmed Overall Response of CR/PR by Investigator,CBCP,Tumor Response,Investigator,RECIST 1.1,0,N,Y,,,,,,,,,,,,,
315,CDISCPILOT01,01-701-1211,1211,701,USA,,2012-11-15,2013-01-14,2012-11-15,2013-01-12,2013-01-14,,,2013-01-14,61,Y,2,<= 30,Y,,AE,,5,NA,2012-10-30,-16,76,YEARS,>64,F,WHITE,White,NOT HISPANIC OR LATINO,Y,Xanomeline Low Dose,Xan_Lo,Xanomeline Low Dose,Xan_Lo,Xanomeline Low Dose,Xanomeline Low Dose,2012-11-15,2012-11-15T00:00:00Z,H,2013-01-12,2013-01-12T23:59:59Z,H,DISCONTINUED,2013-01-14,,2012-11-15,2013-01-14,59,2013-01-14,SUDDEN DEATH,ADVERSE EVENT,,,,Best Confirmed Overall Response by Investigator,CBOR,Tumor Response,Investigator,RECIST 1.1,7,MISSING,Y,,,,,,,,,,,,,
316,CDISCPILOT01,01-701-1211,1211,701,USA,,2012-11-15,2013-01-14,2012-11-15,2013-01-12,2013-01-14,,,2013-01-14,61,Y,2,<= 30,Y,,AE,,6,NA,2012-10-30,-16,76,YEARS,>64,F,WHITE,White,NOT HISPANIC OR LATINO,Y,Xanomeline Low Dose,Xan_Lo,Xanomeline Low Dose,Xan_Lo,Xanomeline Low Dose,Xanomeline Low Dose,2012-11-15,2012-11-15T00:00:00Z,H,2013-01-12,2013-01-12T23:59:59Z,H,DISCONTINUED,2013-01-14,,2012-11-15,2013-01-14,59,2013-01-14,SUDDEN DEATH,ADVERSE EVENT,,,,Confirmed Clinical Benefit by Investigator,CCB,Tumor Response,Investigator,RECIST 1.1,0,N,Y,,,,,,,,,,,,,
317,CDISCPILOT01,01-701-1211,1211,701,USA,,2012-11-15,2013-01-14,2012-11-15,2013-01-12,2013-01-14,,,2013-01-14,61,Y,2,<= 30,Y,,AE,,7,NA,2012-10-30,-16,76,YEARS,>64,F,WHITE,White,NOT HISPANIC OR LATINO,Y,Xanomeline Low Dose,Xan_Lo,Xanomeline Low Dose,Xan_Lo,Xanomeline Low Dose,Xanomeline Low Dose,2012-11-15,2012-11-15T00:00:00Z,H,2013-01-12,2013-01-12T23:59:59Z,H,DISCONTINUED,2013-01-14,,2012-11-15,2013-01-14,59,2013-01-14,SUDDEN DEATH,ADVERSE EVENT,,,,Confirmed Response by Investigator,CRSP,Tumor Response,Investigator,RECIST 1.1,0,N,Y,,,,,,,,,,,,,
318,CDISCPILOT01,01-701-1211,1211,701,USA,,2012-11-15,2013-01-14,2012-11-15,2013-01-12,2013-01-14,,,2013-01-14,61,Y,2,<= 30,Y,,AE,,8,NA,2012-10-30,-16,76,YEARS,>64,F,WHITE,White,NOT HISPANIC OR LATINO,Y,Xanomeline Low Dose,Xan_Lo,Xanomeline Low Dose,Xan_Lo,Xanomeline Low Dose,Xanomeline Low Dose,2012-11-15,2012-11-15T00:00:00Z,H,2013-01-12,2013-01-12T23:59:59Z,H,DISCONTINUED,2013-01-14,,2012-11-15,2013-01-14,59,2013-01-14,SUDDEN DEATH,ADVERSE EVENT,2013-01-14,,,Death,DEATH,Reference Event,,,1,Y,Y,,,,,,,,,,,,,
319,CDISCPILOT01,01-701-1211,1211,701,USA,,2012-11-15,2013-01-14,2012-11-15,2013-01-12,2013-01-14,,,2013-01-14,61,Y,2,<= 30,Y,,AE,,9,NA,2012-10-30,-16,76,YEARS,>64,F,WHITE,White,NOT HISPANIC OR LATINO,Y,Xanomeline Low Dose,Xan_Lo,Xanomeline Low Dose,Xan_Lo,Xanomeline Low Dose,Xanomeline Low Dose,2012-11-15,2012-11-15T00:00:00Z,H,2013-01-12,2013-01-12T23:59:59Z,H,DISCONTINUED,2013-01-14,,2012-11-15,2013-01-14,59,2013-01-14,SUDDEN DEATH,ADVERSE EVENT,,,,Last Disease Assessment by Investigator,LSTA,Tumor Response,Investigator,RECIST 1.1,,,Y,,,,,,,,,,,,,
320,CDISCPILOT01,01-701-1211,1211,701,USA,,2012-11-15,2013-01-14,2012-11-15,2013-01-12,2013-01-14,,,2013-01-14,61,Y,2,<= 30,Y,,AE,,10,NA,2012-10-30,-16,76,YEARS,>64,F,WHITE,White,NOT HISPANIC OR LATINO,Y,Xanomeline Low Dose,Xan_Lo,Xanomeline Low Dose,Xan_Lo,Xanomeline Low Dose,Xanomeline Low Dose,2012-11-15,2012-11-15T00:00:00Z,H,2013-01-12,2013-01-12T23:59:59Z,H,DISCONTINUED,2013-01-14,,,2013-01-14,59,2013-01-14,SUDDEN DEATH,ADVERSE EVENT,,,,Measurable Disease at Baseline by Investigator,MDIS,,Investigator,RECIST 1.1,0,N,Y,,,,,,,,,,,,,
321,CDISCPILOT01,01-701-1211,1211,701,USA,,2012-11-15,2013-01-14,2012-11-15,2013-01-12,2013-01-14,,,2013-01-14,61,Y,2,<= 30,Y,,AE,,11,NA,2012-10-30,-16,76,YEARS,>64,F,WHITE,White,NOT HISPANIC OR LATINO,Y,Xanomeline Low Dose,Xan_Lo,Xanomeline Low Dose,Xan_Lo,Xanomeline Low Dose,Xanomeline Low Dose,2012-11-15,2012-11-15T00:00:00Z,H,2013-01-12,2013-01-12T23:59:59Z,H,DISCONTINUED,2013-01-14,,2012-11-15,2013-01-14,59,2013-01-14,SUDDEN DEATH,ADVERSE EVENT,,,,Disease Progression by Investigator,PD,Tumor Response,Investigator,RECIST 1.1,0,N,Y,,,,,,,,,,,,,
322,CDISCPILOT01,01-701-1211,1211,701,USA,,2012-11-15,2013-01-14,2012-11-15,2013-01-12,2013-01-14,,,2013-01-14,61,Y,2,<= 30,Y,,AE,,12,NA,2012-10-30,-16,76,YEARS,>64,F,WHITE,White,NOT HISPANIC OR LATINO,Y,Xanomeline Low Dose,Xan_Lo,Xanomeline Low Dose,Xan_Lo,Xanomeline Low Dose,Xanomeline Low Dose,2012-11-15,2012-11-15T00:00:00Z,H,2013-01-12,2013-01-12T23:59:59Z,H,DISCONTINUED,2013-01-14,,2012-11-15,2013-01-14,59,2013-01-14,SUDDEN DEATH,ADVERSE EVENT,,,,Response by Investigator (confirmation not required),RSP,Tumor Response,Investigator,RECIST 1.1,0,N,Y,,,,,,,,,,,,,
323,CDISCPILOT01,01-701-1234,1234,701,USA,,2013-03-30,2013-09-22,2013-03-30,2013-09-22,2013-09-22T09:25,,,,,,,,,,,,1,NA,2013-03-20,-10,69,YEARS,>64,M,WHITE,White,NOT HISPANIC OR LATINO,Y,Placebo,Pbo,Placebo,Pbo,Placebo,Placebo,2013-03-30,2013-03-30T00:00:00Z,H,2013-09-22,2013-09-22T23:59:59Z,H,COMPLETED,2013-09-22,,2013-03-30,2013-09-22,177,,,,,,,Best Overall Response of CR/PR by Investigator (confirmation not required),BCP,Tumor Response,Investigator,RECIST 1.1,0,N,Y,,,,,,,,,,,,,
324,CDISCPILOT01,01-701-1234,1234,701,USA,,2013-03-30,2013-09-22,2013-03-30,2013-09-22,2013-09-22T09:25,,,,,,,,,,,,2,NA,2013-03-20,-10,69,YEARS,>64,M,WHITE,White,NOT HISPANIC OR LATINO,Y,Placebo,Pbo,Placebo,Pbo,Placebo,Placebo,2013-03-30,2013-03-30T00:00:00Z,H,2013-09-22,2013-09-22T23:59:59Z,H,COMPLETED,2013-09-22,,2013-03-30,2013-09-22,177,,,,,,,Best Overall Response by Investigator (confirmation not required),BOR,Tumor Response,Investigator,RECIST 1.1,7,MISSING,Y,,,,,,,,,,,,,
325,CDISCPILOT01,01-701-1234,1234,701,USA,,2013-03-30,2013-09-22,2013-03-30,2013-09-22,2013-09-22T09:25,,,,,,,,,,,,3,NA,2013-03-20,-10,69,YEARS,>64,M,WHITE,White,NOT HISPANIC OR LATINO,Y,Placebo,Pbo,Placebo,Pbo,Placebo,Placebo,2013-03-30,2013-03-30T00:00:00Z,H,2013-09-22,2013-09-22T23:59:59Z,H,COMPLETED,2013-09-22,,2013-03-30,2013-09-22,177,,,,,,,Clinical Benefit by Investigator (confirmation for response not required),CB,Tumor Response,Investigator,RECIST 1.1,0,N,Y,,,,,,,,,,,,,
326,CDISCPILOT01,01-701-1234,1234,701,USA,,2013-03-30,2013-09-22,2013-03-30,2013-09-22,2013-09-22T09:25,,,,,,,,,,,,4,NA,2013-03-20,-10,69,YEARS,>64,M,WHITE,White,NOT HISPANIC OR LATINO,Y,Placebo,Pbo,Placebo,Pbo,Placebo,Placebo,2013-03-30,2013-03-30T00:00:00Z,H,2013-09-22,2013-09-22T23:59:59Z,H,COMPLETED,2013-09-22,,2013-03-30,2013-09-22,177,,,,,,,Best Confirmed Overall Response of CR/PR by Investigator,CBCP,Tumor Response,Investigator,RECIST 1.1,0,N,Y,,,,,,,,,,,,,
327,CDISCPILOT01,01-701-1234,1234,701,USA,,2013-03-30,2013-09-22,2013-03-30,2013-09-22,2013-09-22T09:25,,,,,,,,,,,,5,NA,2013-03-20,-10,69,YEARS,>64,M,WHITE,White,NOT HISPANIC OR LATINO,Y,Placebo,Pbo,Placebo,Pbo,Placebo,Placebo,2013-03-30,2013-03-30T00:00:00Z,H,2013-09-22,2013-09-22T23:59:59Z,H,COMPLETED,2013-09-22,,2013-03-30,2013-09-22,177,,,,,,,Best Confirmed Overall Response by Investigator,CBOR,Tumor Response,Investigator,RECIST 1.1,7,MISSING,Y,,,,,,,,,,,,,
328,CDISCPILOT01,01-701-1234,1234,701,USA,,2013-03-30,2013-09-22,2013-03-30,2013-09-22,2013-09-22T09:25,,,,,,,,,,,,6,NA,2013-03-20,-10,69,YEARS,>64,M,WHITE,White,NOT HISPANIC OR LATINO,Y,Placebo,Pbo,Placebo,Pbo,Placebo,Placebo,2013-03-30,2013-03-30T00:00:00Z,H,2013-09-22,2013-09-22T23:59:59Z,H,COMPLETED,2013-09-22,,2013-03-30,2013-09-22,177,,,,,,,Confirmed Clinical Benefit by Investigator,CCB,Tumor Response,Investigator,RECIST 1.1,0,N,Y,,,,,,,,,,,,,
329,CDISCPILOT01,01-701-1234,1234,701,USA,,2013-03-30,2013-09-22,2013-03-30,2013-09-22,2013-09-22T09:25,,,,,,,,,,,,7,NA,2013-03-20,-10,69,YEARS,>64,M,WHITE,White,NOT HISPANIC OR LATINO,Y,Placebo,Pbo,Placebo,Pbo,Placebo,Placebo,2013-03-30,2013-03-30T00:00:00Z,H,2013-09-22,2013-09-22T23:59:59Z,H,COMPLETED,2013-09-22,,2013-03-30,2013-09-22,177,,,,,,,Confirmed Response by Investigator,CRSP,Tumor Response,Investigator,RECIST 1.1,0,N,Y,,,,,,,,,,,,,
330,CDISCPILOT01,01-701-1234,1234,701,USA,,2013-03-30,2013-09-22,2013-03-30,2013-09-22,2013-09-22T09:25,,,,,,,,,,,,8,NA,2013-03-20,-10,69,YEARS,>64,M,WHITE,White,NOT HISPANIC OR LATINO,Y,Placebo,Pbo,Placebo,Pbo,Placebo,Placebo,2013-03-30,2013-03-30T00:00:00Z,H,2013-09-22,2013-09-22T23:59:59Z,H,COMPLETED,2013-09-22,,2013-03-30,2013-09-22,177,,,,,,,Death,DEATH,Reference Event,,,0,N,Y,,,,,,,,,,,,,
331,CDISCPILOT01,01-701-1234,1234,701,USA,,2013-03-30,2013-09-22,2013-03-30,2013-09-22,2013-09-22T09:25,,,,,,,,,,,,9,NA,2013-03-20,-10,69,YEARS,>64,M,WHITE,White,NOT HISPANIC OR LATINO,Y,Placebo,Pbo,Placebo,Pbo,Placebo,Placebo,2013-03-30,2013-03-30T00:00:00Z,H,2013-09-22,2013-09-22T23:59:59Z,H,COMPLETED,2013-09-22,,2013-03-30,2013-09-22,177,,,,,,,Last Disease Assessment by Investigator,LSTA,Tumor Response,Investigator,RECIST 1.1,,,Y,,,,,,,,,,,,,
332,CDISCPILOT01,01-701-1234,1234,701,USA,,2013-03-30,2013-09-22,2013-03-30,2013-09-22,2013-09-22T09:25,,,,,,,,,,,,10,NA,2013-03-20,-10,69,YEARS,>64,M,WHITE,White,NOT HISPANIC OR LATINO,Y,Placebo,Pbo,Placebo,Pbo,Placebo,Placebo,2013-03-30,2013-03-30T00:00:00Z,H,2013-09-22,2013-09-22T23:59:59Z,H,COMPLETED,2013-09-22,,,2013-09-22,177,,,,,,,Measurable Disease at Baseline by Investigator,MDIS,,Investigator,RECIST 1.1,0,N,Y,,,,,,,,,,,,,
333,CDISCPILOT01,01-701-1234,1234,701,USA,,2013-03-30,2013-09-22,2013-03-30,2013-09-22,2013-09-22T09:25,,,,,,,,,,,,11,NA,2013-03-20,-10,69,YEARS,>64,M,WHITE,White,NOT HISPANIC OR LATINO,Y,Placebo,Pbo,Placebo,Pbo,Placebo,Placebo,2013-03-30,2013-03-30T00:00:00Z,H,2013-09-22,2013-09-22T23:59:59Z,H,COMPLETED,2013-09-22,,2013-03-30,2013-09-22,177,,,,,,,Disease Progression by Investigator,PD,Tumor Response,Investigator,RECIST 1.1,0,N,Y,,,,,,,,,,,,,
334,CDISCPILOT01,01-701-1234,1234,701,USA,,2013-03-30,2013-09-22,2013-03-30,2013-09-22,2013-09-22T09:25,,,,,,,,,,,,12,NA,2013-03-20,-10,69,YEARS,>64,M,WHITE,White,NOT HISPANIC OR LATINO,Y,Placebo,Pbo,Placebo,Pbo,Placebo,Placebo,2013-03-30,2013-03-30T00:00:00Z,H,2013-09-22,2013-09-22T23:59:59Z,H,COMPLETED,2013-09-22,,2013-03-30,2013-09-22,177,,,,,,,Response by Investigator (confirmation not required),RSP,Tumor Response,Investigator,RECIST 1.1,0,N,Y,,,,,,,,,,,,,
335,CDISCPILOT01,01-701-1239,1239,701,USA,,2014-01-11,2014-07-11,2014-01-11,2014-07-10,2014-07-11T15:40,,,,,,,,,,,,1,NA,2013-12-28,-14,56,YEARS,18-64,M,WHITE,White,HISPANIC OR LATINO,Y,Xanomeline High Dose,Xan_Hi,Xanomeline High Dose,Xan_Hi,Xanomeline High Dose,Xanomeline High Dose,2014-01-11,2014-01-11T00:00:00Z,H,2014-07-10,2014-07-10T23:59:59Z,H,COMPLETED,2014-07-11,,2014-01-11,2014-07-11,181,,,,,,,Best Overall Response of CR/PR by Investigator (confirmation not required),BCP,Tumor Response,Investigator,RECIST 1.1,0,N,Y,,,,,,,,,,,,,
336,CDISCPILOT01,01-701-1239,1239,701,USA,,2014-01-11,2014-07-11,2014-01-11,2014-07-10,2014-07-11T15:40,,,,,,,,,,,,2,NA,2013-12-28,-14,56,YEARS,18-64,M,WHITE,White,HISPANIC OR LATINO,Y,Xanomeline High Dose,Xan_Hi,Xanomeline High Dose,Xan_Hi,Xanomeline High Dose,Xanomeline High Dose,2014-01-11,2014-01-11T00:00:00Z,H,2014-07-10,2014-07-10T23:59:59Z,H,COMPLETED,2014-07-11,,2014-01-11,2014-07-11,181,,,,,,,Best Overall Response by Investigator (confirmation not required),BOR,Tumor Response,Investigator,RECIST 1.1,7,MISSING,Y,,,,,,,,,,,,,
337,CDISCPILOT01,01-701-1239,1239,701,USA,,2014-01-11,2014-07-11,2014-01-11,2014-07-10,2014-07-11T15:40,,,,,,,,,,,,3,NA,2013-12-28,-14,56,YEARS,18-64,M,WHITE,White,HISPANIC OR LATINO,Y,Xanomeline High Dose,Xan_Hi,Xanomeline High Dose,Xan_Hi,Xanomeline High Dose,Xanomeline High Dose,2014-01-11,2014-01-11T00:00:00Z,H,2014-07-10,2014-07-10T23:59:59Z,H,COMPLETED,2014-07-11,,2014-01-11,2014-07-11,181,,,,,,,Clinical Benefit by Investigator (confirmation for response not required),CB,Tumor Response,Investigator,RECIST 1.1,0,N,Y,,,,,,,,,,,,,
338,CDISCPILOT01,01-701-1239,1239,701,USA,,2014-01-11,2014-07-11,2014-01-11,2014-07-10,2014-07-11T15:40,,,,,,,,,,,,4,NA,2013-12-28,-14,56,YEARS,18-64,M,WHITE,White,HISPANIC OR LATINO,Y,Xanomeline High Dose,Xan_Hi,Xanomeline High Dose,Xan_Hi,Xanomeline High Dose,Xanomeline High Dose,2014-01-11,2014-01-11T00:00:00Z,H,2014-07-10,2014-07-10T23:59:59Z,H,COMPLETED,2014-07-11,,2014-01-11,2014-07-11,181,,,,,,,Best Confirmed Overall Response of CR/PR by Investigator,CBCP,Tumor Response,Investigator,RECIST 1.1,0,N,Y,,,,,,,,,,,,,
339,CDISCPILOT01,01-701-1239,1239,701,USA,,2014-01-11,2014-07-11,2014-01-11,2014-07-10,2014-07-11T15:40,,,,,,,,,,,,5,NA,2013-12-28,-14,56,YEARS,18-64,M,WHITE,White,HISPANIC OR LATINO,Y,Xanomeline High Dose,Xan_Hi,Xanomeline High Dose,Xan_Hi,Xanomeline High Dose,Xanomeline High Dose,2014-01-11,2014-01-11T00:00:00Z,H,2014-07-10,2014-07-10T23:59:59Z,H,COMPLETED,2014-07-11,,2014-01-11,2014-07-11,181,,,,,,,Best Confirmed Overall Response by Investigator,CBOR,Tumor Response,Investigator,RECIST 1.1,7,MISSING,Y,,,,,,,,,,,,,
340,CDISCPILOT01,01-701-1239,1239,701,USA,,2014-01-11,2014-07-11,2014-01-11,2014-07-10,2014-07-11T15:40,,,,,,,,,,,,6,NA,2013-12-28,-14,56,YEARS,18-64,M,WHITE,White,HISPANIC OR LATINO,Y,Xanomeline High Dose,Xan_Hi,Xanomeline High Dose,Xan_Hi,Xanomeline High Dose,Xanomeline High Dose,2014-01-11,2014-01-11T00:00:00Z,H,2014-07-10,2014-07-10T23:59:59Z,H,COMPLETED,2014-07-11,,2014-01-11,2014-07-11,181,,,,,,,Confirmed Clinical Benefit by Investigator,CCB,Tumor Response,Investigator,RECIST 1.1,0,N,Y,,,,,,,,,,,,,
341,CDISCPILOT01,01-701-1239,1239,701,USA,,2014-01-11,2014-07-11,2014-01-11,2014-07-10,2014-07-11T15:40,,,,,,,,,,,,7,NA,2013-12-28,-14,56,YEARS,18-64,M,WHITE,White,HISPANIC OR LATINO,Y,Xanomeline High Dose,Xan_Hi,Xanomeline High Dose,Xan_Hi,Xanomeline High Dose,Xanomeline High Dose,2014-01-11,2014-01-11T00:00:00Z,H,2014-07-10,2014-07-10T23:59:59Z,H,COMPLETED,2014-07-11,,2014-01-11,2014-07-11,181,,,,,,,Confirmed Response by Investigator,CRSP,Tumor Response,Investigator,RECIST 1.1,0,N,Y,,,,,,,,,,,,,
342,CDISCPILOT01,01-701-1239,1239,701,USA,,2014-01-11,2014-07-11,2014-01-11,2014-07-10,2014-07-11T15:40,,,,,,,,,,,,8,NA,2013-12-28,-14,56,YEARS,18-64,M,WHITE,White,HISPANIC OR LATINO,Y,Xanomeline High Dose,Xan_Hi,Xanomeline High Dose,Xan_Hi,Xanomeline High Dose,Xanomeline High Dose,2014-01-11,2014-01-11T00:00:00Z,H,2014-07-10,2014-07-10T23:59:59Z,H,COMPLETED,2014-07-11,,2014-01-11,2014-07-11,181,,,,,,,Death,DEATH,Reference Event,,,0,N,Y,,,,,,,,,,,,,
343,CDISCPILOT01,01-701-1239,1239,701,USA,,2014-01-11,2014-07-11,2014-01-11,2014-07-10,2014-07-11T15:40,,,,,,,,,,,,9,NA,2013-12-28,-14,56,YEARS,18-64,M,WHITE,White,HISPANIC OR LATINO,Y,Xanomeline High Dose,Xan_Hi,Xanomeline High Dose,Xan_Hi,Xanomeline High Dose,Xanomeline High Dose,2014-01-11,2014-01-11T00:00:00Z,H,2014-07-10,2014-07-10T23:59:59Z,H,COMPLETED,2014-07-11,,2014-01-11,2014-07-11,181,,,,,,,Last Disease Assessment by Investigator,LSTA,Tumor Response,Investigator,RECIST 1.1,,,Y,,,,,,,,,,,,,
344,CDISCPILOT01,01-701-1239,1239,701,USA,,2014-01-11,2014-07-11,2014-01-11,2014-07-10,2014-07-11T15:40,,,,,,,,,,,,10,NA,2013-12-28,-14,56,YEARS,18-64,M,WHITE,White,HISPANIC OR LATINO,Y,Xanomeline High Dose,Xan_Hi,Xanomeline High Dose,Xan_Hi,Xanomeline High Dose,Xanomeline High Dose,2014-01-11,2014-01-11T00:00:00Z,H,2014-07-10,2014-07-10T23:59:59Z,H,COMPLETED,2014-07-11,,,2014-07-11,181,,,,,,,Measurable Disease at Baseline by Investigator,MDIS,,Investigator,RECIST 1.1,0,N,Y,,,,,,,,,,,,,
345,CDISCPILOT01,01-701-1239,1239,701,USA,,2014-01-11,2014-07-11,2014-01-11,2014-07-10,2014-07-11T15:40,,,,,,,,,,,,11,NA,2013-12-28,-14,56,YEARS,18-64,M,WHITE,White,HISPANIC OR LATINO,Y,Xanomeline High Dose,Xan_Hi,Xanomeline High Dose,Xan_Hi,Xanomeline High Dose,Xanomeline High Dose,2014-01-11,2014-01-11T00:00:00Z,H,2014-07-10,2014-07-10T23:59:59Z,H,COMPLETED,2014-07-11,,2014-01-11,2014-07-11,181,,,,,,,Disease Progression by Investigator,PD,Tumor Response,Investigator,RECIST 1.1,0,N,Y,,,,,,,,,,,,,
346,CDISCPILOT01,01-701-1239,1239,701,USA,,2014-01-11,2014-07-11,2014-01-11,2014-07-10,2014-07-11T15:40,,,,,,,,,,,,12,NA,2013-12-28,-14,56,YEARS,18-64,M,WHITE,White,HISPANIC OR LATINO,Y,Xanomeline High Dose,Xan_Hi,Xanomeline High Dose,Xan_Hi,Xanomeline High Dose,Xanomeline High Dose,2014-01-11,2014-01-11T00:00:00Z,H,2014-07-10,2014-07-10T23:59:59Z,H,COMPLETED,2014-07-11,,2014-01-11,2014-07-11,181,,,,,,,Response by Investigator (confirmation not required),RSP,Tumor Response,Investigator,RECIST 1.1,0,N,Y,,,,,,,,,,,,,
347,CDISCPILOT01,01-701-1240,1240,701,USA,,,,,,2013-09-24,2013-09-22,,,,,,,,,,,1,NA,2013-09-22,,57,YEARS,18-64,F,BLACK OR AFRICAN AMERICAN,Non-white,NOT HISPANIC OR LATINO,N,Screen Failure,Scrnfail,Screen Failure,Scrnfail,Screen Failure,Screen Failure,,,,,,,,,,,,,,,,,,,Best Overall Response of CR/PR by Investigator (confirmation not required),BCP,Tumor Response,Investigator,RECIST 1.1,0,N,Y,,,,,,,,,,,,,
348,CDISCPILOT01,01-701-1240,1240,701,USA,,,,,,2013-09-24,2013-09-22,,,,,,,,,,,2,NA,2013-09-22,,57,YEARS,18-64,F,BLACK OR AFRICAN AMERICAN,Non-white,NOT HISPANIC OR LATINO,N,Screen Failure,Scrnfail,Screen Failure,Scrnfail,Screen Failure,Screen Failure,,,,,,,,,,,,,,,,,,,Best Overall Response by Investigator (confirmation not required),BOR,Tumor Response,Investigator,RECIST 1.1,7,MISSING,Y,,,,,,,,,,,,,
349,CDISCPILOT01,01-701-1240,1240,701,USA,,,,,,2013-09-24,2013-09-22,,,,,,,,,,,3,NA,2013-09-22,,57,YEARS,18-64,F,BLACK OR AFRICAN AMERICAN,Non-white,NOT HISPANIC OR LATINO,N,Screen Failure,Scrnfail,Screen Failure,Scrnfail,Screen Failure,Screen Failure,,,,,,,,,,,,,,,,,,,Clinical Benefit by Investigator (confirmation for response not required),CB,Tumor Response,Investigator,RECIST 1.1,0,N,Y,,,,,,,,,,,,,
350,CDISCPILOT01,01-701-1240,1240,701,USA,,,,,,2013-09-24,2013-09-22,,,,,,,,,,,4,NA,2013-09-22,,57,YEARS,18-64,F,BLACK OR AFRICAN AMERICAN,Non-white,NOT HISPANIC OR LATINO,N,Screen Failure,Scrnfail,Screen Failure,Scrnfail,Screen Failure,Screen Failure,,,,,,,,,,,,,,,,,,,Best Confirmed Overall Response of CR/PR by Investigator,CBCP,Tumor Response,Investigator,RECIST 1.1,0,N,Y,,,,,,,,,,,,,
351,CDISCPILOT01,01-701-1240,1240,701,USA,,,,,,2013-09-24,2013-09-22,,,,,,,,,,,5,NA,2013-09-22,,57,YEARS,18-64,F,BLACK OR AFRICAN AMERICAN,Non-white,NOT HISPANIC OR LATINO,N,Screen Failure,Scrnfail,Screen Failure,Scrnfail,Screen Failure,Screen Failure,,,,,,,,,,,,,,,,,,,Best Confirmed Overall Response by Investigator,CBOR,Tumor Response,Investigator,RECIST 1.1,7,MISSING,Y,,,,,,,,,,,,,
352,CDISCPILOT01,01-701-1240,1240,701,USA,,,,,,2013-09-24,2013-09-22,,,,,,,,,,,6,NA,2013-09-22,,57,YEARS,18-64,F,BLACK OR AFRICAN AMERICAN,Non-white,NOT HISPANIC OR LATINO,N,Screen Failure,Scrnfail,Screen Failure,Scrnfail,Screen Failure,Screen Failure,,,,,,,,,,,,,,,,,,,Confirmed Clinical Benefit by Investigator,CCB,Tumor Response,Investigator,RECIST 1.1,0,N,Y,,,,,,,,,,,,,
353,CDISCPILOT01,01-701-1240,1240,701,USA,,,,,,2013-09-24,2013-09-22,,,,,,,,,,,7,NA,2013-09-22,,57,YEARS,18-64,F,BLACK OR AFRICAN AMERICAN,Non-white,NOT HISPANIC OR LATINO,N,Screen Failure,Scrnfail,Screen Failure,Scrnfail,Screen Failure,Screen Failure,,,,,,,,,,,,,,,,,,,Confirmed Response by Investigator,CRSP,Tumor Response,Investigator,RECIST 1.1,0,N,Y,,,,,,,,,,,,,
354,CDISCPILOT01,01-701-1240,1240,701,USA,,,,,,2013-09-24,2013-09-22,,,,,,,,,,,8,NA,2013-09-22,,57,YEARS,18-64,F,BLACK OR AFRICAN AMERICAN,Non-white,NOT HISPANIC OR LATINO,N,Screen Failure,Scrnfail,Screen Failure,Scrnfail,Screen Failure,Screen Failure,,,,,,,,,,,,,,,,,,,Death,DEATH,Reference Event,,,0,N,Y,,,,,,,,,,,,,
355,CDISCPILOT01,01-701-1240,1240,701,USA,,,,,,2013-09-24,2013-09-22,,,,,,,,,,,9,NA,2013-09-22,,57,YEARS,18-64,F,BLACK OR AFRICAN AMERICAN,Non-white,NOT HISPANIC OR LATINO,N,Screen Failure,Scrnfail,Screen Failure,Scrnfail,Screen Failure,Screen Failure,,,,,,,,,,,,,,,,,,,Last Disease Assessment by Investigator,LSTA,Tumor Response,Investigator,RECIST 1.1,,,Y,,,,,,,,,,,,,
356,CDISCPILOT01,01-701-1240,1240,701,USA,,,,,,2013-09-24,2013-09-22,,,,,,,,,,,10,NA,2013-09-22,,57,YEARS,18-64,F,BLACK OR AFRICAN AMERICAN,Non-white,NOT HISPANIC OR LATINO,N,Screen Failure,Scrnfail,Screen Failure,Scrnfail,Screen Failure,Screen Failure,,,,,,,,,,,,,,,,,,,Measurable Disease at Baseline by Investigator,MDIS,,Investigator,RECIST 1.1,0,N,Y,,,,,,,,,,,,,
357,CDISCPILOT01,01-701-1240,1240,701,USA,,,,,,2013-09-24,2013-09-22,,,,,,,,,,,11,NA,2013-09-22,,57,YEARS,18-64,F,BLACK OR AFRICAN AMERICAN,Non-white,NOT HISPANIC OR LATINO,N,Screen Failure,Scrnfail,Screen Failure,Scrnfail,Screen Failure,Screen Failure,,,,,,,,,,,,,,,,,,,Disease Progression by Investigator,PD,Tumor Response,Investigator,RECIST 1.1,0,N,Y,,,,,,,,,,,,,
358,CDISCPILOT01,01-701-1240,1240,701,USA,,,,,,2013-09-24,2013-09-22,,,,,,,,,,,12,NA,2013-09-22,,57,YEARS,18-64,F,BLACK OR AFRICAN AMERICAN,Non-white,NOT HISPANIC OR LATINO,N,Screen Failure,Scrnfail,Screen Failure,Scrnfail,Screen Failure,Screen Failure,,,,,,,,,,,,,,,,,,,Response by Investigator (confirmation not required),RSP,Tumor Response,Investigator,RECIST 1.1,0,N,Y,,,,,,,,,,,,,
359,CDISCPILOT01,01-701-1275,1275,701,USA,,2014-02-07,2014-06-14,2014-02-07,2014-05-31,2014-06-14T12:35,,,,,,,,,,,,1,NA,2014-01-25,-13,61,YEARS,18-64,M,AMERICAN INDIAN OR ALASKA NATIVE,Non-white,NOT HISPANIC OR LATINO,Y,Xanomeline High Dose,Xan_Hi,Xanomeline High Dose,Xan_Hi,Xanomeline High Dose,Xanomeline High Dose,2014-02-07,2014-02-07T00:00:00Z,H,2014-05-31,2014-05-31T23:59:59Z,H,DISCONTINUED,2014-06-14,,2014-02-07,2014-06-14,114,,,,,,,Best Overall Response of CR/PR by Investigator (confirmation not required),BCP,Tumor Response,Investigator,RECIST 1.1,0,N,Y,,,,,,,,,,,,,
360,CDISCPILOT01,01-701-1275,1275,701,USA,,2014-02-07,2014-06-14,2014-02-07,2014-05-31,2014-06-14T12:35,,,,,,,,,,,,2,NA,2014-01-25,-13,61,YEARS,18-64,M,AMERICAN INDIAN OR ALASKA NATIVE,Non-white,NOT HISPANIC OR LATINO,Y,Xanomeline High Dose,Xan_Hi,Xanomeline High Dose,Xan_Hi,Xanomeline High Dose,Xanomeline High Dose,2014-02-07,2014-02-07T00:00:00Z,H,2014-05-31,2014-05-31T23:59:59Z,H,DISCONTINUED,2014-06-14,,2014-02-07,2014-06-14,114,,,,,,,Best Overall Response by Investigator (confirmation not required),BOR,Tumor Response,Investigator,RECIST 1.1,7,MISSING,Y,,,,,,,,,,,,,
361,CDISCPILOT01,01-701-1275,1275,701,USA,,2014-02-07,2014-06-14,2014-02-07,2014-05-31,2014-06-14T12:35,,,,,,,,,,,,3,NA,2014-01-25,-13,61,YEARS,18-64,M,AMERICAN INDIAN OR ALASKA NATIVE,Non-white,NOT HISPANIC OR LATINO,Y,Xanomeline High Dose,Xan_Hi,Xanomeline High Dose,Xan_Hi,Xanomeline High Dose,Xanomeline High Dose,2014-02-07,2014-02-07T00:00:00Z,H,2014-05-31,2014-05-31T23:59:59Z,H,DISCONTINUED,2014-06-14,,2014-02-07,2014-06-14,114,,,,,,,Clinical Benefit by Investigator (confirmation for response not required),CB,Tumor Response,Investigator,RECIST 1.1,0,N,Y,,,,,,,,,,,,,
362,CDISCPILOT01,01-701-1275,1275,701,USA,,2014-02-07,2014-06-14,2014-02-07,2014-05-31,2014-06-14T12:35,,,,,,,,,,,,4,NA,2014-01-25,-13,61,YEARS,18-64,M,AMERICAN INDIAN OR ALASKA NATIVE,Non-white,NOT HISPANIC OR LATINO,Y,Xanomeline High Dose,Xan_Hi,Xanomeline High Dose,Xan_Hi,Xanomeline High Dose,Xanomeline High Dose,2014-02-07,2014-02-07T00:00:00Z,H,2014-05-31,2014-05-31T23:59:59Z,H,DISCONTINUED,2014-06-14,,2014-02-07,2014-06-14,114,,,,,,,Best Confirmed Overall Response of CR/PR by Investigator,CBCP,Tumor Response,Investigator,RECIST 1.1,0,N,Y,,,,,,,,,,,,,
363,CDISCPILOT01,01-701-1275,1275,701,USA,,2014-02-07,2014-06-14,2014-02-07,2014-05-31,2014-06-14T12:35,,,,,,,,,,,,5,NA,2014-01-25,-13,61,YEARS,18-64,M,AMERICAN INDIAN OR ALASKA NATIVE,Non-white,NOT HISPANIC OR LATINO,Y,Xanomeline High Dose,Xan_Hi,Xanomeline High Dose,Xan_Hi,Xanomeline High Dose,Xanomeline High Dose,2014-02-07,2014-02-07T00:00:00Z,H,2014-05-31,2014-05-31T23:59:59Z,H,DISCONTINUED,2014-06-14,,2014-02-07,2014-06-14,114,,,,,,,Best Confirmed Overall Response by Investigator,CBOR,Tumor Response,Investigator,RECIST 1.1,7,MISSING,Y,,,,,,,,,,,,,
364,CDISCPILOT01,01-701-1275,1275,701,USA,,2014-02-07,2014-06-14,2014-02-07,2014-05-31,2014-06-14T12:35,,,,,,,,,,,,6,NA,2014-01-25,-13,61,YEARS,18-64,M,AMERICAN INDIAN OR ALASKA NATIVE,Non-white,NOT HISPANIC OR LATINO,Y,Xanomeline High Dose,Xan_Hi,Xanomeline High Dose,Xan_Hi,Xanomeline High Dose,Xanomeline High Dose,2014-02-07,2014-02-07T00:00:00Z,H,2014-05-31,2014-05-31T23:59:59Z,H,DISCONTINUED,2014-06-14,,2014-02-07,2014-06-14,114,,,,,,,Confirmed Clinical Benefit by Investigator,CCB,Tumor Response,Investigator,RECIST 1.1,0,N,Y,,,,,,,,,,,,,
365,CDISCPILOT01,01-701-1275,1275,701,USA,,2014-02-07,2014-06-14,2014-02-07,2014-05-31,2014-06-14T12:35,,,,,,,,,,,,7,NA,2014-01-25,-13,61,YEARS,18-64,M,AMERICAN INDIAN OR ALASKA NATIVE,Non-white,NOT HISPANIC OR LATINO,Y,Xanomeline High Dose,Xan_Hi,Xanomeline High Dose,Xan_Hi,Xanomeline High Dose,Xanomeline High Dose,2014-02-07,2014-02-07T00:00:00Z,H,2014-05-31,2014-05-31T23:59:59Z,H,DISCONTINUED,2014-06-14,,2014-02-07,2014-06-14,114,,,,,,,Confirmed Response by Investigator,CRSP,Tumor Response,Investigator,RECIST 1.1,0,N,Y,,,,,,,,,,,,,
366,CDISCPILOT01,01-701-1275,1275,701,USA,,2014-02-07,2014-06-14,2014-02-07,2014-05-31,2014-06-14T12:35,,,,,,,,,,,,8,NA,2014-01-25,-13,61,YEARS,18-64,M,AMERICAN INDIAN OR ALASKA NATIVE,Non-white,NOT HISPANIC OR LATINO,Y,Xanomeline High Dose,Xan_Hi,Xanomeline High Dose,Xan_Hi,Xanomeline High Dose,Xanomeline High Dose,2014-02-07,2014-02-07T00:00:00Z,H,2014-05-31,2014-05-31T23:59:59Z,H,DISCONTINUED,2014-06-14,,2014-02-07,2014-06-14,114,,,,,,,Death,DEATH,Reference Event,,,0,N,Y,,,,,,,,,,,,,
367,CDISCPILOT01,01-701-1275,1275,701,USA,,2014-02-07,2014-06-14,2014-02-07,2014-05-31,2014-06-14T12:35,,,,,,,,,,,,9,NA,2014-01-25,-13,61,YEARS,18-64,M,AMERICAN INDIAN OR ALASKA NATIVE,Non-white,NOT HISPANIC OR LATINO,Y,Xanomeline High Dose,Xan_Hi,Xanomeline High Dose,Xan_Hi,Xanomeline High Dose,Xanomeline High Dose,2014-02-07,2014-02-07T00:00:00Z,H,2014-05-31,2014-05-31T23:59:59Z,H,DISCONTINUED,2014-06-14,,2014-02-07,2014-06-14,114,,,,,,,Last Disease Assessment by Investigator,LSTA,Tumor Response,Investigator,RECIST 1.1,,,Y,,,,,,,,,,,,,
368,CDISCPILOT01,01-701-1275,1275,701,USA,,2014-02-07,2014-06-14,2014-02-07,2014-05-31,2014-06-14T12:35,,,,,,,,,,,,10,NA,2014-01-25,-13,61,YEARS,18-64,M,AMERICAN INDIAN OR ALASKA NATIVE,Non-white,NOT HISPANIC OR LATINO,Y,Xanomeline High Dose,Xan_Hi,Xanomeline High Dose,Xan_Hi,Xanomeline High Dose,Xanomeline High Dose,2014-02-07,2014-02-07T00:00:00Z,H,2014-05-31,2014-05-31T23:59:59Z,H,DISCONTINUED,2014-06-14,,,2014-06-14,114,,,,,,,Measurable Disease at Baseline by Investigator,MDIS,,Investigator,RECIST 1.1,0,N,Y,,,,,,,,,,,,,
369,CDISCPILOT01,01-701-1275,1275,701,USA,,2014-02-07,2014-06-14,2014-02-07,2014-05-31,2014-06-14T12:35,,,,,,,,,,,,11,NA,2014-01-25,-13,61,YEARS,18-64,M,AMERICAN INDIAN OR ALASKA NATIVE,Non-white,NOT HISPANIC OR LATINO,Y,Xanomeline High Dose,Xan_Hi,Xanomeline High Dose,Xan_Hi,Xanomeline High Dose,Xanomeline High Dose,2014-02-07,2014-02-07T00:00:00Z,H,2014-05-31,2014-05-31T23:59:59Z,H,DISCONTINUED,2014-06-14,,2014-02-07,2014-06-14,114,,,,,,,Disease Progression by Investigator,PD,Tumor Response,Investigator,RECIST 1.1,0,N,Y,,,,,,,,,,,,,
370,CDISCPILOT01,01-701-1275,1275,701,USA,,2014-02-07,2014-06-14,2014-02-07,2014-05-31,2014-06-14T12:35,,,,,,,,,,,,12,NA,2014-01-25,-13,61,YEARS,18-64,M,AMERICAN INDIAN OR ALASKA NATIVE,Non-white,NOT HISPANIC OR LATINO,Y,Xanomeline High Dose,Xan_Hi,Xanomeline High Dose,Xan_Hi,Xanomeline High Dose,Xanomeline High Dose,2014-02-07,2014-02-07T00:00:00Z,H,2014-05-31,2014-05-31T23:59:59Z,H,DISCONTINUED,2014-06-14,,2014-02-07,2014-06-14,114,,,,,,,Response by Investigator (confirmation not required),RSP,Tumor Response,Investigator,RECIST 1.1,0,N,Y,,,,,,,,,,,,,
371,CDISCPILOT01,01-701-1287,1287,701,USA,,2014-01-25,2014-07-26,2014-01-25,2014-07-26,2014-07-26T13:15,,,,,,,,,,,,1,NA,2014-01-17,-8,56,YEARS,18-64,F,WHITE,White,HISPANIC OR LATINO,Y,Xanomeline High Dose,Xan_Hi,Xanomeline High Dose,Xan_Hi,Xanomeline High Dose,Xanomeline High Dose,2014-01-25,2014-01-25T00:00:00Z,H,2014-07-26,2014-07-26T23:59:59Z,H,COMPLETED,2014-07-26,,2014-01-25,2014-07-26,183,,,,,,,Best Overall Response of CR/PR by Investigator (confirmation not required),BCP,Tumor Response,Investigator,RECIST 1.1,0,N,Y,,,,,,,,,,,,,
372,CDISCPILOT01,01-701-1287,1287,701,USA,,2014-01-25,2014-07-26,2014-01-25,2014-07-26,2014-07-26T13:15,,,,,,,,,,,,2,NA,2014-01-17,-8,56,YEARS,18-64,F,WHITE,White,HISPANIC OR LATINO,Y,Xanomeline High Dose,Xan_Hi,Xanomeline High Dose,Xan_Hi,Xanomeline High Dose,Xanomeline High Dose,2014-01-25,2014-01-25T00:00:00Z,H,2014-07-26,2014-07-26T23:59:59Z,H,COMPLETED,2014-07-26,,2014-01-25,2014-07-26,183,,,,,,,Best Overall Response by Investigator (confirmation not required),BOR,Tumor Response,Investigator,RECIST 1.1,7,MISSING,Y,,,,,,,,,,,,,
373,CDISCPILOT01,01-701-1287,1287,701,USA,,2014-01-25,2014-07-26,2014-01-25,2014-07-26,2014-07-26T13:15,,,,,,,,,,,,3,NA,2014-01-17,-8,56,YEARS,18-64,F,WHITE,White,HISPANIC OR LATINO,Y,Xanomeline High Dose,Xan_Hi,Xanomeline High Dose,Xan_Hi,Xanomeline High Dose,Xanomeline High Dose,2014-01-25,2014-01-25T00:00:00Z,H,2014-07-26,2014-07-26T23:59:59Z,H,COMPLETED,2014-07-26,,2014-01-25,2014-07-26,183,,,,,,,Clinical Benefit by Investigator (confirmation for response not required),CB,Tumor Response,Investigator,RECIST 1.1,0,N,Y,,,,,,,,,,,,,
374,CDISCPILOT01,01-701-1287,1287,701,USA,,2014-01-25,2014-07-26,2014-01-25,2014-07-26,2014-07-26T13:15,,,,,,,,,,,,4,NA,2014-01-17,-8,56,YEARS,18-64,F,WHITE,White,HISPANIC OR LATINO,Y,Xanomeline High Dose,Xan_Hi,Xanomeline High Dose,Xan_Hi,Xanomeline High Dose,Xanomeline High Dose,2014-01-25,2014-01-25T00:00:00Z,H,2014-07-26,2014-07-26T23:59:59Z,H,COMPLETED,2014-07-26,,2014-01-25,2014-07-26,183,,,,,,,Best Confirmed Overall Response of CR/PR by Investigator,CBCP,Tumor Response,Investigator,RECIST 1.1,0,N,Y,,,,,,,,,,,,,
375,CDISCPILOT01,01-701-1287,1287,701,USA,,2014-01-25,2014-07-26,2014-01-25,2014-07-26,2014-07-26T13:15,,,,,,,,,,,,5,NA,2014-01-17,-8,56,YEARS,18-64,F,WHITE,White,HISPANIC OR LATINO,Y,Xanomeline High Dose,Xan_Hi,Xanomeline High Dose,Xan_Hi,Xanomeline High Dose,Xanomeline High Dose,2014-01-25,2014-01-25T00:00:00Z,H,2014-07-26,2014-07-26T23:59:59Z,H,COMPLETED,2014-07-26,,2014-01-25,2014-07-26,183,,,,,,,Best Confirmed Overall Response by Investigator,CBOR,Tumor Response,Investigator,RECIST 1.1,7,MISSING,Y,,,,,,,,,,,,,
376,CDISCPILOT01,01-701-1287,1287,701,USA,,2014-01-25,2014-07-26,2014-01-25,2014-07-26,2014-07-26T13:15,,,,,,,,,,,,6,NA,2014-01-17,-8,56,YEARS,18-64,F,WHITE,White,HISPANIC OR LATINO,Y,Xanomeline High Dose,Xan_Hi,Xanomeline High Dose,Xan_Hi,Xanomeline High Dose,Xanomeline High Dose,2014-01-25,2014-01-25T00:00:00Z,H,2014-07-26,2014-07-26T23:59:59Z,H,COMPLETED,2014-07-26,,2014-01-25,2014-07-26,183,,,,,,,Confirmed Clinical Benefit by Investigator,CCB,Tumor Response,Investigator,RECIST 1.1,0,N,Y,,,,,,,,,,,,,
377,CDISCPILOT01,01-701-1287,1287,701,USA,,2014-01-25,2014-07-26,2014-01-25,2014-07-26,2014-07-26T13:15,,,,,,,,,,,,7,NA,2014-01-17,-8,56,YEARS,18-64,F,WHITE,White,HISPANIC OR LATINO,Y,Xanomeline High Dose,Xan_Hi,Xanomeline High Dose,Xan_Hi,Xanomeline High Dose,Xanomeline High Dose,2014-01-25,2014-01-25T00:00:00Z,H,2014-07-26,2014-07-26T23:59:59Z,H,COMPLETED,2014-07-26,,2014-01-25,2014-07-26,183,,,,,,,Confirmed Response by Investigator,CRSP,Tumor Response,Investigator,RECIST 1.1,0,N,Y,,,,,,,,,,,,,
378,CDISCPILOT01,01-701-1287,1287,701,USA,,2014-01-25,2014-07-26,2014-01-25,2014-07-26,2014-07-26T13:15,,,,,,,,,,,,8,NA,2014-01-17,-8,56,YEARS,18-64,F,WHITE,White,HISPANIC OR LATINO,Y,Xanomeline High Dose,Xan_Hi,Xanomeline High Dose,Xan_Hi,Xanomeline High Dose,Xanomeline High Dose,2014-01-25,2014-01-25T00:00:00Z,H,2014-07-26,2014-07-26T23:59:59Z,H,COMPLETED,2014-07-26,,2014-01-25,2014-07-26,183,,,,,,,Death,DEATH,Reference Event,,,0,N,Y,,,,,,,,,,,,,
379,CDISCPILOT01,01-701-1287,1287,701,USA,,2014-01-25,2014-07-26,2014-01-25,2014-07-26,2014-07-26T13:15,,,,,,,,,,,,9,NA,2014-01-17,-8,56,YEARS,18-64,F,WHITE,White,HISPANIC OR LATINO,Y,Xanomeline High Dose,Xan_Hi,Xanomeline High Dose,Xan_Hi,Xanomeline High Dose,Xanomeline High Dose,2014-01-25,2014-01-25T00:00:00Z,H,2014-07-26,2014-07-26T23:59:59Z,H,COMPLETED,2014-07-26,,2014-01-25,2014-07-26,183,,,,,,,Last Disease Assessment by Investigator,LSTA,Tumor Response,Investigator,RECIST 1.1,,,Y,,,,,,,,,,,,,
380,CDISCPILOT01,01-701-1287,1287,701,USA,,2014-01-25,2014-07-26,2014-01-25,2014-07-26,2014-07-26T13:15,,,,,,,,,,,,10,NA,2014-01-17,-8,56,YEARS,18-64,F,WHITE,White,HISPANIC OR LATINO,Y,Xanomeline High Dose,Xan_Hi,Xanomeline High Dose,Xan_Hi,Xanomeline High Dose,Xanomeline High Dose,2014-01-25,2014-01-25T00:00:00Z,H,2014-07-26,2014-07-26T23:59:59Z,H,COMPLETED,2014-07-26,,,2014-07-26,183,,,,,,,Measurable Disease at Baseline by Investigator,MDIS,,Investigator,RECIST 1.1,0,N,Y,,,,,,,,,,,,,
381,CDISCPILOT01,01-701-1287,1287,701,USA,,2014-01-25,2014-07-26,2014-01-25,2014-07-26,2014-07-26T13:15,,,,,,,,,,,,11,NA,2014-01-17,-8,56,YEARS,18-64,F,WHITE,White,HISPANIC OR LATINO,Y,Xanomeline High Dose,Xan_Hi,Xanomeline High Dose,Xan_Hi,Xanomeline High Dose,Xanomeline High Dose,2014-01-25,2014-01-25T00:00:00Z,H,2014-07-26,2014-07-26T23:59:59Z,H,COMPLETED,2014-07-26,,2014-01-25,2014-07-26,183,,,,,,,Disease Progression by Investigator,PD,Tumor Response,Investigator,RECIST 1.1,0,N,Y,,,,,,,,,,,,,
382,CDISCPILOT01,01-701-1287,1287,701,USA,,2014-01-25,2014-07-26,2014-01-25,2014-07-26,2014-07-26T13:15,,,,,,,,,,,,12,NA,2014-01-17,-8,56,YEARS,18-64,F,WHITE,White,HISPANIC OR LATINO,Y,Xanomeline High Dose,Xan_Hi,Xanomeline High Dose,Xan_Hi,Xanomeline High Dose,Xanomeline High Dose,2014-01-25,2014-01-25T00:00:00Z,H,2014-07-26,2014-07-26T23:59:59Z,H,COMPLETED,2014-07-26,,2014-01-25,2014-07-26,183,,,,,,,Response by Investigator (confirmation not required),RSP,Tumor Response,Investigator,RECIST 1.1,0,N,Y,,,,,,,,,,,,,
383,CDISCPILOT01,01-701-1294,1294,701,USA,,2013-03-24,2013-06-14,2013-03-24,2013-06-14,2013-10-08,,2013-10-08,,,,,,,,,,1,NA,2013-03-17,-7,67,YEARS,>64,M,WHITE,White,NOT HISPANIC OR LATINO,Y,Xanomeline Low Dose,Xan_Lo,Xanomeline Low Dose,Xan_Lo,Xanomeline Low Dose,Xanomeline Low Dose,2013-03-24,2013-03-24T00:00:00Z,H,2013-06-14,2013-06-14T23:59:59Z,H,DISCONTINUED,2013-06-14,,2013-03-24,2013-06-14,83,,,,,,,Best Overall Response of CR/PR by Investigator (confirmation not required),BCP,Tumor Response,Investigator,RECIST 1.1,0,N,Y,,,,,,,,,,,,,
384,CDISCPILOT01,01-701-1294,1294,701,USA,,2013-03-24,2013-06-14,2013-03-24,2013-06-14,2013-10-08,,2013-10-08,,,,,,,,,,2,NA,2013-03-17,-7,67,YEARS,>64,M,WHITE,White,NOT HISPANIC OR LATINO,Y,Xanomeline Low Dose,Xan_Lo,Xanomeline Low Dose,Xan_Lo,Xanomeline Low Dose,Xanomeline Low Dose,2013-03-24,2013-03-24T00:00:00Z,H,2013-06-14,2013-06-14T23:59:59Z,H,DISCONTINUED,2013-06-14,,2013-03-24,2013-06-14,83,,,,,,,Best Overall Response by Investigator (confirmation not required),BOR,Tumor Response,Investigator,RECIST 1.1,7,MISSING,Y,,,,,,,,,,,,,
385,CDISCPILOT01,01-701-1294,1294,701,USA,,2013-03-24,2013-06-14,2013-03-24,2013-06-14,2013-10-08,,2013-10-08,,,,,,,,,,3,NA,2013-03-17,-7,67,YEARS,>64,M,WHITE,White,NOT HISPANIC OR LATINO,Y,Xanomeline Low Dose,Xan_Lo,Xanomeline Low Dose,Xan_Lo,Xanomeline Low Dose,Xanomeline Low Dose,2013-03-24,2013-03-24T00:00:00Z,H,2013-06-14,2013-06-14T23:59:59Z,H,DISCONTINUED,2013-06-14,,2013-03-24,2013-06-14,83,,,,,,,Clinical Benefit by Investigator (confirmation for response not required),CB,Tumor Response,Investigator,RECIST 1.1,0,N,Y,,,,,,,,,,,,,
386,CDISCPILOT01,01-701-1294,1294,701,USA,,2013-03-24,2013-06-14,2013-03-24,2013-06-14,2013-10-08,,2013-10-08,,,,,,,,,,4,NA,2013-03-17,-7,67,YEARS,>64,M,WHITE,White,NOT HISPANIC OR LATINO,Y,Xanomeline Low Dose,Xan_Lo,Xanomeline Low Dose,Xan_Lo,Xanomeline Low Dose,Xanomeline Low Dose,2013-03-24,2013-03-24T00:00:00Z,H,2013-06-14,2013-06-14T23:59:59Z,H,DISCONTINUED,2013-06-14,,2013-03-24,2013-06-14,83,,,,,,,Best Confirmed Overall Response of CR/PR by Investigator,CBCP,Tumor Response,Investigator,RECIST 1.1,0,N,Y,,,,,,,,,,,,,
387,CDISCPILOT01,01-701-1294,1294,701,USA,,2013-03-24,2013-06-14,2013-03-24,2013-06-14,2013-10-08,,2013-10-08,,,,,,,,,,5,NA,2013-03-17,-7,67,YEARS,>64,M,WHITE,White,NOT HISPANIC OR LATINO,Y,Xanomeline Low Dose,Xan_Lo,Xanomeline Low Dose,Xan_Lo,Xanomeline Low Dose,Xanomeline Low Dose,2013-03-24,2013-03-24T00:00:00Z,H,2013-06-14,2013-06-14T23:59:59Z,H,DISCONTINUED,2013-06-14,,2013-03-24,2013-06-14,83,,,,,,,Best Confirmed Overall Response by Investigator,CBOR,Tumor Response,Investigator,RECIST 1.1,7,MISSING,Y,,,,,,,,,,,,,
388,CDISCPILOT01,01-701-1294,1294,701,USA,,2013-03-24,2013-06-14,2013-03-24,2013-06-14,2013-10-08,,2013-10-08,,,,,,,,,,6,NA,2013-03-17,-7,67,YEARS,>64,M,WHITE,White,NOT HISPANIC OR LATINO,Y,Xanomeline Low Dose,Xan_Lo,Xanomeline Low Dose,Xan_Lo,Xanomeline Low Dose,Xanomeline Low Dose,2013-03-24,2013-03-24T00:00:00Z,H,2013-06-14,2013-06-14T23:59:59Z,H,DISCONTINUED,2013-06-14,,2013-03-24,2013-06-14,83,,,,,,,Confirmed Clinical Benefit by Investigator,CCB,Tumor Response,Investigator,RECIST 1.1,0,N,Y,,,,,,,,,,,,,
389,CDISCPILOT01,01-701-1294,1294,701,USA,,2013-03-24,2013-06-14,2013-03-24,2013-06-14,2013-10-08,,2013-10-08,,,,,,,,,,7,NA,2013-03-17,-7,67,YEARS,>64,M,WHITE,White,NOT HISPANIC OR LATINO,Y,Xanomeline Low Dose,Xan_Lo,Xanomeline Low Dose,Xan_Lo,Xanomeline Low Dose,Xanomeline Low Dose,2013-03-24,2013-03-24T00:00:00Z,H,2013-06-14,2013-06-14T23:59:59Z,H,DISCONTINUED,2013-06-14,,2013-03-24,2013-06-14,83,,,,,,,Confirmed Response by Investigator,CRSP,Tumor Response,Investigator,RECIST 1.1,0,N,Y,,,,,,,,,,,,,
390,CDISCPILOT01,01-701-1294,1294,701,USA,,2013-03-24,2013-06-14,2013-03-24,2013-06-14,2013-10-08,,2013-10-08,,,,,,,,,,8,NA,2013-03-17,-7,67,YEARS,>64,M,WHITE,White,NOT HISPANIC OR LATINO,Y,Xanomeline Low Dose,Xan_Lo,Xanomeline Low Dose,Xan_Lo,Xanomeline Low Dose,Xanomeline Low Dose,2013-03-24,2013-03-24T00:00:00Z,H,2013-06-14,2013-06-14T23:59:59Z,H,DISCONTINUED,2013-06-14,,2013-03-24,2013-06-14,83,,,,,,,Death,DEATH,Reference Event,,,0,N,Y,,,,,,,,,,,,,
391,CDISCPILOT01,01-701-1294,1294,701,USA,,2013-03-24,2013-06-14,2013-03-24,2013-06-14,2013-10-08,,2013-10-08,,,,,,,,,,9,NA,2013-03-17,-7,67,YEARS,>64,M,WHITE,White,NOT HISPANIC OR LATINO,Y,Xanomeline Low Dose,Xan_Lo,Xanomeline Low Dose,Xan_Lo,Xanomeline Low Dose,Xanomeline Low Dose,2013-03-24,2013-03-24T00:00:00Z,H,2013-06-14,2013-06-14T23:59:59Z,H,DISCONTINUED,2013-06-14,,2013-03-24,2013-06-14,83,,,,,,,Last Disease Assessment by Investigator,LSTA,Tumor Response,Investigator,RECIST 1.1,,,Y,,,,,,,,,,,,,
392,CDISCPILOT01,01-701-1294,1294,701,USA,,2013-03-24,2013-06-14,2013-03-24,2013-06-14,2013-10-08,,2013-10-08,,,,,,,,,,10,NA,2013-03-17,-7,67,YEARS,>64,M,WHITE,White,NOT HISPANIC OR LATINO,Y,Xanomeline Low Dose,Xan_Lo,Xanomeline Low Dose,Xan_Lo,Xanomeline Low Dose,Xanomeline Low Dose,2013-03-24,2013-03-24T00:00:00Z,H,2013-06-14,2013-06-14T23:59:59Z,H,DISCONTINUED,2013-06-14,,,2013-06-14,83,,,,,,,Measurable Disease at Baseline by Investigator,MDIS,,Investigator,RECIST 1.1,0,N,Y,,,,,,,,,,,,,
393,CDISCPILOT01,01-701-1294,1294,701,USA,,2013-03-24,2013-06-14,2013-03-24,2013-06-14,2013-10-08,,2013-10-08,,,,,,,,,,11,NA,2013-03-17,-7,67,YEARS,>64,M,WHITE,White,NOT HISPANIC OR LATINO,Y,Xanomeline Low Dose,Xan_Lo,Xanomeline Low Dose,Xan_Lo,Xanomeline Low Dose,Xanomeline Low Dose,2013-03-24,2013-03-24T00:00:00Z,H,2013-06-14,2013-06-14T23:59:59Z,H,DISCONTINUED,2013-06-14,,2013-03-24,2013-06-14,83,,,,,,,Disease Progression by Investigator,PD,Tumor Response,Investigator,RECIST 1.1,0,N,Y,,,,,,,,,,,,,
394,CDISCPILOT01,01-701-1294,1294,701,USA,,2013-03-24,2013-06-14,2013-03-24,2013-06-14,2013-10-08,,2013-10-08,,,,,,,,,,12,NA,2013-03-17,-7,67,YEARS,>64,M,WHITE,White,NOT HISPANIC OR LATINO,Y,Xanomeline Low Dose,Xan_Lo,Xanomeline Low Dose,Xan_Lo,Xanomeline Low Dose,Xanomeline Low Dose,2013-03-24,2013-03-24T00:00:00Z,H,2013-06-14,2013-06-14T23:59:59Z,H,DISCONTINUED,2013-06-14,,2013-03-24,2013-06-14,83,,,,,,,Response by Investigator (confirmation not required),RSP,Tumor Response,Investigator,RECIST 1.1,0,N,Y,,,,,,,,,,,,,
395,CDISCPILOT01,01-701-1302,1302,701,USA,,2013-08-29,2013-11-05,2013-08-29,2013-11-05,2014-02-13,,2014-02-13,,,,,,,,,,1,NA,2013-08-20,-9,61,YEARS,18-64,M,WHITE,White,NOT HISPANIC OR LATINO,Y,Xanomeline High Dose,Xan_Hi,Xanomeline High Dose,Xan_Hi,Xanomeline High Dose,Xanomeline High Dose,2013-08-29,2013-08-29T00:00:00Z,H,2013-11-05,2013-11-05T23:59:59Z,H,DISCONTINUED,2013-11-05,,2013-08-29,2013-11-05,69,,,,,,,Best Overall Response of CR/PR by Investigator (confirmation not required),BCP,Tumor Response,Investigator,RECIST 1.1,0,N,Y,,,,,,,,,,,,,
396,CDISCPILOT01,01-701-1302,1302,701,USA,,2013-08-29,2013-11-05,2013-08-29,2013-11-05,2014-02-13,,2014-02-13,,,,,,,,,,2,NA,2013-08-20,-9,61,YEARS,18-64,M,WHITE,White,NOT HISPANIC OR LATINO,Y,Xanomeline High Dose,Xan_Hi,Xanomeline High Dose,Xan_Hi,Xanomeline High Dose,Xanomeline High Dose,2013-08-29,2013-08-29T00:00:00Z,H,2013-11-05,2013-11-05T23:59:59Z,H,DISCONTINUED,2013-11-05,,2013-08-29,2013-11-05,69,,,,,,,Best Overall Response by Investigator (confirmation not required),BOR,Tumor Response,Investigator,RECIST 1.1,7,MISSING,Y,,,,,,,,,,,,,
397,CDISCPILOT01,01-701-1302,1302,701,USA,,2013-08-29,2013-11-05,2013-08-29,2013-11-05,2014-02-13,,2014-02-13,,,,,,,,,,3,NA,2013-08-20,-9,61,YEARS,18-64,M,WHITE,White,NOT HISPANIC OR LATINO,Y,Xanomeline High Dose,Xan_Hi,Xanomeline High Dose,Xan_Hi,Xanomeline High Dose,Xanomeline High Dose,2013-08-29,2013-08-29T00:00:00Z,H,2013-11-05,2013-11-05T23:59:59Z,H,DISCONTINUED,2013-11-05,,2013-08-29,2013-11-05,69,,,,,,,Clinical Benefit by Investigator (confirmation for response not required),CB,Tumor Response,Investigator,RECIST 1.1,0,N,Y,,,,,,,,,,,,,
398,CDISCPILOT01,01-701-1302,1302,701,USA,,2013-08-29,2013-11-05,2013-08-29,2013-11-05,2014-02-13,,2014-02-13,,,,,,,,,,4,NA,2013-08-20,-9,61,YEARS,18-64,M,WHITE,White,NOT HISPANIC OR LATINO,Y,Xanomeline High Dose,Xan_Hi,Xanomeline High Dose,Xan_Hi,Xanomeline High Dose,Xanomeline High Dose,2013-08-29,2013-08-29T00:00:00Z,H,2013-11-05,2013-11-05T23:59:59Z,H,DISCONTINUED,2013-11-05,,2013-08-29,2013-11-05,69,,,,,,,Best Confirmed Overall Response of CR/PR by Investigator,CBCP,Tumor Response,Investigator,RECIST 1.1,0,N,Y,,,,,,,,,,,,,
399,CDISCPILOT01,01-701-1302,1302,701,USA,,2013-08-29,2013-11-05,2013-08-29,2013-11-05,2014-02-13,,2014-02-13,,,,,,,,,,5,NA,2013-08-20,-9,61,YEARS,18-64,M,WHITE,White,NOT HISPANIC OR LATINO,Y,Xanomeline High Dose,Xan_Hi,Xanomeline High Dose,Xan_Hi,Xanomeline High Dose,Xanomeline High Dose,2013-08-29,2013-08-29T00:00:00Z,H,2013-11-05,2013-11-05T23:59:59Z,H,DISCONTINUED,2013-11-05,,2013-08-29,2013-11-05,69,,,,,,,Best Confirmed Overall Response by Investigator,CBOR,Tumor Response,Investigator,RECIST 1.1,7,MISSING,Y,,,,,,,,,,,,,
400,CDISCPILOT01,01-701-1302,1302,701,USA,,2013-08-29,2013-11-05,2013-08-29,2013-11-05,2014-02-13,,2014-02-13,,,,,,,,,,6,NA,2013-08-20,-9,61,YEARS,18-64,M,WHITE,White,NOT HISPANIC OR LATINO,Y,Xanomeline High Dose,Xan_Hi,Xanomeline High Dose,Xan_Hi,Xanomeline High Dose,Xanomeline High Dose,2013-08-29,2013-08-29T00:00:00Z,H,2013-11-05,2013-11-05T23:59:59Z,H,DISCONTINUED,2013-11-05,,2013-08-29,2013-11-05,69,,,,,,,Confirmed Clinical Benefit by Investigator,CCB,Tumor Response,Investigator,RECIST 1.1,0,N,Y,,,,,,,,,,,,,
401,CDISCPILOT01,01-701-1302,1302,701,USA,,2013-08-29,2013-11-05,2013-08-29,2013-11-05,2014-02-13,,2014-02-13,,,,,,,,,,7,NA,2013-08-20,-9,61,YEARS,18-64,M,WHITE,White,NOT HISPANIC OR LATINO,Y,Xanomeline High Dose,Xan_Hi,Xanomeline High Dose,Xan_Hi,Xanomeline High Dose,Xanomeline High Dose,2013-08-29,2013-08-29T00:00:00Z,H,2013-11-05,2013-11-05T23:59:59Z,H,DISCONTINUED,2013-11-05,,2013-08-29,2013-11-05,69,,,,,,,Confirmed Response by Investigator,CRSP,Tumor Response,Investigator,RECIST 1.1,0,N,Y,,,,,,,,,,,,,
402,CDISCPILOT01,01-701-1302,1302,701,USA,,2013-08-29,2013-11-05,2013-08-29,2013-11-05,2014-02-13,,2014-02-13,,,,,,,,,,8,NA,2013-08-20,-9,61,YEARS,18-64,M,WHITE,White,NOT HISPANIC OR LATINO,Y,Xanomeline High Dose,Xan_Hi,Xanomeline High Dose,Xan_Hi,Xanomeline High Dose,Xanomeline High Dose,2013-08-29,2013-08-29T00:00:00Z,H,2013-11-05,2013-11-05T23:59:59Z,H,DISCONTINUED,2013-11-05,,2013-08-29,2013-11-05,69,,,,,,,Death,DEATH,Reference Event,,,0,N,Y,,,,,,,,,,,,,
403,CDISCPILOT01,01-701-1302,1302,701,USA,,2013-08-29,2013-11-05,2013-08-29,2013-11-05,2014-02-13,,2014-02-13,,,,,,,,,,9,NA,2013-08-20,-9,61,YEARS,18-64,M,WHITE,White,NOT HISPANIC OR LATINO,Y,Xanomeline High Dose,Xan_Hi,Xanomeline High Dose,Xan_Hi,Xanomeline High Dose,Xanomeline High Dose,2013-08-29,2013-08-29T00:00:00Z,H,2013-11-05,2013-11-05T23:59:59Z,H,DISCONTINUED,2013-11-05,,2013-08-29,2013-11-05,69,,,,,,,Last Disease Assessment by Investigator,LSTA,Tumor Response,Investigator,RECIST 1.1,,,Y,,,,,,,,,,,,,
