rownames,STUDYID,USUBJID,SUBJID,SITEID,COUNTRY,RFSTDTC,RFENDTC,RFXSTDTC,RFXENDTC,RFPENDTC,DTHDTC,DTHFL,REGION1,BRTHDTC,DMDTC,DMDY,AGE,AGEU,AGEGR1,SEX,RACE,RACEGR1,ETHNIC,SAFFL,PPROTFL,ARM,ARMCD,ACTARM,ACTARMCD,TRT01P,TRT01A,TRT02P,TRT02A,TRTSDT,TRTSDTM,TRTEDT,TRTEDTM,AP01SDT,AP01EDT,AP02SDT,AP02EDT,RFICDTC,INVID,INVNAM,VAX01DT,VAX02DT
1,ABC,ABC-1001,1001,1001,USA,2021-11-03T10:50:00,2022-04-27,2021-11-03T10:50:00,2021-12-30T09:10:00,2022-04-27,,,NA,1947-09-21,,,74,YEARS,>64,F,WHITE,White,NOT HISPANIC OR LATINO,Y,Y,VACCINE A VACCINE B,VAXAB,VACCINE A VACCINE B,VAXAB,VACCINE A,VACCINE A,VACCINE B,VACCINE B,2021-11-03,2021-11-03T10:50:00Z,2021-12-30,2021-12-30T09:10:00Z,2021-11-03,2021-12-29,2021-12-30,2022-04-27,2021-10-28,1328,"Potter, Harry",2021-11-03,2021-12-30
2,ABC,ABC-1002,1002,1002,USA,2021-10-07T12:48:00,2022-06-14,2021-10-07T12:48:00,2021-12-16T12:41:00,2022-06-14,,,NA,1951-07-13,,,70,YEARS,>64,F,BLACK OR AFRICAN AMERICAN,Non-white,HISPANIC OR LATINO,Y,Y,VACCINE A VACCINE B,VAXAB,VACCINE A VACCINE B,VAXAB,VACCINE A,VACCINE A,VACCINE B,VACCINE B,2021-10-07,2021-10-07T12:48:00Z,2021-12-16,2021-12-16T12:41:00Z,2021-10-07,2021-12-15,2021-12-16,2022-06-14,2021-09-22,1212,"Gomez, Selena",2021-10-07,2021-12-16
