rownames,STUDYID,USUBJID,DOMAIN,ASEQ,TRT01P,TRT01A,TRTSDT,TRTEDT,ADT,ADY,AVISIT,AVISITN,PARAM,PARAMCD,AVAL,AVALC,BASE,BASEC,BASETYPE,CHG,PCHG,ABLFL,ANL01FL,ANL02FL,ONTRTFL,NVSEQ,NVLNKID,NVTESTCD,NVTEST,NVCAT,NVLOC,NVNAM,NVORRES,NVORRESU,NVSTRESC,NVSTRESN,NVSTRESU,NVMETHOD,NVLOBXFL,REFREG,AGTRT,AGCAT,VISITNUM,VISIT,NVDTC,NVDY
1,CDISCPILOT01,01-701-1015,NV,1,Placebo,Placebo,2014-01-02,2014-07-02,2013-12-29,-4,Baseline,0,AVID FTP Standard Uptake Ratio Neocortical Composite Inferior Cerebellar Gray Matter,SUVRAFTP,1.808,,1.808,,LAST,,,Y,Y,Y,,3,3,SUVR,Standardized Uptake Value Ratio,FTP,NEOCORTICAL COMPOSITE,AVID,1.808,RATIO,1.808,1.808,RATIO,AVID FTP SUVR PIPELINE,Y,Inferior Cerebellar Gray Matter,18F-Flortaucipir,TAU TRACER,3,BASELINE,2013-12-29,-3
2,CDISCPILOT01,01-701-1015,NV,2,Placebo,Placebo,2014-01-02,2014-07-02,2014-03-28,86,Week 12,12,AVID FTP Standard Uptake Ratio Neocortical Composite Inferior Cerebellar Gray Matter,SUVRAFTP,1.936,,1.808,,LAST,0.1279999999999999,7.079646017699109,,Y,,Y,6,6,SUVR,Standardized Uptake Value Ratio,FTP,NEOCORTICAL COMPOSITE,AVID,1.936,RATIO,1.936,1.936,RATIO,AVID FTP SUVR PIPELINE,,Inferior Cerebellar Gray Matter,18F-Flortaucipir,TAU TRACER,9,WEEK 12,2014-03-28,86
3,CDISCPILOT01,01-701-1015,NV,3,Placebo,Placebo,2014-01-02,2014-07-02,2014-06-28,178,Week 26,26,AVID FTP Standard Uptake Ratio Neocortical Composite Inferior Cerebellar Gray Matter,SUVRAFTP,2.155,,1.808,,LAST,0.34699999999999975,19.19247787610618,,Y,Y,Y,8,9,SUVR,Standardized Uptake Value Ratio,FTP,NEOCORTICAL COMPOSITE,AVID,2.155,RATIO,2.155,2.155,RATIO,AVID FTP SUVR PIPELINE,,Inferior Cerebellar Gray Matter,18F-Flortaucipir,TAU TRACER,13,WEEK 26,2014-06-28,178
4,CDISCPILOT01,01-701-1023,NV,1,Placebo,Placebo,2012-08-05,2012-09-01,2012-08-03,-2,Baseline,0,BERKELEY FTP Standard Uptake Ratio Neocortical Composite Inferior Cerebellar Gray Matter,SUVRBFTP,1.92,,1.92,,LAST,,,Y,Y,Y,,3,3,SUVR,Standardized Uptake Value Ratio,FTP,NEOCORTICAL COMPOSITE,BERKELEY,1.92,RATIO,1.92,1.92,RATIO,BERKELEY FTP SUVR PIPELINE,Y,Inferior Cerebellar Gray Matter,18F-Flortaucipir,TAU TRACER,3,BASELINE,2012-08-03,-1
5,CDISCPILOT01,01-701-1028,NV,1,No Treatment,No Treatment,,,2013-07-15,,Baseline,0,AVID FTP Standard Uptake Ratio Neocortical Composite Inferior Cerebellar Gray Matter,SUVRAFTP,2.311,,,,LAST,,,,,,,3,3,SUVR,Standardized Uptake Value Ratio,FTP,NEOCORTICAL COMPOSITE,AVID,2.311,RATIO,2.311,2.311,RATIO,AVID FTP SUVR PIPELINE,Y,Inferior Cerebellar Gray Matter,18F-Flortaucipir,TAU TRACER,3,BASELINE,2013-07-15,-3
6,CDISCPILOT01,01-701-1028,NV,2,No Treatment,No Treatment,,,2013-10-06,,Week 12,12,AVID FTP Standard Uptake Ratio Neocortical Composite Inferior Cerebellar Gray Matter,SUVRAFTP,2.439,,,,LAST,,,,,,,6,6,SUVR,Standardized Uptake Value Ratio,FTP,NEOCORTICAL COMPOSITE,AVID,2.439,RATIO,2.439,2.439,RATIO,AVID FTP SUVR PIPELINE,,Inferior Cerebellar Gray Matter,18F-Flortaucipir,TAU TRACER,9,WEEK 12,2013-10-06,80
7,CDISCPILOT01,01-701-1028,NV,3,No Treatment,No Treatment,,,2014-01-17,,Week 26,26,AVID FTP Standard Uptake Ratio Neocortical Composite Inferior Cerebellar Gray Matter,SUVRAFTP,2.658,,,,LAST,,,,,,,8,9,SUVR,Standardized Uptake Value Ratio,FTP,NEOCORTICAL COMPOSITE,AVID,2.658,RATIO,2.658,2.658,RATIO,AVID FTP SUVR PIPELINE,,Inferior Cerebellar Gray Matter,18F-Flortaucipir,TAU TRACER,13,WEEK 26,2014-01-17,183
8,CDISCPILOT01,01-701-1034,NV,1,Xanomeline High Dose,Xanomeline High Dose,2014-07-01,2014-12-30,2014-06-27,-4,Baseline,0,BERKELEY FTP Standard Uptake Ratio Neocortical Composite Inferior Cerebellar Gray Matter,SUVRBFTP,1.795,,1.795,,LAST,,,Y,Y,Y,,3,3,SUVR,Standardized Uptake Value Ratio,FTP,NEOCORTICAL COMPOSITE,BERKELEY,1.795,RATIO,1.795,1.795,RATIO,BERKELEY FTP SUVR PIPELINE,Y,Inferior Cerebellar Gray Matter,18F-Flortaucipir,TAU TRACER,3,BASELINE,2014-06-27,-3
9,CDISCPILOT01,01-701-1034,NV,2,Xanomeline High Dose,Xanomeline High Dose,2014-07-01,2014-12-30,2014-09-21,83,Week 12,12,BERKELEY FTP Standard Uptake Ratio Neocortical Composite Inferior Cerebellar Gray Matter,SUVRBFTP,1.786,,1.795,,LAST,-0.008999999999999897,-0.5013927576601614,,Y,,Y,6,6,SUVR,Standardized Uptake Value Ratio,FTP,NEOCORTICAL COMPOSITE,BERKELEY,1.786,RATIO,1.786,1.786,RATIO,BERKELEY FTP SUVR PIPELINE,,Inferior Cerebellar Gray Matter,18F-Flortaucipir,TAU TRACER,9,WEEK 12,2014-09-21,83
10,CDISCPILOT01,01-701-1034,NV,3,Xanomeline High Dose,Xanomeline High Dose,2014-07-01,2014-12-30,2014-12-28,181,Week 26,26,BERKELEY FTP Standard Uptake Ratio Neocortical Composite Inferior Cerebellar Gray Matter,SUVRBFTP,1.774,,1.795,,LAST,-0.020999999999999908,-1.169916434540385,,Y,Y,Y,8,9,SUVR,Standardized Uptake Value Ratio,FTP,NEOCORTICAL COMPOSITE,BERKELEY,1.774,RATIO,1.774,1.774,RATIO,BERKELEY FTP SUVR PIPELINE,,Inferior Cerebellar Gray Matter,18F-Flortaucipir,TAU TRACER,13,WEEK 26,2014-12-28,181
11,CDISCPILOT01,01-701-1146,NV,1,Xanomeline High Dose,Xanomeline High Dose,2013-05-20,2013-06-26,2013-05-16,-4,Baseline,0,BERKELEY FTP Standard Uptake Ratio Neocortical Composite Inferior Cerebellar Gray Matter,SUVRBFTP,1.563,,1.563,,LAST,,,Y,Y,Y,,3,3,SUVR,Standardized Uptake Value Ratio,FTP,NEOCORTICAL COMPOSITE,BERKELEY,1.563,RATIO,1.563,1.563,RATIO,BERKELEY FTP SUVR PIPELINE,Y,Inferior Cerebellar Gray Matter,18F-Flortaucipir,TAU TRACER,3,BASELINE,2013-05-16,-3
12,CDISCPILOT01,01-701-1153,NV,1,Placebo,Placebo,2013-09-23,2014-03-16,2013-09-20,-3,Baseline,0,BERKELEY FTP Standard Uptake Ratio Neocortical Composite Inferior Cerebellar Gray Matter,SUVRBFTP,1.172,,1.172,,LAST,,,Y,Y,Y,,3,3,SUVR,Standardized Uptake Value Ratio,FTP,NEOCORTICAL COMPOSITE,BERKELEY,1.172,RATIO,1.172,1.172,RATIO,BERKELEY FTP SUVR PIPELINE,Y,Inferior Cerebellar Gray Matter,18F-Flortaucipir,TAU TRACER,3,BASELINE,2013-09-20,-2
13,CDISCPILOT01,01-701-1153,NV,2,Placebo,Placebo,2013-09-23,2014-03-16,2013-12-18,87,Week 12,12,BERKELEY FTP Standard Uptake Ratio Neocortical Composite Inferior Cerebellar Gray Matter,SUVRBFTP,1.3,,1.172,,LAST,0.1280000000000001,10.921501706484651,,Y,Y,Y,6,6,SUVR,Standardized Uptake Value Ratio,FTP,NEOCORTICAL COMPOSITE,BERKELEY,1.3,RATIO,1.3,1.3,RATIO,BERKELEY FTP SUVR PIPELINE,,Inferior Cerebellar Gray Matter,18F-Flortaucipir,TAU TRACER,9,WEEK 12,2013-12-18,87
14,CDISCPILOT01,01-701-1153,NV,3,Placebo,Placebo,2013-09-23,2014-03-16,2014-04-04,194,Week 26,26,BERKELEY FTP Standard Uptake Ratio Neocortical Composite Inferior Cerebellar Gray Matter,SUVRBFTP,1.519,,1.172,,LAST,0.347,29.60750853242321,,,,,8,9,SUVR,Standardized Uptake Value Ratio,FTP,NEOCORTICAL COMPOSITE,BERKELEY,1.519,RATIO,1.519,1.519,RATIO,BERKELEY FTP SUVR PIPELINE,,Inferior Cerebellar Gray Matter,18F-Flortaucipir,TAU TRACER,13,WEEK 26,2014-04-04,194
15,CDISCPILOT01,01-701-1181,NV,1,No Treatment,No Treatment,,,2013-12-02,,Baseline,0,AVID FTP Standard Uptake Ratio Neocortical Composite Inferior Cerebellar Gray Matter,SUVRAFTP,2.124,,,,LAST,,,,,,,3,3,SUVR,Standardized Uptake Value Ratio,FTP,NEOCORTICAL COMPOSITE,AVID,2.124,RATIO,2.124,2.124,RATIO,AVID FTP SUVR PIPELINE,Y,Inferior Cerebellar Gray Matter,18F-Flortaucipir,TAU TRACER,3,BASELINE,2013-12-02,-2
16,CDISCPILOT01,01-701-1234,NV,1,Placebo,Placebo,2013-03-30,2013-09-22,2013-03-26,-4,Baseline,0,BERKELEY FTP Standard Uptake Ratio Neocortical Composite Inferior Cerebellar Gray Matter,SUVRBFTP,1.748,,1.748,,LAST,,,Y,Y,Y,,3,3,SUVR,Standardized Uptake Value Ratio,FTP,NEOCORTICAL COMPOSITE,BERKELEY,1.748,RATIO,1.748,1.748,RATIO,BERKELEY FTP SUVR PIPELINE,Y,Inferior Cerebellar Gray Matter,18F-Flortaucipir,TAU TRACER,3,BASELINE,2013-03-26,-3
17,CDISCPILOT01,01-701-1234,NV,2,Placebo,Placebo,2013-03-30,2013-09-22,2013-07-11,104,Week 12,12,BERKELEY FTP Standard Uptake Ratio Neocortical Composite Inferior Cerebellar Gray Matter,SUVRBFTP,1.876,,1.748,,LAST,0.1279999999999999,7.322654462242557,,Y,,Y,6,6,SUVR,Standardized Uptake Value Ratio,FTP,NEOCORTICAL COMPOSITE,BERKELEY,1.876,RATIO,1.876,1.876,RATIO,BERKELEY FTP SUVR PIPELINE,,Inferior Cerebellar Gray Matter,18F-Flortaucipir,TAU TRACER,9,WEEK 12,2013-07-11,104
18,CDISCPILOT01,01-701-1234,NV,3,Placebo,Placebo,2013-03-30,2013-09-22,2013-09-20,175,Week 26,26,BERKELEY FTP Standard Uptake Ratio Neocortical Composite Inferior Cerebellar Gray Matter,SUVRBFTP,2.095,,1.748,,LAST,0.3470000000000002,19.851258581235708,,Y,Y,Y,8,9,SUVR,Standardized Uptake Value Ratio,FTP,NEOCORTICAL COMPOSITE,BERKELEY,2.095,RATIO,2.095,2.095,RATIO,BERKELEY FTP SUVR PIPELINE,,Inferior Cerebellar Gray Matter,18F-Flortaucipir,TAU TRACER,13,WEEK 26,2013-09-20,175
19,CDISCPILOT01,01-701-1275,NV,1,Xanomeline High Dose,Xanomeline High Dose,2014-02-07,2014-05-31,2014-02-03,-4,Baseline,0,BERKELEY FTP Standard Uptake Ratio Neocortical Composite Inferior Cerebellar Gray Matter,SUVRBFTP,1.32,,1.32,,LAST,,,Y,Y,Y,,3,3,SUVR,Standardized Uptake Value Ratio,FTP,NEOCORTICAL COMPOSITE,BERKELEY,1.32,RATIO,1.32,1.32,RATIO,BERKELEY FTP SUVR PIPELINE,Y,Inferior Cerebellar Gray Matter,18F-Flortaucipir,TAU TRACER,3,BASELINE,2014-02-03,-3
20,CDISCPILOT01,01-701-1275,NV,2,Xanomeline High Dose,Xanomeline High Dose,2014-02-07,2014-05-31,2014-04-29,82,Week 12,12,BERKELEY FTP Standard Uptake Ratio Neocortical Composite Inferior Cerebellar Gray Matter,SUVRBFTP,1.311,,1.32,,LAST,-0.009000000000000119,-0.6818181818181908,,Y,Y,Y,6,6,SUVR,Standardized Uptake Value Ratio,FTP,NEOCORTICAL COMPOSITE,BERKELEY,1.311,RATIO,1.311,1.311,RATIO,BERKELEY FTP SUVR PIPELINE,,Inferior Cerebellar Gray Matter,18F-Flortaucipir,TAU TRACER,9,WEEK 12,2014-04-29,82
21,CDISCPILOT01,01-701-1302,NV,1,Xanomeline High Dose,Xanomeline High Dose,2013-08-29,2013-11-05,2013-08-26,-3,Baseline,0,AVID FTP Standard Uptake Ratio Neocortical Composite Inferior Cerebellar Gray Matter,SUVRAFTP,2.081,,2.081,,LAST,,,Y,Y,Y,,3,3,SUVR,Standardized Uptake Value Ratio,FTP,NEOCORTICAL COMPOSITE,AVID,2.081,RATIO,2.081,2.081,RATIO,AVID FTP SUVR PIPELINE,Y,Inferior Cerebellar Gray Matter,18F-Flortaucipir,TAU TRACER,3,BASELINE,2013-08-26,-2
22,CDISCPILOT01,01-701-1302,NV,2,Xanomeline High Dose,Xanomeline High Dose,2013-08-29,2013-11-05,2013-11-09,73,Week 12,12,AVID FTP Standard Uptake Ratio Neocortical Composite Inferior Cerebellar Gray Matter,SUVRAFTP,2.072,,2.081,,LAST,-0.008999999999999897,-0.4324843825084045,,,,,6,6,SUVR,Standardized Uptake Value Ratio,FTP,NEOCORTICAL COMPOSITE,AVID,2.072,RATIO,2.072,2.072,RATIO,AVID FTP SUVR PIPELINE,,Inferior Cerebellar Gray Matter,18F-Flortaucipir,TAU TRACER,9,WEEK 12,2013-11-09,73
23,CDISCPILOT01,01-701-1345,NV,1,No Treatment,No Treatment,,,2013-10-06,,Baseline,0,BERKELEY FTP Standard Uptake Ratio Neocortical Composite Inferior Cerebellar Gray Matter,SUVRBFTP,1.352,,,,LAST,,,,,,,3,3,SUVR,Standardized Uptake Value Ratio,FTP,NEOCORTICAL COMPOSITE,BERKELEY,1.352,RATIO,1.352,1.352,RATIO,BERKELEY FTP SUVR PIPELINE,Y,Inferior Cerebellar Gray Matter,18F-Flortaucipir,TAU TRACER,3,BASELINE,2013-10-06,-1
24,CDISCPILOT01,01-701-1345,NV,2,No Treatment,No Treatment,,,2013-12-28,,Week 12,12,BERKELEY FTP Standard Uptake Ratio Neocortical Composite Inferior Cerebellar Gray Matter,SUVRBFTP,1.48,,,,LAST,,,,,,,6,6,SUVR,Standardized Uptake Value Ratio,FTP,NEOCORTICAL COMPOSITE,BERKELEY,1.48,RATIO,1.48,1.48,RATIO,BERKELEY FTP SUVR PIPELINE,,Inferior Cerebellar Gray Matter,18F-Flortaucipir,TAU TRACER,9,WEEK 12,2013-12-28,82
25,CDISCPILOT01,01-701-1360,NV,1,No Treatment,No Treatment,,,2013-07-28,,Baseline,0,AVID FTP Standard Uptake Ratio Neocortical Composite Inferior Cerebellar Gray Matter,SUVRAFTP,2.035,,,,LAST,,,,,,,3,3,SUVR,Standardized Uptake Value Ratio,FTP,NEOCORTICAL COMPOSITE,AVID,2.035,RATIO,2.035,2.035,RATIO,AVID FTP SUVR PIPELINE,Y,Inferior Cerebellar Gray Matter,18F-Flortaucipir,TAU TRACER,3,BASELINE,2013-07-28,-2
26,CDISCPILOT01,01-701-1383,NV,1,Xanomeline High Dose,Xanomeline High Dose,2013-02-04,2013-08-06,2013-02-02,-2,Baseline,0,BERKELEY FTP Standard Uptake Ratio Neocortical Composite Inferior Cerebellar Gray Matter,SUVRBFTP,1.749,,1.749,,LAST,,,Y,Y,Y,,3,3,SUVR,Standardized Uptake Value Ratio,FTP,NEOCORTICAL COMPOSITE,BERKELEY,1.749,RATIO,1.749,1.749,RATIO,BERKELEY FTP SUVR PIPELINE,Y,Inferior Cerebellar Gray Matter,18F-Flortaucipir,TAU TRACER,3,BASELINE,2013-02-02,-1
27,CDISCPILOT01,01-701-1383,NV,2,Xanomeline High Dose,Xanomeline High Dose,2013-02-04,2013-08-06,2013-04-28,84,Week 12,12,BERKELEY FTP Standard Uptake Ratio Neocortical Composite Inferior Cerebellar Gray Matter,SUVRBFTP,1.74,,1.749,,LAST,-0.009000000000000119,-0.5145797598627855,,Y,,Y,6,6,SUVR,Standardized Uptake Value Ratio,FTP,NEOCORTICAL COMPOSITE,BERKELEY,1.74,RATIO,1.74,1.74,RATIO,BERKELEY FTP SUVR PIPELINE,,Inferior Cerebellar Gray Matter,18F-Flortaucipir,TAU TRACER,9,WEEK 12,2013-04-28,84
28,CDISCPILOT01,01-701-1383,NV,3,Xanomeline High Dose,Xanomeline High Dose,2013-02-04,2013-08-06,2013-08-02,180,Week 26,26,BERKELEY FTP Standard Uptake Ratio Neocortical Composite Inferior Cerebellar Gray Matter,SUVRBFTP,1.728,,1.749,,LAST,-0.02100000000000013,-1.200686106346491,,Y,Y,Y,8,9,SUVR,Standardized Uptake Value Ratio,FTP,NEOCORTICAL COMPOSITE,BERKELEY,1.728,RATIO,1.728,1.728,RATIO,BERKELEY FTP SUVR PIPELINE,,Inferior Cerebellar Gray Matter,18F-Flortaucipir,TAU TRACER,13,WEEK 26,2013-08-02,180
29,CDISCPILOT01,01-701-1392,NV,1,Placebo,Placebo,2012-10-28,2013-04-28,2012-10-24,-4,Baseline,0,AVID FTP Standard Uptake Ratio Neocortical Composite Inferior Cerebellar Gray Matter,SUVRAFTP,2.07,,2.07,,LAST,,,Y,Y,Y,,3,3,SUVR,Standardized Uptake Value Ratio,FTP,NEOCORTICAL COMPOSITE,AVID,2.07,RATIO,2.07,2.07,RATIO,AVID FTP SUVR PIPELINE,Y,Inferior Cerebellar Gray Matter,18F-Flortaucipir,TAU TRACER,3,BASELINE,2012-10-24,-3
30,CDISCPILOT01,01-701-1392,NV,2,Placebo,Placebo,2012-10-28,2013-04-28,2013-01-17,82,Week 12,12,AVID FTP Standard Uptake Ratio Neocortical Composite Inferior Cerebellar Gray Matter,SUVRAFTP,2.198,,2.07,,LAST,0.1280000000000001,6.183574879227059,,Y,Y,Y,6,6,SUVR,Standardized Uptake Value Ratio,FTP,NEOCORTICAL COMPOSITE,AVID,2.198,RATIO,2.198,2.198,RATIO,AVID FTP SUVR PIPELINE,,Inferior Cerebellar Gray Matter,18F-Flortaucipir,TAU TRACER,9,WEEK 12,2013-01-17,82
31,CDISCPILOT01,01-701-1392,NV,3,Placebo,Placebo,2012-10-28,2013-04-28,2013-05-02,187,Week 26,26,AVID FTP Standard Uptake Ratio Neocortical Composite Inferior Cerebellar Gray Matter,SUVRAFTP,2.417,,2.07,,LAST,0.347,16.76328502415459,,,,,8,9,SUVR,Standardized Uptake Value Ratio,FTP,NEOCORTICAL COMPOSITE,AVID,2.417,RATIO,2.417,2.417,RATIO,AVID FTP SUVR PIPELINE,,Inferior Cerebellar Gray Matter,18F-Flortaucipir,TAU TRACER,13,WEEK 26,2013-05-02,187
32,CDISCPILOT01,01-714-1288,NV,1,No Treatment,No Treatment,,,2013-12-02,,Baseline,0,AVID FTP Standard Uptake Ratio Neocortical Composite Inferior Cerebellar Gray Matter,SUVRAFTP,1.935,,,,LAST,,,,,,,3,3,SUVR,Standardized Uptake Value Ratio,FTP,NEOCORTICAL COMPOSITE,AVID,1.935,RATIO,1.935,1.935,RATIO,AVID FTP SUVR PIPELINE,Y,Inferior Cerebellar Gray Matter,18F-Flortaucipir,TAU TRACER,3,BASELINE,2013-12-02,-1
33,CDISCPILOT01,01-714-1288,NV,2,No Treatment,No Treatment,,,2014-03-04,,Week 12,12,AVID FTP Standard Uptake Ratio Neocortical Composite Inferior Cerebellar Gray Matter,SUVRAFTP,2.063,,,,LAST,,,,,,,6,6,SUVR,Standardized Uptake Value Ratio,FTP,NEOCORTICAL COMPOSITE,AVID,2.063,RATIO,2.063,2.063,RATIO,AVID FTP SUVR PIPELINE,,Inferior Cerebellar Gray Matter,18F-Flortaucipir,TAU TRACER,9,WEEK 12,2014-03-04,91
34,CDISCPILOT01,01-714-1288,NV,3,No Treatment,No Treatment,,,2014-06-20,,Week 26,26,AVID FTP Standard Uptake Ratio Neocortical Composite Inferior Cerebellar Gray Matter,SUVRAFTP,2.282,,,,LAST,,,,,,,8,9,SUVR,Standardized Uptake Value Ratio,FTP,NEOCORTICAL COMPOSITE,AVID,2.282,RATIO,2.282,2.282,RATIO,AVID FTP SUVR PIPELINE,,Inferior Cerebellar Gray Matter,18F-Flortaucipir,TAU TRACER,13,WEEK 26,2014-06-20,199
