rownames,STUDYID,USUBJID,ASEQ,AGE,SEX,ARM,ARMCD,ACTARM,ACTARMCD,ADT,PARAM,PARAMCD,AVAL,STARTDT,CNSR,EVNTDESC,CNSDTDSC,SRCDOM,SRCVAR,SRCSEQ
1,CDISCPILOT01,01-701-1015,1,63,F,Placebo,Pbo,Placebo,Pbo,2014-07-02,Overall Survival,OS,182,2014-01-02,1,Alive,Alive During Study,ADSL,LSTALVDT,
2,CDISCPILOT01,01-701-1015,2,63,F,Placebo,Pbo,Placebo,Pbo,2014-03-06,Progression Free Survival,PFS,64,2014-01-02,1,Last Tumor Assessment,Last Tumor Assessment,ADRS,ADT,9
3,CDISCPILOT01,01-701-1015,3,63,F,Placebo,Pbo,Placebo,Pbo,2014-03-06,Duration of Response,RSD,1,2014-03-06,1,Last Tumor Assessment,Last Tumor Assessment,ADRS,ADT,9
4,CDISCPILOT01,01-701-1023,1,64,M,Placebo,Pbo,Placebo,Pbo,2012-09-02,Overall Survival,OS,29,2012-08-05,1,Alive,Alive During Study,ADSL,LSTALVDT,
5,CDISCPILOT01,01-701-1023,2,64,M,Placebo,Pbo,Placebo,Pbo,2012-08-05,Progression Free Survival,PFS,1,2012-08-05,1,Randomization,Randomization,ADSL,RANDDT,
6,CDISCPILOT01,01-701-1028,1,71,M,Xanomeline High Dose,Xan_Hi,Xanomeline High Dose,Xan_Hi,2014-01-14,Overall Survival,OS,180,2013-07-19,1,Alive,Alive During Study,ADSL,LSTALVDT,
7,CDISCPILOT01,01-701-1028,2,71,M,Xanomeline High Dose,Xan_Hi,Xanomeline High Dose,Xan_Hi,2013-08-30,Progression Free Survival,PFS,43,2013-07-19,0,Disease Progression,,ADRS,ADT,14
8,CDISCPILOT01,01-701-1033,1,74,M,Xanomeline Low Dose,Xan_Lo,Xanomeline Low Dose,Xan_Lo,2014-04-14,Overall Survival,OS,28,2014-03-18,1,Alive,Alive During Study,ADSL,LSTALVDT,
9,CDISCPILOT01,01-701-1033,2,74,M,Xanomeline Low Dose,Xan_Lo,Xanomeline Low Dose,Xan_Lo,2014-03-18,Progression Free Survival,PFS,1,2014-03-18,1,Randomization,Randomization,ADSL,RANDDT,
10,CDISCPILOT01,01-701-1034,1,77,F,Xanomeline High Dose,Xan_Hi,Xanomeline High Dose,Xan_Hi,2014-12-30,Overall Survival,OS,183,2014-07-01,1,Alive,Alive During Study,ADSL,LSTALVDT,
11,CDISCPILOT01,01-701-1034,2,77,F,Xanomeline High Dose,Xan_Hi,Xanomeline High Dose,Xan_Hi,2014-08-12,Progression Free Survival,PFS,43,2014-07-01,1,Last Tumor Assessment,Last Tumor Assessment,ADRS,ADT,9
12,CDISCPILOT01,01-701-1047,1,85,F,Placebo,Pbo,Placebo,Pbo,2013-04-07,Overall Survival,OS,55,2013-02-12,1,Alive,Alive During Study,ADSL,LSTALVDT,
13,CDISCPILOT01,01-701-1047,2,85,F,Placebo,Pbo,Placebo,Pbo,2013-02-12,Progression Free Survival,PFS,1,2013-02-12,1,Randomization,Randomization,ADSL,RANDDT,
14,CDISCPILOT01,01-701-1097,1,68,M,Xanomeline Low Dose,Xan_Lo,Xanomeline Low Dose,Xan_Lo,2014-07-09,Overall Survival,OS,190,2014-01-01,1,Alive,Alive During Study,ADSL,LSTALVDT,
15,CDISCPILOT01,01-701-1097,2,68,M,Xanomeline Low Dose,Xan_Lo,Xanomeline Low Dose,Xan_Lo,2014-01-22,Progression Free Survival,PFS,22,2014-01-01,1,Last Tumor Assessment,Last Tumor Assessment,ADRS,ADT,9
16,CDISCPILOT01,01-701-1111,1,81,F,Xanomeline Low Dose,Xan_Lo,Xanomeline Low Dose,Xan_Lo,2012-09-17,Overall Survival,OS,11,2012-09-07,1,Alive,Alive During Study,ADSL,LSTALVDT,
17,CDISCPILOT01,01-701-1111,2,81,F,Xanomeline Low Dose,Xan_Lo,Xanomeline Low Dose,Xan_Lo,2012-09-07,Progression Free Survival,PFS,1,2012-09-07,1,Randomization,Randomization,ADSL,RANDDT,
18,CDISCPILOT01,01-701-1115,1,84,M,Xanomeline Low Dose,Xan_Lo,Xanomeline Low Dose,Xan_Lo,2013-01-23,Overall Survival,OS,55,2012-11-30,1,Alive,Alive During Study,ADSL,LSTALVDT,
19,CDISCPILOT01,01-701-1115,2,84,M,Xanomeline Low Dose,Xan_Lo,Xanomeline Low Dose,Xan_Lo,2013-02-01,Progression Free Survival,PFS,64,2012-11-30,1,Last Tumor Assessment,Last Tumor Assessment,ADRS,ADT,9
20,CDISCPILOT01,01-701-1115,3,84,M,Xanomeline Low Dose,Xan_Lo,Xanomeline Low Dose,Xan_Lo,2013-02-01,Duration of Response,RSD,22,2013-01-11,1,Last Tumor Assessment,Last Tumor Assessment,ADRS,ADT,9
21,CDISCPILOT01,01-701-1118,1,52,M,Placebo,Pbo,Placebo,Pbo,2014-09-09,Overall Survival,OS,182,2014-03-12,1,Alive,Alive During Study,ADSL,LSTALVDT,
22,CDISCPILOT01,01-701-1118,2,52,M,Placebo,Pbo,Placebo,Pbo,2014-06-04,Progression Free Survival,PFS,85,2014-03-12,1,Last Tumor Assessment,Last Tumor Assessment,ADRS,ADT,9
23,CDISCPILOT01,01-701-1118,3,52,M,Placebo,Pbo,Placebo,Pbo,2014-06-04,Duration of Response,RSD,43,2014-04-23,1,Last Tumor Assessment,Last Tumor Assessment,ADRS,ADT,9
24,CDISCPILOT01,01-701-1130,1,84,M,Placebo,Pbo,Placebo,Pbo,2014-08-16,Overall Survival,OS,183,2014-02-15,1,Alive,Alive During Study,ADSL,LSTALVDT,
25,CDISCPILOT01,01-701-1130,2,84,M,Placebo,Pbo,Placebo,Pbo,2014-04-19,Progression Free Survival,PFS,64,2014-02-15,0,Disease Progression,,ADRS,ADT,14
26,CDISCPILOT01,01-701-1133,1,81,F,Xanomeline High Dose,Xan_Hi,Xanomeline High Dose,Xan_Hi,2013-04-29,Overall Survival,OS,184,2012-10-28,1,Alive,Alive During Study,ADSL,LSTALVDT,
27,CDISCPILOT01,01-701-1133,2,81,F,Xanomeline High Dose,Xan_Hi,Xanomeline High Dose,Xan_Hi,2012-12-30,Progression Free Survival,PFS,64,2012-10-28,0,Disease Progression,,ADRS,ADT,14
28,CDISCPILOT01,01-701-1133,3,81,F,Xanomeline High Dose,Xan_Hi,Xanomeline High Dose,Xan_Hi,2012-12-30,Duration of Response,RSD,43,2012-11-18,0,Disease Progression,,ADRS,ADT,14
29,CDISCPILOT01,01-701-1146,1,75,F,Xanomeline High Dose,Xan_Hi,Xanomeline High Dose,Xan_Hi,2013-06-30,Overall Survival,OS,42,2013-05-20,1,Alive,Alive During Study,ADSL,LSTALVDT,
30,CDISCPILOT01,01-701-1146,2,75,F,Xanomeline High Dose,Xan_Hi,Xanomeline High Dose,Xan_Hi,2013-05-20,Progression Free Survival,PFS,1,2013-05-20,1,Randomization,Randomization,ADSL,RANDDT,
31,CDISCPILOT01,01-701-1148,1,57,M,Xanomeline High Dose,Xan_Hi,Xanomeline High Dose,Xan_Hi,2014-02-20,Overall Survival,OS,182,2013-08-23,1,Alive,Alive During Study,ADSL,LSTALVDT,
32,CDISCPILOT01,01-701-1148,2,57,M,Xanomeline High Dose,Xan_Hi,Xanomeline High Dose,Xan_Hi,2013-08-23,Progression Free Survival,PFS,1,2013-08-23,1,Randomization,Randomization,ADSL,RANDDT,
33,CDISCPILOT01,01-701-1153,1,79,F,Placebo,Pbo,Placebo,Pbo,2014-04-01,Overall Survival,OS,191,2013-09-23,1,Alive,Alive During Study,ADSL,LSTALVDT,
34,CDISCPILOT01,01-701-1153,2,79,F,Placebo,Pbo,Placebo,Pbo,2013-09-23,Progression Free Survival,PFS,1,2013-09-23,1,Randomization,Randomization,ADSL,RANDDT,
35,CDISCPILOT01,01-701-1180,1,56,M,Xanomeline High Dose,Xan_Hi,Xanomeline High Dose,Xan_Hi,2013-03-23,Overall Survival,OS,40,2013-02-12,1,Alive,Alive During Study,ADSL,LSTALVDT,
36,CDISCPILOT01,01-701-1180,2,56,M,Xanomeline High Dose,Xan_Hi,Xanomeline High Dose,Xan_Hi,2013-02-12,Progression Free Survival,PFS,1,2013-02-12,1,Randomization,Randomization,ADSL,RANDDT,
37,CDISCPILOT01,01-701-1181,1,79,F,Xanomeline High Dose,Xan_Hi,Xanomeline Low Dose,Xan_Lo,2013-12-12,Overall Survival,OS,8,2013-12-05,1,Alive,Alive During Study,ADSL,LSTALVDT,
38,CDISCPILOT01,01-701-1181,2,79,F,Xanomeline High Dose,Xan_Hi,Xanomeline Low Dose,Xan_Lo,2013-12-05,Progression Free Survival,PFS,1,2013-12-05,1,Randomization,Randomization,ADSL,RANDDT,
39,CDISCPILOT01,01-701-1188,1,71,M,Xanomeline Low Dose,Xan_Lo,Xanomeline Low Dose,Xan_Lo,2013-03-25,Overall Survival,OS,39,2013-02-15,1,Alive,Alive During Study,ADSL,LSTALVDT,
40,CDISCPILOT01,01-701-1188,2,71,M,Xanomeline Low Dose,Xan_Lo,Xanomeline Low Dose,Xan_Lo,2013-02-15,Progression Free Survival,PFS,1,2013-02-15,1,Randomization,Randomization,ADSL,RANDDT,
41,CDISCPILOT01,01-701-1192,1,80,F,Xanomeline Low Dose,Xan_Lo,Xanomeline Low Dose,Xan_Lo,2013-01-20,Overall Survival,OS,183,2012-07-22,1,Alive,Alive During Study,ADSL,LSTALVDT,
42,CDISCPILOT01,01-701-1192,2,80,F,Xanomeline Low Dose,Xan_Lo,Xanomeline Low Dose,Xan_Lo,2012-07-22,Progression Free Survival,PFS,1,2012-07-22,1,Randomization,Randomization,ADSL,RANDDT,
43,CDISCPILOT01,01-701-1203,1,81,F,Placebo,Pbo,Placebo,Pbo,2013-08-03,Overall Survival,OS,183,2013-02-02,1,Alive,Alive During Study,ADSL,LSTALVDT,
44,CDISCPILOT01,01-701-1203,2,81,F,Placebo,Pbo,Placebo,Pbo,2013-02-02,Progression Free Survival,PFS,1,2013-02-02,1,Randomization,Randomization,ADSL,RANDDT,
45,CDISCPILOT01,01-701-1211,1,76,F,Xanomeline Low Dose,Xan_Lo,Xanomeline Low Dose,Xan_Lo,2013-01-14,Overall Survival,OS,61,2012-11-15,0,Death,,ADRS,ADT,8
46,CDISCPILOT01,01-701-1211,2,76,F,Xanomeline Low Dose,Xan_Lo,Xanomeline Low Dose,Xan_Lo,2013-01-14,Progression Free Survival,PFS,61,2012-11-15,0,Death,,ADRS,ADT,8
47,CDISCPILOT01,01-701-1234,1,69,M,Placebo,Pbo,Placebo,Pbo,2013-09-22,Overall Survival,OS,177,2013-03-30,1,Alive,Alive During Study,ADSL,LSTALVDT,
48,CDISCPILOT01,01-701-1234,2,69,M,Placebo,Pbo,Placebo,Pbo,2013-03-30,Progression Free Survival,PFS,1,2013-03-30,1,Randomization,Randomization,ADSL,RANDDT,
49,CDISCPILOT01,01-701-1239,1,56,M,Xanomeline High Dose,Xan_Hi,Xanomeline High Dose,Xan_Hi,2014-07-11,Overall Survival,OS,182,2014-01-11,1,Alive,Alive During Study,ADSL,LSTALVDT,
50,CDISCPILOT01,01-701-1239,2,56,M,Xanomeline High Dose,Xan_Hi,Xanomeline High Dose,Xan_Hi,2014-01-11,Progression Free Survival,PFS,1,2014-01-11,1,Randomization,Randomization,ADSL,RANDDT,
51,CDISCPILOT01,01-701-1275,1,61,M,Xanomeline High Dose,Xan_Hi,Xanomeline High Dose,Xan_Hi,2014-06-14,Overall Survival,OS,128,2014-02-07,1,Alive,Alive During Study,ADSL,LSTALVDT,
52,CDISCPILOT01,01-701-1275,2,61,M,Xanomeline High Dose,Xan_Hi,Xanomeline High Dose,Xan_Hi,2014-02-07,Progression Free Survival,PFS,1,2014-02-07,1,Randomization,Randomization,ADSL,RANDDT,
53,CDISCPILOT01,01-701-1287,1,56,F,Xanomeline High Dose,Xan_Hi,Xanomeline High Dose,Xan_Hi,2014-07-26,Overall Survival,OS,183,2014-01-25,1,Alive,Alive During Study,ADSL,LSTALVDT,
54,CDISCPILOT01,01-701-1287,2,56,F,Xanomeline High Dose,Xan_Hi,Xanomeline High Dose,Xan_Hi,2014-01-25,Progression Free Survival,PFS,1,2014-01-25,1,Randomization,Randomization,ADSL,RANDDT,
55,CDISCPILOT01,01-701-1294,1,67,M,Xanomeline Low Dose,Xan_Lo,Xanomeline Low Dose,Xan_Lo,2013-06-14,Overall Survival,OS,83,2013-03-24,1,Alive,Alive During Study,ADSL,LSTALVDT,
56,CDISCPILOT01,01-701-1294,2,67,M,Xanomeline Low Dose,Xan_Lo,Xanomeline Low Dose,Xan_Lo,2013-03-24,Progression Free Survival,PFS,1,2013-03-24,1,Randomization,Randomization,ADSL,RANDDT,
57,CDISCPILOT01,01-701-1302,1,61,M,Xanomeline High Dose,Xan_Hi,Xanomeline High Dose,Xan_Hi,2013-11-05,Overall Survival,OS,69,2013-08-29,1,Alive,Alive During Study,ADSL,LSTALVDT,
58,CDISCPILOT01,01-701-1302,2,61,M,Xanomeline High Dose,Xan_Hi,Xanomeline High Dose,Xan_Hi,2013-08-29,Progression Free Survival,PFS,1,2013-08-29,1,Randomization,Randomization,ADSL,RANDDT,
59,CDISCPILOT01,01-701-1317,1,68,M,Xanomeline Low Dose,Xan_Lo,Xanomeline Low Dose,Xan_Lo,2014-11-20,Overall Survival,OS,183,2014-05-22,1,Alive,Alive During Study,ADSL,LSTALVDT,
60,CDISCPILOT01,01-701-1317,2,68,M,Xanomeline Low Dose,Xan_Lo,Xanomeline Low Dose,Xan_Lo,2014-05-22,Progression Free Survival,PFS,1,2014-05-22,1,Randomization,Randomization,ADSL,RANDDT,
61,CDISCPILOT01,01-701-1324,1,79,M,Xanomeline Low Dose,Xan_Lo,Xanomeline Low Dose,Xan_Lo,2013-04-02,Overall Survival,OS,183,2012-10-02,1,Alive,Alive During Study,ADSL,LSTALVDT,
62,CDISCPILOT01,01-701-1324,2,79,M,Xanomeline Low Dose,Xan_Lo,Xanomeline Low Dose,Xan_Lo,2012-10-02,Progression Free Survival,PFS,1,2012-10-02,1,Randomization,Randomization,ADSL,RANDDT,
63,CDISCPILOT01,01-701-1341,1,51,M,Xanomeline Low Dose,Xan_Lo,Xanomeline Low Dose,Xan_Lo,2013-02-07,Overall Survival,OS,34,2013-01-05,1,Alive,Alive During Study,ADSL,LSTALVDT,
64,CDISCPILOT01,01-701-1341,2,51,M,Xanomeline Low Dose,Xan_Lo,Xanomeline Low Dose,Xan_Lo,2013-01-05,Progression Free Survival,PFS,1,2013-01-05,1,Randomization,Randomization,ADSL,RANDDT,
65,CDISCPILOT01,01-701-1345,1,63,F,Placebo,Pbo,Placebo,Pbo,2014-03-18,Overall Survival,OS,162,2013-10-08,1,Alive,Alive During Study,ADSL,LSTALVDT,
66,CDISCPILOT01,01-701-1345,2,63,F,Placebo,Pbo,Placebo,Pbo,2013-10-08,Progression Free Survival,PFS,1,2013-10-08,1,Randomization,Randomization,ADSL,RANDDT,
67,CDISCPILOT01,01-701-1360,1,67,M,Xanomeline High Dose,Xan_Hi,Xanomeline Low Dose,Xan_Lo,2013-08-14,Overall Survival,OS,15,2013-07-31,1,Alive,Alive During Study,ADSL,LSTALVDT,
68,CDISCPILOT01,01-701-1360,2,67,M,Xanomeline High Dose,Xan_Hi,Xanomeline Low Dose,Xan_Lo,2013-07-31,Progression Free Survival,PFS,1,2013-07-31,1,Randomization,Randomization,ADSL,RANDDT,
69,CDISCPILOT01,01-701-1363,1,81,F,Placebo,Pbo,Placebo,Pbo,2013-11-27,Overall Survival,OS,182,2013-05-30,1,Alive,Alive During Study,ADSL,LSTALVDT,
70,CDISCPILOT01,01-701-1363,2,81,F,Placebo,Pbo,Placebo,Pbo,2013-05-30,Progression Free Survival,PFS,1,2013-05-30,1,Randomization,Randomization,ADSL,RANDDT,
71,CDISCPILOT01,01-701-1383,1,72,F,Xanomeline High Dose,Xan_Hi,Xanomeline High Dose,Xan_Hi,2013-08-06,Overall Survival,OS,184,2013-02-04,1,Alive,Alive During Study,ADSL,LSTALVDT,
72,CDISCPILOT01,01-701-1383,2,72,F,Xanomeline High Dose,Xan_Hi,Xanomeline High Dose,Xan_Hi,2013-02-04,Progression Free Survival,PFS,1,2013-02-04,1,Randomization,Randomization,ADSL,RANDDT,
73,CDISCPILOT01,01-701-1387,1,87,F,Placebo,Pbo,Placebo,Pbo,2014-03-25,Overall Survival,OS,14,2014-03-12,1,Alive,Alive During Study,ADSL,LSTALVDT,
74,CDISCPILOT01,01-701-1387,2,87,F,Placebo,Pbo,Placebo,Pbo,2014-03-12,Progression Free Survival,PFS,1,2014-03-12,1,Randomization,Randomization,ADSL,RANDDT,
75,CDISCPILOT01,01-701-1392,1,78,M,Placebo,Pbo,Placebo,Pbo,2013-04-28,Overall Survival,OS,183,2012-10-28,1,Alive,Alive During Study,ADSL,LSTALVDT,
76,CDISCPILOT01,01-701-1392,2,78,M,Placebo,Pbo,Placebo,Pbo,2012-10-28,Progression Free Survival,PFS,1,2012-10-28,1,Randomization,Randomization,ADSL,RANDDT,
77,CDISCPILOT01,01-701-1415,1,85,M,Placebo,Pbo,Placebo,Pbo,2014-03-24,Overall Survival,OS,183,2013-09-23,1,Alive,Alive During Study,ADSL,LSTALVDT,
78,CDISCPILOT01,01-701-1415,2,85,M,Placebo,Pbo,Placebo,Pbo,2013-09-23,Progression Free Survival,PFS,1,2013-09-23,1,Randomization,Randomization,ADSL,RANDDT,
79,CDISCPILOT01,01-701-1429,1,84,F,Xanomeline Low Dose,Xan_Lo,Xanomeline Low Dose,Xan_Lo,2013-04-30,Overall Survival,OS,43,2013-03-19,1,Alive,Alive During Study,ADSL,LSTALVDT,
80,CDISCPILOT01,01-701-1429,2,84,F,Xanomeline Low Dose,Xan_Lo,Xanomeline Low Dose,Xan_Lo,2013-03-19,Progression Free Survival,PFS,1,2013-03-19,1,Randomization,Randomization,ADSL,RANDDT,
81,CDISCPILOT01,01-701-1440,1,70,M,Placebo,Pbo,Placebo,Pbo,2014-02-05,Overall Survival,OS,182,2013-08-08,1,Alive,Alive During Study,ADSL,LSTALVDT,
82,CDISCPILOT01,01-701-1440,2,70,M,Placebo,Pbo,Placebo,Pbo,2013-08-08,Progression Free Survival,PFS,1,2013-08-08,1,Randomization,Randomization,ADSL,RANDDT,
83,CDISCPILOT01,01-701-1442,1,57,F,Xanomeline Low Dose,Xan_Lo,Xanomeline Low Dose,Xan_Lo,2014-04-26,Overall Survival,OS,183,2013-10-26,1,Alive,Alive During Study,ADSL,LSTALVDT,
84,CDISCPILOT01,01-701-1442,2,57,F,Xanomeline Low Dose,Xan_Lo,Xanomeline Low Dose,Xan_Lo,2013-10-26,Progression Free Survival,PFS,1,2013-10-26,1,Randomization,Randomization,ADSL,RANDDT,
85,CDISCPILOT01,01-701-1444,1,63,M,Xanomeline High Dose,Xan_Hi,Xanomeline High Dose,Xan_Hi,2013-02-13,Overall Survival,OS,40,2013-01-05,1,Alive,Alive During Study,ADSL,LSTALVDT,
86,CDISCPILOT01,01-701-1444,2,63,M,Xanomeline High Dose,Xan_Hi,Xanomeline High Dose,Xan_Hi,2013-01-05,Progression Free Survival,PFS,1,2013-01-05,1,Randomization,Randomization,ADSL,RANDDT,
87,CDISCPILOT01,01-702-1082,1,84,F,Xanomeline Low Dose,Xan_Lo,Xanomeline Low Dose,Xan_Lo,2013-11-17,Overall Survival,OS,115,2013-07-26,1,Alive,Alive During Study,ADSL,LSTALVDT,
88,CDISCPILOT01,01-702-1082,2,84,F,Xanomeline Low Dose,Xan_Lo,Xanomeline Low Dose,Xan_Lo,2013-07-26,Progression Free Survival,PFS,1,2013-07-26,1,Randomization,Randomization,ADSL,RANDDT,
89,CDISCPILOT01,01-703-1042,1,64,M,Placebo,Pbo,Placebo,Pbo,2013-08-31,Overall Survival,OS,183,2013-03-02,1,Alive,Alive During Study,ADSL,LSTALVDT,
90,CDISCPILOT01,01-703-1042,2,64,M,Placebo,Pbo,Placebo,Pbo,2013-03-02,Progression Free Survival,PFS,1,2013-03-02,1,Randomization,Randomization,ADSL,RANDDT,
91,CDISCPILOT01,01-703-1076,1,69,M,Xanomeline High Dose,Xan_Hi,Xanomeline High Dose,Xan_Hi,2013-12-24,Overall Survival,OS,61,2013-10-25,1,Alive,Alive During Study,ADSL,LSTALVDT,
92,CDISCPILOT01,01-703-1076,2,69,M,Xanomeline High Dose,Xan_Hi,Xanomeline High Dose,Xan_Hi,2013-10-25,Progression Free Survival,PFS,1,2013-10-25,1,Randomization,Randomization,ADSL,RANDDT,
93,CDISCPILOT01,01-703-1086,1,71,M,Xanomeline Low Dose,Xan_Lo,Xanomeline Low Dose,Xan_Lo,2013-01-02,Overall Survival,OS,123,2012-09-02,1,Alive,Alive During Study,ADSL,LSTALVDT,
94,CDISCPILOT01,01-703-1086,2,71,M,Xanomeline Low Dose,Xan_Lo,Xanomeline Low Dose,Xan_Lo,2012-09-02,Progression Free Survival,PFS,1,2012-09-02,1,Randomization,Randomization,ADSL,RANDDT,
95,CDISCPILOT01,01-703-1096,1,81,F,Placebo,Pbo,Placebo,Pbo,2013-03-16,Overall Survival,OS,51,2013-01-25,1,Alive,Alive During Study,ADSL,LSTALVDT,
96,CDISCPILOT01,01-703-1096,2,81,F,Placebo,Pbo,Placebo,Pbo,2013-01-25,Progression Free Survival,PFS,1,2013-01-25,1,Randomization,Randomization,ADSL,RANDDT,
97,CDISCPILOT01,01-703-1100,1,84,F,Placebo,Pbo,Placebo,Pbo,2013-09-14,Overall Survival,OS,186,2013-03-13,1,Alive,Alive During Study,ADSL,LSTALVDT,
98,CDISCPILOT01,01-703-1100,2,84,F,Placebo,Pbo,Placebo,Pbo,2013-03-13,Progression Free Survival,PFS,1,2013-03-13,1,Randomization,Randomization,ADSL,RANDDT,
99,CDISCPILOT01,01-703-1119,1,81,F,Xanomeline Low Dose,Xan_Lo,Xanomeline Low Dose,Xan_Lo,2013-06-13,Overall Survival,OS,114,2013-02-20,1,Alive,Alive During Study,ADSL,LSTALVDT,
100,CDISCPILOT01,01-703-1119,2,81,F,Xanomeline Low Dose,Xan_Lo,Xanomeline Low Dose,Xan_Lo,2013-02-20,Progression Free Survival,PFS,1,2013-02-20,1,Randomization,Randomization,ADSL,RANDDT,
101,CDISCPILOT01,01-703-1175,1,75,M,Placebo,Pbo,Placebo,Pbo,2013-12-31,Overall Survival,OS,12,2013-12-20,1,Alive,Alive During Study,ADSL,LSTALVDT,
102,CDISCPILOT01,01-703-1175,2,75,M,Placebo,Pbo,Placebo,Pbo,2013-12-20,Progression Free Survival,PFS,1,2013-12-20,1,Randomization,Randomization,ADSL,RANDDT,
103,CDISCPILOT01,01-703-1182,1,84,M,Xanomeline Low Dose,Xan_Lo,Xanomeline Low Dose,Xan_Lo,2013-12-12,Overall Survival,OS,57,2013-10-17,1,Alive,Alive During Study,ADSL,LSTALVDT,
104,CDISCPILOT01,01-703-1182,2,84,M,Xanomeline Low Dose,Xan_Lo,Xanomeline Low Dose,Xan_Lo,2013-10-17,Progression Free Survival,PFS,1,2013-10-17,1,Randomization,Randomization,ADSL,RANDDT,
105,CDISCPILOT01,01-703-1197,1,76,F,Xanomeline Low Dose,Xan_Lo,Xanomeline Low Dose,Xan_Lo,2013-06-29,Overall Survival,OS,14,2013-06-16,1,Alive,Alive During Study,ADSL,LSTALVDT,
106,CDISCPILOT01,01-703-1197,2,76,F,Xanomeline Low Dose,Xan_Lo,Xanomeline Low Dose,Xan_Lo,2013-06-16,Progression Free Survival,PFS,1,2013-06-16,1,Randomization,Randomization,ADSL,RANDDT,
107,CDISCPILOT01,01-703-1210,1,72,F,Placebo,Pbo,Placebo,Pbo,2013-09-06,Overall Survival,OS,175,2013-03-16,1,Alive,Alive During Study,ADSL,LSTALVDT,
108,CDISCPILOT01,01-703-1210,2,72,F,Placebo,Pbo,Placebo,Pbo,2013-03-16,Progression Free Survival,PFS,1,2013-03-16,1,Randomization,Randomization,ADSL,RANDDT,
109,CDISCPILOT01,01-703-1258,1,78,F,Xanomeline High Dose,Xan_Hi,Xanomeline High Dose,Xan_Hi,2013-01-25,Overall Survival,OS,190,2012-07-20,1,Alive,Alive During Study,ADSL,LSTALVDT,
110,CDISCPILOT01,01-703-1258,2,78,F,Xanomeline High Dose,Xan_Hi,Xanomeline High Dose,Xan_Hi,2012-07-20,Progression Free Survival,PFS,1,2012-07-20,1,Randomization,Randomization,ADSL,RANDDT,
111,CDISCPILOT01,01-703-1279,1,72,F,Xanomeline Low Dose,Xan_Lo,Xanomeline Low Dose,Xan_Lo,2013-06-03,Overall Survival,OS,22,2013-05-13,1,Alive,Alive During Study,ADSL,LSTALVDT,
112,CDISCPILOT01,01-703-1279,2,72,F,Xanomeline Low Dose,Xan_Lo,Xanomeline Low Dose,Xan_Lo,2013-05-13,Progression Free Survival,PFS,1,2013-05-13,1,Randomization,Randomization,ADSL,RANDDT,
113,CDISCPILOT01,01-703-1295,1,88,F,Xanomeline High Dose,Xan_Hi,Xanomeline High Dose,Xan_Hi,2014-05-19,Overall Survival,OS,180,2013-11-21,1,Alive,Alive During Study,ADSL,LSTALVDT,
114,CDISCPILOT01,01-703-1295,2,88,F,Xanomeline High Dose,Xan_Hi,Xanomeline High Dose,Xan_Hi,2013-11-21,Progression Free Survival,PFS,1,2013-11-21,1,Randomization,Randomization,ADSL,RANDDT,
115,CDISCPILOT01,01-703-1299,1,81,F,Placebo,Pbo,Placebo,Pbo,2013-03-13,Overall Survival,OS,183,2012-09-12,1,Alive,Alive During Study,ADSL,LSTALVDT,
116,CDISCPILOT01,01-703-1299,2,81,F,Placebo,Pbo,Placebo,Pbo,2012-09-12,Progression Free Survival,PFS,1,2012-09-12,1,Randomization,Randomization,ADSL,RANDDT,
117,CDISCPILOT01,01-703-1335,1,67,F,Xanomeline High Dose,Xan_Hi,Xanomeline High Dose,Xan_Hi,2014-05-24,Overall Survival,OS,69,2014-03-17,1,Alive,Alive During Study,ADSL,LSTALVDT,
118,CDISCPILOT01,01-703-1335,2,67,F,Xanomeline High Dose,Xan_Hi,Xanomeline High Dose,Xan_Hi,2014-03-17,Progression Free Survival,PFS,1,2014-03-17,1,Randomization,Randomization,ADSL,RANDDT,
119,CDISCPILOT01,01-703-1379,1,81,F,Xanomeline Low Dose,Xan_Lo,Xanomeline Low Dose,Xan_Lo,2014-03-21,Overall Survival,OS,181,2013-09-22,1,Alive,Alive During Study,ADSL,LSTALVDT,
120,CDISCPILOT01,01-703-1379,2,81,F,Xanomeline Low Dose,Xan_Lo,Xanomeline Low Dose,Xan_Lo,2013-09-22,Progression Free Survival,PFS,1,2013-09-22,1,Randomization,Randomization,ADSL,RANDDT,
121,CDISCPILOT01,01-703-1403,1,67,M,Xanomeline High Dose,Xan_Hi,Xanomeline Low Dose,Xan_Lo,2012-12-19,Overall Survival,OS,8,2012-12-12,1,Alive,Alive During Study,ADSL,LSTALVDT,
122,CDISCPILOT01,01-703-1403,2,67,M,Xanomeline High Dose,Xan_Hi,Xanomeline Low Dose,Xan_Lo,2012-12-12,Progression Free Survival,PFS,1,2012-12-12,1,Randomization,Randomization,ADSL,RANDDT,
123,CDISCPILOT01,01-703-1439,1,76,F,Xanomeline High Dose,Xan_Hi,Xanomeline High Dose,Xan_Hi,2014-09-11,Overall Survival,OS,184,2014-03-12,1,Alive,Alive During Study,ADSL,LSTALVDT,
124,CDISCPILOT01,01-703-1439,2,76,F,Xanomeline High Dose,Xan_Hi,Xanomeline High Dose,Xan_Hi,2014-03-12,Progression Free Survival,PFS,1,2014-03-12,1,Randomization,Randomization,ADSL,RANDDT,
125,CDISCPILOT01,01-704-1008,1,76,F,Xanomeline High Dose,Xan_Hi,Xanomeline High Dose,Xan_Hi,2013-02-25,Overall Survival,OS,44,2013-01-13,1,Alive,Alive During Study,ADSL,LSTALVDT,
126,CDISCPILOT01,01-704-1008,2,76,F,Xanomeline High Dose,Xan_Hi,Xanomeline High Dose,Xan_Hi,2013-01-13,Progression Free Survival,PFS,1,2013-01-13,1,Randomization,Randomization,ADSL,RANDDT,
127,CDISCPILOT01,01-704-1009,1,83,M,Xanomeline Low Dose,Xan_Lo,Xanomeline Low Dose,Xan_Lo,2013-09-27,Overall Survival,OS,32,2013-08-27,1,Alive,Alive During Study,ADSL,LSTALVDT,
128,CDISCPILOT01,01-704-1009,2,83,M,Xanomeline Low Dose,Xan_Lo,Xanomeline Low Dose,Xan_Lo,2013-08-27,Progression Free Survival,PFS,1,2013-08-27,1,Randomization,Randomization,ADSL,RANDDT,
129,CDISCPILOT01,01-704-1010,1,80,M,Placebo,Pbo,Placebo,Pbo,2014-07-09,Overall Survival,OS,139,2014-02-21,1,Alive,Alive During Study,ADSL,LSTALVDT,
130,CDISCPILOT01,01-704-1010,2,80,M,Placebo,Pbo,Placebo,Pbo,2014-02-21,Progression Free Survival,PFS,1,2014-02-21,1,Randomization,Randomization,ADSL,RANDDT,
131,CDISCPILOT01,01-704-1017,1,77,M,Xanomeline High Dose,Xan_Hi,Xanomeline High Dose,Xan_Hi,2013-11-22,Overall Survival,OS,48,2013-10-06,1,Alive,Alive During Study,ADSL,LSTALVDT,
132,CDISCPILOT01,01-704-1017,2,77,M,Xanomeline High Dose,Xan_Hi,Xanomeline High Dose,Xan_Hi,2013-10-06,Progression Free Survival,PFS,1,2013-10-06,1,Randomization,Randomization,ADSL,RANDDT,
133,CDISCPILOT01,01-704-1025,1,81,F,Xanomeline Low Dose,Xan_Lo,Xanomeline Low Dose,Xan_Lo,2013-11-29,Overall Survival,OS,64,2013-09-27,1,Alive,Alive During Study,ADSL,LSTALVDT,
134,CDISCPILOT01,01-704-1025,2,81,F,Xanomeline Low Dose,Xan_Lo,Xanomeline Low Dose,Xan_Lo,2013-09-27,Progression Free Survival,PFS,1,2013-09-27,1,Randomization,Randomization,ADSL,RANDDT,
135,CDISCPILOT01,01-704-1065,1,75,M,Xanomeline High Dose,Xan_Hi,Xanomeline High Dose,Xan_Hi,2013-12-24,Overall Survival,OS,62,2013-10-24,1,Alive,Alive During Study,ADSL,LSTALVDT,
136,CDISCPILOT01,01-704-1065,2,75,M,Xanomeline High Dose,Xan_Hi,Xanomeline High Dose,Xan_Hi,2013-10-24,Progression Free Survival,PFS,1,2013-10-24,1,Randomization,Randomization,ADSL,RANDDT,
137,CDISCPILOT01,01-704-1074,1,80,F,Xanomeline High Dose,Xan_Hi,Xanomeline High Dose,Xan_Hi,2014-03-31,Overall Survival,OS,69,2014-01-22,1,Alive,Alive During Study,ADSL,LSTALVDT,
138,CDISCPILOT01,01-704-1074,2,80,F,Xanomeline High Dose,Xan_Hi,Xanomeline High Dose,Xan_Hi,2014-01-22,Progression Free Survival,PFS,1,2014-01-22,1,Randomization,Randomization,ADSL,RANDDT,
139,CDISCPILOT01,01-704-1093,1,79,M,Xanomeline High Dose,Xan_Hi,Xanomeline High Dose,Xan_Hi,2013-06-20,Overall Survival,OS,98,2013-03-15,1,Alive,Alive During Study,ADSL,LSTALVDT,
140,CDISCPILOT01,01-704-1093,2,79,M,Xanomeline High Dose,Xan_Hi,Xanomeline High Dose,Xan_Hi,2013-03-15,Progression Free Survival,PFS,1,2013-03-15,1,Randomization,Randomization,ADSL,RANDDT,
141,CDISCPILOT01,01-704-1114,1,77,M,Xanomeline Low Dose,Xan_Lo,Xanomeline Low Dose,Xan_Lo,2013-07-08,Overall Survival,OS,167,2013-01-23,1,Alive,Alive During Study,ADSL,LSTALVDT,
142,CDISCPILOT01,01-704-1114,2,77,M,Xanomeline Low Dose,Xan_Lo,Xanomeline Low Dose,Xan_Lo,2013-01-23,Progression Free Survival,PFS,1,2013-01-23,1,Randomization,Randomization,ADSL,RANDDT,
143,CDISCPILOT01,01-704-1120,1,71,F,Xanomeline Low Dose,Xan_Lo,Xanomeline Low Dose,Xan_Lo,2014-02-03,Overall Survival,OS,64,2013-12-02,1,Alive,Alive During Study,ADSL,LSTALVDT,
144,CDISCPILOT01,01-704-1120,2,71,F,Xanomeline Low Dose,Xan_Lo,Xanomeline Low Dose,Xan_Lo,2013-12-02,Progression Free Survival,PFS,1,2013-12-02,1,Randomization,Randomization,ADSL,RANDDT,
145,CDISCPILOT01,01-704-1127,1,84,F,Placebo,Pbo,Placebo,Pbo,2014-03-31,Overall Survival,OS,181,2013-10-02,1,Alive,Alive During Study,ADSL,LSTALVDT,
146,CDISCPILOT01,01-704-1127,2,84,F,Placebo,Pbo,Placebo,Pbo,2013-10-02,Progression Free Survival,PFS,1,2013-10-02,1,Randomization,Randomization,ADSL,RANDDT,
147,CDISCPILOT01,01-704-1135,1,74,F,Xanomeline Low Dose,Xan_Lo,Xanomeline Low Dose,Xan_Lo,2014-05-16,Overall Survival,OS,198,2013-10-31,1,Alive,Alive During Study,ADSL,LSTALVDT,
148,CDISCPILOT01,01-704-1135,2,74,F,Xanomeline Low Dose,Xan_Lo,Xanomeline Low Dose,Xan_Lo,2013-10-31,Progression Free Survival,PFS,1,2013-10-31,1,Randomization,Randomization,ADSL,RANDDT,
149,CDISCPILOT01,01-704-1164,1,67,F,Placebo,Pbo,Placebo,Pbo,2013-04-04,Overall Survival,OS,198,2012-09-19,1,Alive,Alive During Study,ADSL,LSTALVDT,
150,CDISCPILOT01,01-704-1164,2,67,F,Placebo,Pbo,Placebo,Pbo,2012-09-19,Progression Free Survival,PFS,1,2012-09-19,1,Randomization,Randomization,ADSL,RANDDT,
151,CDISCPILOT01,01-704-1218,1,81,F,Xanomeline Low Dose,Xan_Lo,Xanomeline Low Dose,Xan_Lo,2013-05-27,Overall Survival,OS,190,2012-11-19,1,Alive,Alive During Study,ADSL,LSTALVDT,
152,CDISCPILOT01,01-704-1218,2,81,F,Xanomeline Low Dose,Xan_Lo,Xanomeline Low Dose,Xan_Lo,2012-11-19,Progression Free Survival,PFS,1,2012-11-19,1,Randomization,Randomization,ADSL,RANDDT,
153,CDISCPILOT01,01-704-1233,1,87,F,Placebo,Pbo,Placebo,Pbo,2013-07-11,Overall Survival,OS,113,2013-03-21,1,Alive,Alive During Study,ADSL,LSTALVDT,
154,CDISCPILOT01,01-704-1233,2,87,F,Placebo,Pbo,Placebo,Pbo,2013-03-21,Progression Free Survival,PFS,1,2013-03-21,1,Randomization,Randomization,ADSL,RANDDT,
155,CDISCPILOT01,01-704-1241,1,86,M,Xanomeline High Dose,Xan_Hi,Xanomeline High Dose,Xan_Hi,2013-10-31,Overall Survival,OS,68,2013-08-25,1,Alive,Alive During Study,ADSL,LSTALVDT,
156,CDISCPILOT01,01-704-1241,2,86,M,Xanomeline High Dose,Xan_Hi,Xanomeline High Dose,Xan_Hi,2013-08-25,Progression Free Survival,PFS,1,2013-08-25,1,Randomization,Randomization,ADSL,RANDDT,
157,CDISCPILOT01,01-704-1260,1,71,F,Placebo,Pbo,Placebo,Pbo,2012-11-04,Overall Survival,OS,67,2012-08-30,1,Alive,Alive During Study,ADSL,LSTALVDT,
158,CDISCPILOT01,01-704-1260,2,71,F,Placebo,Pbo,Placebo,Pbo,2012-08-30,Progression Free Survival,PFS,1,2012-08-30,1,Randomization,Randomization,ADSL,RANDDT,
159,CDISCPILOT01,01-704-1266,1,82,M,Xanomeline High Dose,Xan_Hi,Xanomeline High Dose,Xan_Hi,2013-12-23,Overall Survival,OS,72,2013-10-13,1,Alive,Alive During Study,ADSL,LSTALVDT,
160,CDISCPILOT01,01-704-1266,2,82,M,Xanomeline High Dose,Xan_Hi,Xanomeline High Dose,Xan_Hi,2013-10-13,Progression Free Survival,PFS,1,2013-10-13,1,Randomization,Randomization,ADSL,RANDDT,
161,CDISCPILOT01,01-704-1323,1,68,F,Xanomeline Low Dose,Xan_Lo,Xanomeline Low Dose,Xan_Lo,2013-08-05,Overall Survival,OS,29,2013-07-08,1,Alive,Alive During Study,ADSL,LSTALVDT,
162,CDISCPILOT01,01-704-1323,2,68,F,Xanomeline Low Dose,Xan_Lo,Xanomeline Low Dose,Xan_Lo,2013-07-08,Progression Free Survival,PFS,1,2013-07-08,1,Randomization,Randomization,ADSL,RANDDT,
163,CDISCPILOT01,01-704-1325,1,81,M,Xanomeline Low Dose,Xan_Lo,Xanomeline Low Dose,Xan_Lo,2014-08-06,Overall Survival,OS,106,2014-04-23,1,Alive,Alive During Study,ADSL,LSTALVDT,
164,CDISCPILOT01,01-704-1325,2,81,M,Xanomeline Low Dose,Xan_Lo,Xanomeline Low Dose,Xan_Lo,2014-04-23,Progression Free Survival,PFS,1,2014-04-23,1,Randomization,Randomization,ADSL,RANDDT,
165,CDISCPILOT01,01-704-1332,1,80,M,Xanomeline High Dose,Xan_Hi,Xanomeline High Dose,Xan_Hi,2014-02-24,Overall Survival,OS,78,2013-12-09,1,Alive,Alive During Study,ADSL,LSTALVDT,
166,CDISCPILOT01,01-704-1332,2,80,M,Xanomeline High Dose,Xan_Hi,Xanomeline High Dose,Xan_Hi,2013-12-09,Progression Free Survival,PFS,1,2013-12-09,1,Randomization,Randomization,ADSL,RANDDT,
167,CDISCPILOT01,01-704-1351,1,70,M,Placebo,Pbo,Placebo,Pbo,2014-04-18,Overall Survival,OS,189,2013-10-12,1,Alive,Alive During Study,ADSL,LSTALVDT,
168,CDISCPILOT01,01-704-1351,2,70,M,Placebo,Pbo,Placebo,Pbo,2013-10-12,Progression Free Survival,PFS,1,2013-10-12,1,Randomization,Randomization,ADSL,RANDDT,
169,CDISCPILOT01,01-704-1388,1,81,M,Placebo,Pbo,Placebo,Pbo,2013-06-19,Overall Survival,OS,195,2012-12-07,1,Alive,Alive During Study,ADSL,LSTALVDT,
170,CDISCPILOT01,01-704-1388,2,81,M,Placebo,Pbo,Placebo,Pbo,2012-12-07,Progression Free Survival,PFS,1,2012-12-07,1,Randomization,Randomization,ADSL,RANDDT,
171,CDISCPILOT01,01-704-1435,1,74,M,Placebo,Pbo,Placebo,Pbo,2013-01-12,Overall Survival,OS,57,2012-11-17,1,Alive,Alive During Study,ADSL,LSTALVDT,
172,CDISCPILOT01,01-704-1435,2,74,M,Placebo,Pbo,Placebo,Pbo,2012-11-17,Progression Free Survival,PFS,1,2012-11-17,1,Randomization,Randomization,ADSL,RANDDT,
173,CDISCPILOT01,01-704-1445,1,75,M,Placebo,Pbo,Placebo,Pbo,2014-11-01,Overall Survival,OS,175,2014-05-11,0,Death,,ADRS,ADT,8
174,CDISCPILOT01,01-704-1445,2,75,M,Placebo,Pbo,Placebo,Pbo,2014-11-01,Progression Free Survival,PFS,175,2014-05-11,0,Death,,ADRS,ADT,8
175,CDISCPILOT01,01-705-1018,1,69,F,Placebo,Pbo,Placebo,Pbo,2013-07-05,Overall Survival,OS,1,2013-07-05,1,Randomization,Randomization,ADSL,RANDDT,
176,CDISCPILOT01,01-705-1018,2,69,F,Placebo,Pbo,Placebo,Pbo,2013-07-05,Progression Free Survival,PFS,1,2013-07-05,1,Randomization,Randomization,ADSL,RANDDT,
177,CDISCPILOT01,01-705-1031,1,56,F,Xanomeline Low Dose,Xan_Lo,Xanomeline Low Dose,Xan_Lo,2014-05-11,Overall Survival,OS,166,2013-11-27,1,Alive,Alive During Study,ADSL,LSTALVDT,
178,CDISCPILOT01,01-705-1031,2,56,F,Xanomeline Low Dose,Xan_Lo,Xanomeline Low Dose,Xan_Lo,2013-11-27,Progression Free Survival,PFS,1,2013-11-27,1,Randomization,Randomization,ADSL,RANDDT,
179,CDISCPILOT01,01-705-1059,1,66,F,Placebo,Pbo,Placebo,Pbo,2013-12-05,Overall Survival,OS,123,2013-08-05,1,Alive,Alive During Study,ADSL,LSTALVDT,
180,CDISCPILOT01,01-705-1059,2,66,F,Placebo,Pbo,Placebo,Pbo,2013-08-05,Progression Free Survival,PFS,1,2013-08-05,1,Randomization,Randomization,ADSL,RANDDT,
181,CDISCPILOT01,01-705-1186,1,84,F,Placebo,Pbo,Placebo,Pbo,2014-02-07,Overall Survival,OS,31,2014-01-08,1,Alive,Alive During Study,ADSL,LSTALVDT,
182,CDISCPILOT01,01-705-1186,2,84,F,Placebo,Pbo,Placebo,Pbo,2014-01-08,Progression Free Survival,PFS,1,2014-01-08,1,Randomization,Randomization,ADSL,RANDDT,
183,CDISCPILOT01,01-705-1199,1,87,M,Xanomeline Low Dose,Xan_Lo,Xanomeline Low Dose,Xan_Lo,2013-09-29,Overall Survival,OS,14,2013-09-16,1,Alive,Alive During Study,ADSL,LSTALVDT,
184,CDISCPILOT01,01-705-1199,2,87,M,Xanomeline Low Dose,Xan_Lo,Xanomeline Low Dose,Xan_Lo,2013-09-16,Progression Free Survival,PFS,1,2013-09-16,1,Randomization,Randomization,ADSL,RANDDT,
185,CDISCPILOT01,01-705-1280,1,56,F,Xanomeline High Dose,Xan_Hi,Xanomeline High Dose,Xan_Hi,2014-07-25,Overall Survival,OS,190,2014-01-17,1,Alive,Alive During Study,ADSL,LSTALVDT,
186,CDISCPILOT01,01-705-1280,2,56,F,Xanomeline High Dose,Xan_Hi,Xanomeline High Dose,Xan_Hi,2014-01-17,Progression Free Survival,PFS,1,2014-01-17,1,Randomization,Randomization,ADSL,RANDDT,
187,CDISCPILOT01,01-705-1281,1,73,F,Xanomeline High Dose,Xan_Hi,Xanomeline High Dose,Xan_Hi,2014-03-17,Overall Survival,OS,110,2013-11-28,1,Alive,Alive During Study,ADSL,LSTALVDT,
188,CDISCPILOT01,01-705-1281,2,73,F,Xanomeline High Dose,Xan_Hi,Xanomeline High Dose,Xan_Hi,2013-11-28,Progression Free Survival,PFS,1,2013-11-28,1,Randomization,Randomization,ADSL,RANDDT,
189,CDISCPILOT01,01-705-1282,1,70,F,Placebo,Pbo,Placebo,Pbo,2013-06-24,Overall Survival,OS,181,2012-12-26,1,Alive,Alive During Study,ADSL,LSTALVDT,
190,CDISCPILOT01,01-705-1282,2,70,F,Placebo,Pbo,Placebo,Pbo,2012-12-26,Progression Free Survival,PFS,1,2012-12-26,1,Randomization,Randomization,ADSL,RANDDT,
191,CDISCPILOT01,01-705-1292,1,60,F,Xanomeline Low Dose,Xan_Lo,Xanomeline Low Dose,Xan_Lo,2014-05-14,Overall Survival,OS,213,2013-10-14,1,Alive,Alive During Study,ADSL,LSTALVDT,
192,CDISCPILOT01,01-705-1292,2,60,F,Xanomeline Low Dose,Xan_Lo,Xanomeline Low Dose,Xan_Lo,2013-10-14,Progression Free Survival,PFS,1,2013-10-14,1,Randomization,Randomization,ADSL,RANDDT,
193,CDISCPILOT01,01-705-1303,1,72,M,Xanomeline High Dose,Xan_Hi,Xanomeline High Dose,Xan_Hi,2014-04-07,Overall Survival,OS,113,2013-12-16,1,Alive,Alive During Study,ADSL,LSTALVDT,
194,CDISCPILOT01,01-705-1303,2,72,M,Xanomeline High Dose,Xan_Hi,Xanomeline High Dose,Xan_Hi,2013-12-16,Progression Free Survival,PFS,1,2013-12-16,1,Randomization,Randomization,ADSL,RANDDT,
195,CDISCPILOT01,01-705-1310,1,74,F,Xanomeline High Dose,Xan_Hi,Xanomeline High Dose,Xan_Hi,2014-01-23,Overall Survival,OS,83,2013-11-02,1,Alive,Alive During Study,ADSL,LSTALVDT,
196,CDISCPILOT01,01-705-1310,2,74,F,Xanomeline High Dose,Xan_Hi,Xanomeline High Dose,Xan_Hi,2013-11-02,Progression Free Survival,PFS,1,2013-11-02,1,Randomization,Randomization,ADSL,RANDDT,
197,CDISCPILOT01,01-705-1349,1,86,F,Placebo,Pbo,Placebo,Pbo,2013-09-08,Overall Survival,OS,183,2013-03-10,1,Alive,Alive During Study,ADSL,LSTALVDT,
198,CDISCPILOT01,01-705-1349,2,86,F,Placebo,Pbo,Placebo,Pbo,2013-03-10,Progression Free Survival,PFS,1,2013-03-10,1,Randomization,Randomization,ADSL,RANDDT,
199,CDISCPILOT01,01-705-1377,1,63,F,Xanomeline High Dose,Xan_Hi,Xanomeline High Dose,Xan_Hi,2014-02-07,Overall Survival,OS,35,2014-01-04,1,Alive,Alive During Study,ADSL,LSTALVDT,
200,CDISCPILOT01,01-705-1377,2,63,F,Xanomeline High Dose,Xan_Hi,Xanomeline High Dose,Xan_Hi,2014-01-04,Progression Free Survival,PFS,1,2014-01-04,1,Randomization,Randomization,ADSL,RANDDT,
201,CDISCPILOT01,01-705-1382,1,82,M,Xanomeline High Dose,Xan_Hi,Xanomeline Low Dose,Xan_Lo,2013-05-13,Overall Survival,OS,1,2013-05-13,1,Randomization,Randomization,ADSL,RANDDT,
202,CDISCPILOT01,01-705-1382,2,82,M,Xanomeline High Dose,Xan_Hi,Xanomeline Low Dose,Xan_Lo,2013-05-13,Progression Free Survival,PFS,1,2013-05-13,1,Randomization,Randomization,ADSL,RANDDT,
203,CDISCPILOT01,01-705-1393,1,84,F,Xanomeline Low Dose,Xan_Lo,Xanomeline Low Dose,Xan_Lo,2013-02-20,Overall Survival,OS,167,2012-09-07,1,Alive,Alive During Study,ADSL,LSTALVDT,
204,CDISCPILOT01,01-705-1393,2,84,F,Xanomeline Low Dose,Xan_Lo,Xanomeline Low Dose,Xan_Lo,2012-09-07,Progression Free Survival,PFS,1,2012-09-07,1,Randomization,Randomization,ADSL,RANDDT,
205,CDISCPILOT01,01-705-1431,1,68,F,Xanomeline Low Dose,Xan_Lo,Xanomeline Low Dose,Xan_Lo,2013-12-19,Overall Survival,OS,180,2013-06-23,1,Alive,Alive During Study,ADSL,LSTALVDT,
206,CDISCPILOT01,01-705-1431,2,68,F,Xanomeline Low Dose,Xan_Lo,Xanomeline Low Dose,Xan_Lo,2013-06-23,Progression Free Survival,PFS,1,2013-06-23,1,Randomization,Randomization,ADSL,RANDDT,
207,CDISCPILOT01,01-706-1041,1,64,F,Placebo,Pbo,Placebo,Pbo,2014-07-29,Overall Survival,OS,211,2013-12-31,1,Alive,Alive During Study,ADSL,LSTALVDT,
208,CDISCPILOT01,01-706-1041,2,64,F,Placebo,Pbo,Placebo,Pbo,2013-12-31,Progression Free Survival,PFS,1,2013-12-31,1,Randomization,Randomization,ADSL,RANDDT,
209,CDISCPILOT01,01-706-1049,1,60,F,Xanomeline High Dose,Xan_Hi,Xanomeline High Dose,Xan_Hi,2013-06-25,Overall Survival,OS,43,2013-05-14,1,Alive,Alive During Study,ADSL,LSTALVDT,
210,CDISCPILOT01,01-706-1049,2,60,F,Xanomeline High Dose,Xan_Hi,Xanomeline High Dose,Xan_Hi,2013-05-14,Progression Free Survival,PFS,1,2013-05-14,1,Randomization,Randomization,ADSL,RANDDT,
211,CDISCPILOT01,01-706-1384,1,74,F,Xanomeline Low Dose,Xan_Lo,Xanomeline Low Dose,Xan_Lo,2012-09-29,Overall Survival,OS,15,2012-09-15,1,Alive,Alive During Study,ADSL,LSTALVDT,
212,CDISCPILOT01,01-706-1384,2,74,F,Xanomeline Low Dose,Xan_Lo,Xanomeline Low Dose,Xan_Lo,2012-09-15,Progression Free Survival,PFS,1,2012-09-15,1,Randomization,Randomization,ADSL,RANDDT,
213,CDISCPILOT01,01-707-1037,1,72,F,Xanomeline Low Dose,Xan_Lo,Xanomeline Low Dose,Xan_Lo,2014-01-08,Overall Survival,OS,20,2013-12-20,1,Alive,Alive During Study,ADSL,LSTALVDT,
214,CDISCPILOT01,01-707-1037,2,72,F,Xanomeline Low Dose,Xan_Lo,Xanomeline Low Dose,Xan_Lo,2013-12-20,Progression Free Survival,PFS,1,2013-12-20,1,Randomization,Randomization,ADSL,RANDDT,
215,CDISCPILOT01,01-707-1206,1,65,M,Placebo,Pbo,Placebo,Pbo,2014-04-27,Overall Survival,OS,182,2013-10-28,1,Alive,Alive During Study,ADSL,LSTALVDT,
216,CDISCPILOT01,01-707-1206,2,65,M,Placebo,Pbo,Placebo,Pbo,2013-10-28,Progression Free Survival,PFS,1,2013-10-28,1,Randomization,Randomization,ADSL,RANDDT,
217,CDISCPILOT01,01-708-1019,1,68,M,Xanomeline Low Dose,Xan_Lo,Xanomeline Low Dose,Xan_Lo,2014-01-23,Overall Survival,OS,35,2013-12-20,1,Alive,Alive During Study,ADSL,LSTALVDT,
218,CDISCPILOT01,01-708-1019,2,68,M,Xanomeline Low Dose,Xan_Lo,Xanomeline Low Dose,Xan_Lo,2013-12-20,Progression Free Survival,PFS,1,2013-12-20,1,Randomization,Randomization,ADSL,RANDDT,
219,CDISCPILOT01,01-708-1032,1,62,M,Xanomeline Low Dose,Xan_Lo,Xanomeline Low Dose,Xan_Lo,2013-03-09,Overall Survival,OS,29,2013-02-09,1,Alive,Alive During Study,ADSL,LSTALVDT,
220,CDISCPILOT01,01-708-1032,2,62,M,Xanomeline Low Dose,Xan_Lo,Xanomeline Low Dose,Xan_Lo,2013-02-09,Progression Free Survival,PFS,1,2013-02-09,1,Randomization,Randomization,ADSL,RANDDT,
221,CDISCPILOT01,01-708-1084,1,73,F,Xanomeline Low Dose,Xan_Lo,Xanomeline Low Dose,Xan_Lo,2013-11-11,Overall Survival,OS,187,2013-05-09,1,Alive,Alive During Study,ADSL,LSTALVDT,
222,CDISCPILOT01,01-708-1084,2,73,F,Xanomeline Low Dose,Xan_Lo,Xanomeline Low Dose,Xan_Lo,2013-05-09,Progression Free Survival,PFS,1,2013-05-09,1,Randomization,Randomization,ADSL,RANDDT,
223,CDISCPILOT01,01-708-1087,1,74,F,Placebo,Pbo,Placebo,Pbo,2013-04-28,Overall Survival,OS,189,2012-10-22,1,Alive,Alive During Study,ADSL,LSTALVDT,
224,CDISCPILOT01,01-708-1087,2,74,F,Placebo,Pbo,Placebo,Pbo,2012-10-22,Progression Free Survival,PFS,1,2012-10-22,1,Randomization,Randomization,ADSL,RANDDT,
225,CDISCPILOT01,01-708-1158,1,81,F,Placebo,Pbo,Placebo,Pbo,2014-03-22,Overall Survival,OS,43,2014-02-08,1,Alive,Alive During Study,ADSL,LSTALVDT,
226,CDISCPILOT01,01-708-1158,2,81,F,Placebo,Pbo,Placebo,Pbo,2014-02-08,Progression Free Survival,PFS,1,2014-02-08,1,Randomization,Randomization,ADSL,RANDDT,
227,CDISCPILOT01,01-708-1171,1,77,F,Placebo,Pbo,Placebo,Pbo,2013-06-04,Overall Survival,OS,181,2012-12-06,1,Alive,Alive During Study,ADSL,LSTALVDT,
228,CDISCPILOT01,01-708-1171,2,77,F,Placebo,Pbo,Placebo,Pbo,2012-12-06,Progression Free Survival,PFS,1,2012-12-06,1,Randomization,Randomization,ADSL,RANDDT,
229,CDISCPILOT01,01-708-1178,1,77,F,Xanomeline High Dose,Xan_Hi,Xanomeline High Dose,Xan_Hi,2014-04-06,Overall Survival,OS,99,2013-12-29,1,Alive,Alive During Study,ADSL,LSTALVDT,
230,CDISCPILOT01,01-708-1178,2,77,F,Xanomeline High Dose,Xan_Hi,Xanomeline High Dose,Xan_Hi,2013-12-29,Progression Free Survival,PFS,1,2013-12-29,1,Randomization,Randomization,ADSL,RANDDT,
231,CDISCPILOT01,01-708-1213,1,76,F,Xanomeline High Dose,Xan_Hi,Xanomeline Low Dose,Xan_Lo,2013-02-22,Overall Survival,OS,14,2013-02-09,1,Alive,Alive During Study,ADSL,LSTALVDT,
232,CDISCPILOT01,01-708-1213,2,76,F,Xanomeline High Dose,Xan_Hi,Xanomeline Low Dose,Xan_Lo,2013-02-09,Progression Free Survival,PFS,1,2013-02-09,1,Randomization,Randomization,ADSL,RANDDT,
233,CDISCPILOT01,01-708-1216,1,78,M,Xanomeline High Dose,Xan_Hi,Xanomeline High Dose,Xan_Hi,2012-12-13,Overall Survival,OS,51,2012-10-24,1,Alive,Alive During Study,ADSL,LSTALVDT,
234,CDISCPILOT01,01-708-1216,2,78,M,Xanomeline High Dose,Xan_Hi,Xanomeline High Dose,Xan_Hi,2012-10-24,Progression Free Survival,PFS,1,2012-10-24,1,Randomization,Randomization,ADSL,RANDDT,
235,CDISCPILOT01,01-708-1236,1,86,F,Xanomeline High Dose,Xan_Hi,Xanomeline Low Dose,Xan_Lo,2013-09-21,Overall Survival,OS,1,2013-09-21,1,Randomization,Randomization,ADSL,RANDDT,
236,CDISCPILOT01,01-708-1236,2,86,F,Xanomeline High Dose,Xan_Hi,Xanomeline Low Dose,Xan_Lo,2013-09-21,Progression Free Survival,PFS,1,2013-09-21,1,Randomization,Randomization,ADSL,RANDDT,
237,CDISCPILOT01,01-708-1253,1,61,M,Placebo,Pbo,Placebo,Pbo,2013-11-05,Overall Survival,OS,183,2013-05-07,1,Alive,Alive During Study,ADSL,LSTALVDT,
238,CDISCPILOT01,01-708-1253,2,61,M,Placebo,Pbo,Placebo,Pbo,2013-05-07,Progression Free Survival,PFS,1,2013-05-07,1,Randomization,Randomization,ADSL,RANDDT,
239,CDISCPILOT01,01-708-1272,1,82,M,Xanomeline Low Dose,Xan_Lo,Xanomeline Low Dose,Xan_Lo,2013-04-04,Overall Survival,OS,58,2013-02-06,1,Alive,Alive During Study,ADSL,LSTALVDT,
240,CDISCPILOT01,01-708-1272,2,82,M,Xanomeline Low Dose,Xan_Lo,Xanomeline Low Dose,Xan_Lo,2013-02-06,Progression Free Survival,PFS,1,2013-02-06,1,Randomization,Randomization,ADSL,RANDDT,
241,CDISCPILOT01,01-708-1286,1,80,F,Placebo,Pbo,Placebo,Pbo,2014-03-08,Overall Survival,OS,180,2013-09-10,1,Alive,Alive During Study,ADSL,LSTALVDT,
242,CDISCPILOT01,01-708-1286,2,80,F,Placebo,Pbo,Placebo,Pbo,2013-09-10,Progression Free Survival,PFS,1,2013-09-10,1,Randomization,Randomization,ADSL,RANDDT,
243,CDISCPILOT01,01-708-1296,1,57,M,Placebo,Pbo,Placebo,Pbo,2013-12-12,Overall Survival,OS,182,2013-06-14,1,Alive,Alive During Study,ADSL,LSTALVDT,
244,CDISCPILOT01,01-708-1296,2,57,M,Placebo,Pbo,Placebo,Pbo,2013-06-14,Progression Free Survival,PFS,1,2013-06-14,1,Randomization,Randomization,ADSL,RANDDT,
245,CDISCPILOT01,01-708-1297,1,61,M,Xanomeline Low Dose,Xan_Lo,Xanomeline Low Dose,Xan_Lo,2013-05-08,Overall Survival,OS,104,2013-01-25,1,Alive,Alive During Study,ADSL,LSTALVDT,
246,CDISCPILOT01,01-708-1297,2,61,M,Xanomeline Low Dose,Xan_Lo,Xanomeline Low Dose,Xan_Lo,2013-01-25,Progression Free Survival,PFS,1,2013-01-25,1,Randomization,Randomization,ADSL,RANDDT,
247,CDISCPILOT01,01-708-1316,1,74,F,Placebo,Pbo,Placebo,Pbo,2014-03-01,Overall Survival,OS,191,2013-08-23,1,Alive,Alive During Study,ADSL,LSTALVDT,
248,CDISCPILOT01,01-708-1316,2,74,F,Placebo,Pbo,Placebo,Pbo,2013-08-23,Progression Free Survival,PFS,1,2013-08-23,1,Randomization,Randomization,ADSL,RANDDT,
249,CDISCPILOT01,01-708-1336,1,73,M,Xanomeline High Dose,Xan_Hi,Xanomeline High Dose,Xan_Hi,2013-06-05,Overall Survival,OS,181,2012-12-07,1,Alive,Alive During Study,ADSL,LSTALVDT,
250,CDISCPILOT01,01-708-1336,2,73,M,Xanomeline High Dose,Xan_Hi,Xanomeline High Dose,Xan_Hi,2012-12-07,Progression Free Survival,PFS,1,2012-12-07,1,Randomization,Randomization,ADSL,RANDDT,
251,CDISCPILOT01,01-708-1342,1,59,F,Placebo,Pbo,Placebo,Pbo,2013-06-28,Overall Survival,OS,182,2012-12-29,1,Alive,Alive During Study,ADSL,LSTALVDT,
252,CDISCPILOT01,01-708-1342,2,59,F,Placebo,Pbo,Placebo,Pbo,2012-12-29,Progression Free Survival,PFS,1,2012-12-29,1,Randomization,Randomization,ADSL,RANDDT,
253,CDISCPILOT01,01-708-1347,1,61,F,Xanomeline High Dose,Xan_Hi,Xanomeline High Dose,Xan_Hi,2013-06-25,Overall Survival,OS,67,2013-04-20,1,Alive,Alive During Study,ADSL,LSTALVDT,
254,CDISCPILOT01,01-708-1347,2,61,F,Xanomeline High Dose,Xan_Hi,Xanomeline High Dose,Xan_Hi,2013-04-20,Progression Free Survival,PFS,1,2013-04-20,1,Randomization,Randomization,ADSL,RANDDT,
255,CDISCPILOT01,01-708-1348,1,79,F,Xanomeline Low Dose,Xan_Lo,Xanomeline Low Dose,Xan_Lo,2014-02-13,Overall Survival,OS,193,2013-08-05,1,Alive,Alive During Study,ADSL,LSTALVDT,
256,CDISCPILOT01,01-708-1348,2,79,F,Xanomeline Low Dose,Xan_Lo,Xanomeline Low Dose,Xan_Lo,2013-08-05,Progression Free Survival,PFS,1,2013-08-05,1,Randomization,Randomization,ADSL,RANDDT,
257,CDISCPILOT01,01-708-1353,1,87,F,Xanomeline Low Dose,Xan_Lo,Xanomeline Low Dose,Xan_Lo,2013-09-10,Overall Survival,OS,69,2013-07-04,1,Alive,Alive During Study,ADSL,LSTALVDT,
258,CDISCPILOT01,01-708-1353,2,87,F,Xanomeline Low Dose,Xan_Lo,Xanomeline Low Dose,Xan_Lo,2013-07-04,Progression Free Survival,PFS,1,2013-07-04,1,Randomization,Randomization,ADSL,RANDDT,
259,CDISCPILOT01,01-708-1372,1,84,M,Xanomeline High Dose,Xan_Hi,Xanomeline Low Dose,Xan_Lo,2013-04-19,Overall Survival,OS,8,2013-04-12,1,Alive,Alive During Study,ADSL,LSTALVDT,
260,CDISCPILOT01,01-708-1372,2,84,M,Xanomeline High Dose,Xan_Hi,Xanomeline Low Dose,Xan_Lo,2013-04-12,Progression Free Survival,PFS,1,2013-04-12,1,Randomization,Randomization,ADSL,RANDDT,
261,CDISCPILOT01,01-708-1378,1,67,M,Placebo,Pbo,Placebo,Pbo,2014-01-28,Overall Survival,OS,148,2013-09-03,1,Alive,Alive During Study,ADSL,LSTALVDT,
262,CDISCPILOT01,01-708-1378,2,67,M,Placebo,Pbo,Placebo,Pbo,2013-09-03,Progression Free Survival,PFS,1,2013-09-03,1,Randomization,Randomization,ADSL,RANDDT,
263,CDISCPILOT01,01-708-1406,1,71,F,Xanomeline High Dose,Xan_Hi,Xanomeline High Dose,Xan_Hi,2014-07-02,Overall Survival,OS,189,2013-12-26,1,Alive,Alive During Study,ADSL,LSTALVDT,
264,CDISCPILOT01,01-708-1406,2,71,F,Xanomeline High Dose,Xan_Hi,Xanomeline High Dose,Xan_Hi,2013-12-26,Progression Free Survival,PFS,1,2013-12-26,1,Randomization,Randomization,ADSL,RANDDT,
265,CDISCPILOT01,01-708-1428,1,84,F,Xanomeline Low Dose,Xan_Lo,Xanomeline Low Dose,Xan_Lo,2014-01-31,Overall Survival,OS,84,2013-11-09,1,Alive,Alive During Study,ADSL,LSTALVDT,
266,CDISCPILOT01,01-708-1428,2,84,F,Xanomeline Low Dose,Xan_Lo,Xanomeline Low Dose,Xan_Lo,2013-11-09,Progression Free Survival,PFS,1,2013-11-09,1,Randomization,Randomization,ADSL,RANDDT,
267,CDISCPILOT01,01-709-1001,1,76,F,Placebo,Pbo,Placebo,Pbo,2014-04-08,Overall Survival,OS,183,2013-10-08,1,Alive,Alive During Study,ADSL,LSTALVDT,
268,CDISCPILOT01,01-709-1001,2,76,F,Placebo,Pbo,Placebo,Pbo,2013-10-08,Progression Free Survival,PFS,1,2013-10-08,1,Randomization,Randomization,ADSL,RANDDT,
269,CDISCPILOT01,01-709-1007,1,54,F,Xanomeline Low Dose,Xan_Lo,Xanomeline Low Dose,Xan_Lo,2012-09-01,Overall Survival,OS,33,2012-07-31,1,Alive,Alive During Study,ADSL,LSTALVDT,
270,CDISCPILOT01,01-709-1007,2,54,F,Xanomeline Low Dose,Xan_Lo,Xanomeline Low Dose,Xan_Lo,2012-07-31,Progression Free Survival,PFS,1,2012-07-31,1,Randomization,Randomization,ADSL,RANDDT,
271,CDISCPILOT01,01-709-1020,1,72,F,Xanomeline Low Dose,Xan_Lo,Xanomeline Low Dose,Xan_Lo,2013-06-01,Overall Survival,OS,183,2012-12-01,1,Alive,Alive During Study,ADSL,LSTALVDT,
272,CDISCPILOT01,01-709-1020,2,72,F,Xanomeline Low Dose,Xan_Lo,Xanomeline Low Dose,Xan_Lo,2012-12-01,Progression Free Survival,PFS,1,2012-12-01,1,Randomization,Randomization,ADSL,RANDDT,
273,CDISCPILOT01,01-709-1029,1,82,M,Xanomeline High Dose,Xan_Hi,Xanomeline High Dose,Xan_Hi,2013-06-26,Overall Survival,OS,184,2012-12-25,1,Alive,Alive During Study,ADSL,LSTALVDT,
274,CDISCPILOT01,01-709-1029,2,82,M,Xanomeline High Dose,Xan_Hi,Xanomeline High Dose,Xan_Hi,2012-12-25,Progression Free Survival,PFS,1,2012-12-25,1,Randomization,Randomization,ADSL,RANDDT,
275,CDISCPILOT01,01-709-1081,1,86,F,Xanomeline Low Dose,Xan_Lo,Xanomeline Low Dose,Xan_Lo,2014-05-10,Overall Survival,OS,113,2014-01-18,1,Alive,Alive During Study,ADSL,LSTALVDT,
276,CDISCPILOT01,01-709-1081,2,86,F,Xanomeline Low Dose,Xan_Lo,Xanomeline Low Dose,Xan_Lo,2014-01-18,Progression Free Survival,PFS,1,2014-01-18,1,Randomization,Randomization,ADSL,RANDDT,
277,CDISCPILOT01,01-709-1088,1,69,M,Placebo,Pbo,Placebo,Pbo,2014-10-09,Overall Survival,OS,181,2014-04-12,1,Alive,Alive During Study,ADSL,LSTALVDT,
278,CDISCPILOT01,01-709-1088,2,69,M,Placebo,Pbo,Placebo,Pbo,2014-04-12,Progression Free Survival,PFS,1,2014-04-12,1,Randomization,Randomization,ADSL,RANDDT,
279,CDISCPILOT01,01-709-1099,1,79,F,Xanomeline High Dose,Xan_Hi,Xanomeline High Dose,Xan_Hi,2014-04-25,Overall Survival,OS,183,2013-10-25,1,Alive,Alive During Study,ADSL,LSTALVDT,
280,CDISCPILOT01,01-709-1099,2,79,F,Xanomeline High Dose,Xan_Hi,Xanomeline High Dose,Xan_Hi,2013-10-25,Progression Free Survival,PFS,1,2013-10-25,1,Randomization,Randomization,ADSL,RANDDT,
281,CDISCPILOT01,01-709-1102,1,71,F,Xanomeline Low Dose,Xan_Lo,Xanomeline Low Dose,Xan_Lo,2013-03-31,Overall Survival,OS,76,2013-01-15,1,Alive,Alive During Study,ADSL,LSTALVDT,
282,CDISCPILOT01,01-709-1102,2,71,F,Xanomeline Low Dose,Xan_Lo,Xanomeline Low Dose,Xan_Lo,2013-01-15,Progression Free Survival,PFS,1,2013-01-15,1,Randomization,Randomization,ADSL,RANDDT,
283,CDISCPILOT01,01-709-1168,1,72,F,Xanomeline High Dose,Xan_Hi,Xanomeline High Dose,Xan_Hi,2013-10-11,Overall Survival,OS,71,2013-08-02,1,Alive,Alive During Study,ADSL,LSTALVDT,
284,CDISCPILOT01,01-709-1168,2,72,F,Xanomeline High Dose,Xan_Hi,Xanomeline High Dose,Xan_Hi,2013-08-02,Progression Free Survival,PFS,1,2013-08-02,1,Randomization,Randomization,ADSL,RANDDT,
285,CDISCPILOT01,01-709-1217,1,77,M,Xanomeline Low Dose,Xan_Lo,Xanomeline Low Dose,Xan_Lo,2013-06-25,Overall Survival,OS,114,2013-03-04,1,Alive,Alive During Study,ADSL,LSTALVDT,
286,CDISCPILOT01,01-709-1217,2,77,M,Xanomeline Low Dose,Xan_Lo,Xanomeline Low Dose,Xan_Lo,2013-03-04,Progression Free Survival,PFS,1,2013-03-04,1,Randomization,Randomization,ADSL,RANDDT,
287,CDISCPILOT01,01-709-1238,1,69,M,Xanomeline High Dose,Xan_Hi,Xanomeline High Dose,Xan_Hi,2013-08-07,Overall Survival,OS,85,2013-05-15,1,Alive,Alive During Study,ADSL,LSTALVDT,
288,CDISCPILOT01,01-709-1238,2,69,M,Xanomeline High Dose,Xan_Hi,Xanomeline High Dose,Xan_Hi,2013-05-15,Progression Free Survival,PFS,1,2013-05-15,1,Randomization,Randomization,ADSL,RANDDT,
289,CDISCPILOT01,01-709-1259,1,82,M,Placebo,Pbo,Placebo,Pbo,2013-06-13,Overall Survival,OS,139,2013-01-26,1,Alive,Alive During Study,ADSL,LSTALVDT,
290,CDISCPILOT01,01-709-1259,2,82,M,Placebo,Pbo,Placebo,Pbo,2013-01-26,Progression Free Survival,PFS,1,2013-01-26,1,Randomization,Randomization,ADSL,RANDDT,
291,CDISCPILOT01,01-709-1285,1,87,M,Xanomeline Low Dose,Xan_Lo,Xanomeline Low Dose,Xan_Lo,2013-05-31,Overall Survival,OS,69,2013-03-24,1,Alive,Alive During Study,ADSL,LSTALVDT,
292,CDISCPILOT01,01-709-1285,2,87,M,Xanomeline Low Dose,Xan_Lo,Xanomeline Low Dose,Xan_Lo,2013-03-24,Progression Free Survival,PFS,1,2013-03-24,1,Randomization,Randomization,ADSL,RANDDT,
293,CDISCPILOT01,01-709-1301,1,62,F,Placebo,Pbo,Placebo,Pbo,2014-01-17,Overall Survival,OS,183,2013-07-19,1,Alive,Alive During Study,ADSL,LSTALVDT,
294,CDISCPILOT01,01-709-1301,2,62,F,Placebo,Pbo,Placebo,Pbo,2013-07-19,Progression Free Survival,PFS,1,2013-07-19,1,Randomization,Randomization,ADSL,RANDDT,
295,CDISCPILOT01,01-709-1306,1,60,F,Placebo,Pbo,Placebo,Pbo,2014-06-25,Overall Survival,OS,143,2014-02-03,1,Alive,Alive During Study,ADSL,LSTALVDT,
296,CDISCPILOT01,01-709-1306,2,60,F,Placebo,Pbo,Placebo,Pbo,2014-02-03,Progression Free Survival,PFS,1,2014-02-03,1,Randomization,Randomization,ADSL,RANDDT,
297,CDISCPILOT01,01-709-1309,1,65,M,Xanomeline High Dose,Xan_Hi,Xanomeline High Dose,Xan_Hi,2013-12-19,Overall Survival,OS,184,2013-06-19,1,Alive,Alive During Study,ADSL,LSTALVDT,
298,CDISCPILOT01,01-709-1309,2,65,M,Xanomeline High Dose,Xan_Hi,Xanomeline High Dose,Xan_Hi,2013-06-19,Progression Free Survival,PFS,1,2013-06-19,1,Randomization,Randomization,ADSL,RANDDT,
299,CDISCPILOT01,01-709-1312,1,68,F,Placebo,Pbo,Placebo,Pbo,2014-10-19,Overall Survival,OS,183,2014-04-20,1,Alive,Alive During Study,ADSL,LSTALVDT,
300,CDISCPILOT01,01-709-1312,2,68,F,Placebo,Pbo,Placebo,Pbo,2014-04-20,Progression Free Survival,PFS,1,2014-04-20,1,Randomization,Randomization,ADSL,RANDDT,
301,CDISCPILOT01,01-709-1326,1,75,F,Xanomeline Low Dose,Xan_Lo,Xanomeline Low Dose,Xan_Lo,2013-10-02,Overall Survival,OS,181,2013-04-05,1,Alive,Alive During Study,ADSL,LSTALVDT,
302,CDISCPILOT01,01-709-1326,2,75,F,Xanomeline Low Dose,Xan_Lo,Xanomeline Low Dose,Xan_Lo,2013-04-05,Progression Free Survival,PFS,1,2013-04-05,1,Randomization,Randomization,ADSL,RANDDT,
303,CDISCPILOT01,01-709-1329,1,70,M,Xanomeline High Dose,Xan_Hi,Xanomeline Low Dose,Xan_Lo,2013-08-29,Overall Survival,OS,15,2013-08-15,1,Alive,Alive During Study,ADSL,LSTALVDT,
304,CDISCPILOT01,01-709-1329,2,70,M,Xanomeline High Dose,Xan_Hi,Xanomeline Low Dose,Xan_Lo,2013-08-15,Progression Free Survival,PFS,1,2013-08-15,1,Randomization,Randomization,ADSL,RANDDT,
305,CDISCPILOT01,01-709-1339,1,81,M,Placebo,Pbo,Placebo,Pbo,2013-06-24,Overall Survival,OS,184,2012-12-23,1,Alive,Alive During Study,ADSL,LSTALVDT,
306,CDISCPILOT01,01-709-1339,2,81,M,Placebo,Pbo,Placebo,Pbo,2012-12-23,Progression Free Survival,PFS,1,2012-12-23,1,Randomization,Randomization,ADSL,RANDDT,
307,CDISCPILOT01,01-709-1424,1,77,M,Xanomeline High Dose,Xan_Hi,Xanomeline Low Dose,Xan_Lo,2013-03-17,Overall Survival,OS,15,2013-03-03,1,Alive,Alive During Study,ADSL,LSTALVDT,
308,CDISCPILOT01,01-709-1424,2,77,M,Xanomeline High Dose,Xan_Hi,Xanomeline Low Dose,Xan_Lo,2013-03-03,Progression Free Survival,PFS,1,2013-03-03,1,Randomization,Randomization,ADSL,RANDDT,
309,CDISCPILOT01,01-710-1002,1,88,M,Xanomeline Low Dose,Xan_Lo,Xanomeline Low Dose,Xan_Lo,2014-01-20,Overall Survival,OS,7,2014-01-14,1,Alive,Alive During Study,ADSL,LSTALVDT,
310,CDISCPILOT01,01-710-1002,2,88,M,Xanomeline Low Dose,Xan_Lo,Xanomeline Low Dose,Xan_Lo,2014-01-14,Progression Free Survival,PFS,1,2014-01-14,1,Randomization,Randomization,ADSL,RANDDT,
311,CDISCPILOT01,01-710-1006,1,77,M,Xanomeline High Dose,Xan_Hi,Xanomeline High Dose,Xan_Hi,2013-08-10,Overall Survival,OS,182,2013-02-10,1,Alive,Alive During Study,ADSL,LSTALVDT,
312,CDISCPILOT01,01-710-1006,2,77,M,Xanomeline High Dose,Xan_Hi,Xanomeline High Dose,Xan_Hi,2013-02-10,Progression Free Survival,PFS,1,2013-02-10,1,Randomization,Randomization,ADSL,RANDDT,
313,CDISCPILOT01,01-710-1021,1,79,M,Xanomeline High Dose,Xan_Hi,Xanomeline High Dose,Xan_Hi,2013-11-12,Overall Survival,OS,47,2013-09-27,1,Alive,Alive During Study,ADSL,LSTALVDT,
314,CDISCPILOT01,01-710-1021,2,79,M,Xanomeline High Dose,Xan_Hi,Xanomeline High Dose,Xan_Hi,2013-09-27,Progression Free Survival,PFS,1,2013-09-27,1,Randomization,Randomization,ADSL,RANDDT,
315,CDISCPILOT01,01-710-1027,1,83,M,Placebo,Pbo,Placebo,Pbo,2014-08-29,Overall Survival,OS,183,2014-02-28,1,Alive,Alive During Study,ADSL,LSTALVDT,
316,CDISCPILOT01,01-710-1027,2,83,M,Placebo,Pbo,Placebo,Pbo,2014-02-28,Progression Free Survival,PFS,1,2014-02-28,1,Randomization,Randomization,ADSL,RANDDT,
317,CDISCPILOT01,01-710-1045,1,83,F,Xanomeline Low Dose,Xan_Lo,Xanomeline Low Dose,Xan_Lo,2013-08-17,Overall Survival,OS,76,2013-06-03,1,Alive,Alive During Study,ADSL,LSTALVDT,
318,CDISCPILOT01,01-710-1045,2,83,F,Xanomeline Low Dose,Xan_Lo,Xanomeline Low Dose,Xan_Lo,2013-06-03,Progression Free Survival,PFS,1,2013-06-03,1,Randomization,Randomization,ADSL,RANDDT,
319,CDISCPILOT01,01-710-1053,1,84,F,Xanomeline Low Dose,Xan_Lo,Xanomeline Low Dose,Xan_Lo,2013-02-26,Overall Survival,OS,63,2012-12-26,1,Alive,Alive During Study,ADSL,LSTALVDT,
320,CDISCPILOT01,01-710-1053,2,84,F,Xanomeline Low Dose,Xan_Lo,Xanomeline Low Dose,Xan_Lo,2012-12-26,Progression Free Survival,PFS,1,2012-12-26,1,Randomization,Randomization,ADSL,RANDDT,
321,CDISCPILOT01,01-710-1060,1,82,M,Placebo,Pbo,Placebo,Pbo,2013-07-05,Overall Survival,OS,186,2013-01-01,1,Alive,Alive During Study,ADSL,LSTALVDT,
322,CDISCPILOT01,01-710-1060,2,82,M,Placebo,Pbo,Placebo,Pbo,2013-01-01,Progression Free Survival,PFS,1,2013-01-01,1,Randomization,Randomization,ADSL,RANDDT,
323,CDISCPILOT01,01-710-1070,1,85,F,Xanomeline High Dose,Xan_Hi,Xanomeline High Dose,Xan_Hi,2013-02-10,Overall Survival,OS,156,2012-09-08,1,Alive,Alive During Study,ADSL,LSTALVDT,
324,CDISCPILOT01,01-710-1070,2,85,F,Xanomeline High Dose,Xan_Hi,Xanomeline High Dose,Xan_Hi,2012-09-08,Progression Free Survival,PFS,1,2012-09-08,1,Randomization,Randomization,ADSL,RANDDT,
325,CDISCPILOT01,01-710-1077,1,76,F,Placebo,Pbo,Placebo,Pbo,2014-05-18,Overall Survival,OS,183,2013-11-17,1,Alive,Alive During Study,ADSL,LSTALVDT,
326,CDISCPILOT01,01-710-1077,2,76,F,Placebo,Pbo,Placebo,Pbo,2013-11-17,Progression Free Survival,PFS,1,2013-11-17,1,Randomization,Randomization,ADSL,RANDDT,
327,CDISCPILOT01,01-710-1078,1,81,F,Placebo,Pbo,Placebo,Pbo,2014-03-23,Overall Survival,OS,188,2013-09-17,1,Alive,Alive During Study,ADSL,LSTALVDT,
328,CDISCPILOT01,01-710-1078,2,81,F,Placebo,Pbo,Placebo,Pbo,2013-09-17,Progression Free Survival,PFS,1,2013-09-17,1,Randomization,Randomization,ADSL,RANDDT,
329,CDISCPILOT01,01-710-1083,1,89,F,Placebo,Pbo,Placebo,Pbo,2013-08-02,Overall Survival,OS,12,2013-07-22,0,Death,,ADRS,ADT,8
330,CDISCPILOT01,01-710-1083,2,89,F,Placebo,Pbo,Placebo,Pbo,2013-08-02,Progression Free Survival,PFS,12,2013-07-22,0,Death,,ADRS,ADT,8
331,CDISCPILOT01,01-710-1137,1,79,F,Xanomeline High Dose,Xan_Hi,Xanomeline High Dose,Xan_Hi,2013-11-13,Overall Survival,OS,34,2013-10-11,1,Alive,Alive During Study,ADSL,LSTALVDT,
332,CDISCPILOT01,01-710-1137,2,79,F,Xanomeline High Dose,Xan_Hi,Xanomeline High Dose,Xan_Hi,2013-10-11,Progression Free Survival,PFS,1,2013-10-11,1,Randomization,Randomization,ADSL,RANDDT,
333,CDISCPILOT01,01-710-1142,1,76,F,Xanomeline High Dose,Xan_Hi,Xanomeline High Dose,Xan_Hi,2012-10-23,Overall Survival,OS,22,2012-10-02,1,Alive,Alive During Study,ADSL,LSTALVDT,
334,CDISCPILOT01,01-710-1142,2,76,F,Xanomeline High Dose,Xan_Hi,Xanomeline High Dose,Xan_Hi,2012-10-02,Progression Free Survival,PFS,1,2012-10-02,1,Randomization,Randomization,ADSL,RANDDT,
335,CDISCPILOT01,01-710-1154,1,84,M,Xanomeline Low Dose,Xan_Lo,Xanomeline Low Dose,Xan_Lo,2014-05-09,Overall Survival,OS,42,2014-03-29,1,Alive,Alive During Study,ADSL,LSTALVDT,
336,CDISCPILOT01,01-710-1154,2,84,M,Xanomeline Low Dose,Xan_Lo,Xanomeline Low Dose,Xan_Lo,2014-03-29,Progression Free Survival,PFS,1,2014-03-29,1,Randomization,Randomization,ADSL,RANDDT,
337,CDISCPILOT01,01-710-1166,1,81,F,Xanomeline Low Dose,Xan_Lo,Xanomeline Low Dose,Xan_Lo,2013-03-30,Overall Survival,OS,121,2012-11-30,1,Alive,Alive During Study,ADSL,LSTALVDT,
338,CDISCPILOT01,01-710-1166,2,81,F,Xanomeline Low Dose,Xan_Lo,Xanomeline Low Dose,Xan_Lo,2012-11-30,Progression Free Survival,PFS,1,2012-11-30,1,Randomization,Randomization,ADSL,RANDDT,
339,CDISCPILOT01,01-710-1183,1,80,F,Placebo,Pbo,Placebo,Pbo,2014-05-17,Overall Survival,OS,183,2013-11-16,1,Alive,Alive During Study,ADSL,LSTALVDT,
340,CDISCPILOT01,01-710-1183,2,80,F,Placebo,Pbo,Placebo,Pbo,2013-11-16,Progression Free Survival,PFS,1,2013-11-16,1,Randomization,Randomization,ADSL,RANDDT,
341,CDISCPILOT01,01-710-1187,1,78,F,Xanomeline High Dose,Xan_Hi,Xanomeline High Dose,Xan_Hi,2013-05-12,Overall Survival,OS,184,2012-11-10,1,Alive,Alive During Study,ADSL,LSTALVDT,
342,CDISCPILOT01,01-710-1187,2,78,F,Xanomeline High Dose,Xan_Hi,Xanomeline High Dose,Xan_Hi,2012-11-10,Progression Free Survival,PFS,1,2012-11-10,1,Randomization,Randomization,ADSL,RANDDT,
343,CDISCPILOT01,01-710-1235,1,56,F,Xanomeline Low Dose,Xan_Lo,Xanomeline Low Dose,Xan_Lo,2013-03-27,Overall Survival,OS,183,2012-09-26,1,Alive,Alive During Study,ADSL,LSTALVDT,
344,CDISCPILOT01,01-710-1235,2,56,F,Xanomeline Low Dose,Xan_Lo,Xanomeline Low Dose,Xan_Lo,2012-09-26,Progression Free Survival,PFS,1,2012-09-26,1,Randomization,Randomization,ADSL,RANDDT,
345,CDISCPILOT01,01-710-1249,1,79,M,Xanomeline High Dose,Xan_Hi,Xanomeline High Dose,Xan_Hi,2014-06-28,Overall Survival,OS,183,2013-12-28,1,Alive,Alive During Study,ADSL,LSTALVDT,
346,CDISCPILOT01,01-710-1249,2,79,M,Xanomeline High Dose,Xan_Hi,Xanomeline High Dose,Xan_Hi,2013-12-28,Progression Free Survival,PFS,1,2013-12-28,1,Randomization,Randomization,ADSL,RANDDT,
347,CDISCPILOT01,01-710-1264,1,78,M,Placebo,Pbo,Placebo,Pbo,2013-10-12,Overall Survival,OS,122,2013-06-13,1,Alive,Alive During Study,ADSL,LSTALVDT,
348,CDISCPILOT01,01-710-1264,2,78,M,Placebo,Pbo,Placebo,Pbo,2013-06-13,Progression Free Survival,PFS,1,2013-06-13,1,Randomization,Randomization,ADSL,RANDDT,
349,CDISCPILOT01,01-710-1270,1,83,F,Xanomeline Low Dose,Xan_Lo,Xanomeline Low Dose,Xan_Lo,2014-03-01,Overall Survival,OS,18,2014-02-12,1,Alive,Alive During Study,ADSL,LSTALVDT,
350,CDISCPILOT01,01-710-1270,2,83,F,Xanomeline Low Dose,Xan_Lo,Xanomeline Low Dose,Xan_Lo,2014-02-12,Progression Free Survival,PFS,1,2014-02-12,1,Randomization,Randomization,ADSL,RANDDT,
351,CDISCPILOT01,01-710-1271,1,86,F,Placebo,Pbo,Placebo,Pbo,2012-11-26,Overall Survival,OS,61,2012-09-27,1,Alive,Alive During Study,ADSL,LSTALVDT,
352,CDISCPILOT01,01-710-1271,2,86,F,Placebo,Pbo,Placebo,Pbo,2012-09-27,Progression Free Survival,PFS,1,2012-09-27,1,Randomization,Randomization,ADSL,RANDDT,
353,CDISCPILOT01,01-710-1278,1,81,M,Xanomeline High Dose,Xan_Hi,Xanomeline High Dose,Xan_Hi,2013-03-07,Overall Survival,OS,74,2012-12-24,1,Alive,Alive During Study,ADSL,LSTALVDT,
354,CDISCPILOT01,01-710-1278,2,81,M,Xanomeline High Dose,Xan_Hi,Xanomeline High Dose,Xan_Hi,2012-12-24,Progression Free Survival,PFS,1,2012-12-24,1,Randomization,Randomization,ADSL,RANDDT,
355,CDISCPILOT01,01-710-1300,1,78,F,Xanomeline Low Dose,Xan_Lo,Xanomeline Low Dose,Xan_Lo,2013-02-19,Overall Survival,OS,67,2012-12-15,1,Alive,Alive During Study,ADSL,LSTALVDT,
356,CDISCPILOT01,01-710-1300,2,78,F,Xanomeline Low Dose,Xan_Lo,Xanomeline Low Dose,Xan_Lo,2012-12-15,Progression Free Survival,PFS,1,2012-12-15,1,Randomization,Randomization,ADSL,RANDDT,
357,CDISCPILOT01,01-710-1314,1,78,F,Placebo,Pbo,Placebo,Pbo,2013-05-24,Overall Survival,OS,31,2013-04-24,1,Alive,Alive During Study,ADSL,LSTALVDT,
358,CDISCPILOT01,01-710-1314,2,78,F,Placebo,Pbo,Placebo,Pbo,2013-04-24,Progression Free Survival,PFS,1,2013-04-24,1,Randomization,Randomization,ADSL,RANDDT,
359,CDISCPILOT01,01-710-1315,1,83,F,Placebo,Pbo,Placebo,Pbo,2013-07-16,Overall Survival,OS,140,2013-02-27,1,Alive,Alive During Study,ADSL,LSTALVDT,
360,CDISCPILOT01,01-710-1315,2,83,F,Placebo,Pbo,Placebo,Pbo,2013-02-27,Progression Free Survival,PFS,1,2013-02-27,1,Randomization,Randomization,ADSL,RANDDT,
361,CDISCPILOT01,01-710-1354,1,73,M,Xanomeline High Dose,Xan_Hi,Xanomeline High Dose,Xan_Hi,2013-05-01,Overall Survival,OS,172,2012-11-11,1,Alive,Alive During Study,ADSL,LSTALVDT,
362,CDISCPILOT01,01-710-1354,2,73,M,Xanomeline High Dose,Xan_Hi,Xanomeline High Dose,Xan_Hi,2012-11-11,Progression Free Survival,PFS,1,2012-11-11,1,Randomization,Randomization,ADSL,RANDDT,
363,CDISCPILOT01,01-710-1358,1,82,M,Xanomeline Low Dose,Xan_Lo,Xanomeline Low Dose,Xan_Lo,2013-02-09,Overall Survival,OS,146,2012-09-17,1,Alive,Alive During Study,ADSL,LSTALVDT,
364,CDISCPILOT01,01-710-1358,2,82,M,Xanomeline Low Dose,Xan_Lo,Xanomeline Low Dose,Xan_Lo,2012-09-17,Progression Free Survival,PFS,1,2012-09-17,1,Randomization,Randomization,ADSL,RANDDT,
365,CDISCPILOT01,01-710-1368,1,88,F,Placebo,Pbo,Placebo,Pbo,2014-04-24,Overall Survival,OS,184,2013-10-23,1,Alive,Alive During Study,ADSL,LSTALVDT,
366,CDISCPILOT01,01-710-1368,2,88,F,Placebo,Pbo,Placebo,Pbo,2013-10-23,Progression Free Survival,PFS,1,2013-10-23,1,Randomization,Randomization,ADSL,RANDDT,
367,CDISCPILOT01,01-710-1385,1,77,M,Xanomeline Low Dose,Xan_Lo,Xanomeline Low Dose,Xan_Lo,2013-02-18,Overall Survival,OS,113,2012-10-29,1,Alive,Alive During Study,ADSL,LSTALVDT,
368,CDISCPILOT01,01-710-1385,2,77,M,Xanomeline Low Dose,Xan_Lo,Xanomeline Low Dose,Xan_Lo,2012-10-29,Progression Free Survival,PFS,1,2012-10-29,1,Randomization,Randomization,ADSL,RANDDT,
369,CDISCPILOT01,01-710-1408,1,80,M,Xanomeline High Dose,Xan_Hi,Xanomeline High Dose,Xan_Hi,2013-07-12,Overall Survival,OS,189,2013-01-05,1,Alive,Alive During Study,ADSL,LSTALVDT,
370,CDISCPILOT01,01-710-1408,2,80,M,Xanomeline High Dose,Xan_Hi,Xanomeline High Dose,Xan_Hi,2013-01-05,Progression Free Survival,PFS,1,2013-01-05,1,Randomization,Randomization,ADSL,RANDDT,
371,CDISCPILOT01,01-711-1012,1,67,F,Xanomeline High Dose,Xan_Hi,Xanomeline High Dose,Xan_Hi,2013-05-02,Overall Survival,OS,30,2013-04-03,1,Alive,Alive During Study,ADSL,LSTALVDT,
372,CDISCPILOT01,01-711-1012,2,67,F,Xanomeline High Dose,Xan_Hi,Xanomeline High Dose,Xan_Hi,2013-04-03,Progression Free Survival,PFS,1,2013-04-03,1,Randomization,Randomization,ADSL,RANDDT,
373,CDISCPILOT01,01-711-1036,1,70,M,Placebo,Pbo,Placebo,Pbo,2013-02-10,Overall Survival,OS,197,2012-07-29,1,Alive,Alive During Study,ADSL,LSTALVDT,
374,CDISCPILOT01,01-711-1036,2,70,M,Placebo,Pbo,Placebo,Pbo,2012-07-29,Progression Free Survival,PFS,1,2012-07-29,1,Randomization,Randomization,ADSL,RANDDT,
375,CDISCPILOT01,01-711-1143,1,76,F,Xanomeline Low Dose,Xan_Lo,Xanomeline Low Dose,Xan_Lo,2013-06-01,Overall Survival,OS,60,2013-04-03,1,Alive,Alive During Study,ADSL,LSTALVDT,
376,CDISCPILOT01,01-711-1143,2,76,F,Xanomeline Low Dose,Xan_Lo,Xanomeline Low Dose,Xan_Lo,2013-04-03,Progression Free Survival,PFS,1,2013-04-03,1,Randomization,Randomization,ADSL,RANDDT,
377,CDISCPILOT01,01-711-1433,1,84,F,Xanomeline High Dose,Xan_Hi,Xanomeline Low Dose,Xan_Lo,2013-02-06,Overall Survival,OS,11,2013-01-27,1,Alive,Alive During Study,ADSL,LSTALVDT,
378,CDISCPILOT01,01-711-1433,2,84,F,Xanomeline High Dose,Xan_Hi,Xanomeline Low Dose,Xan_Lo,2013-01-27,Progression Free Survival,PFS,1,2013-01-27,1,Randomization,Randomization,ADSL,RANDDT,
379,CDISCPILOT01,01-713-1043,1,78,F,Xanomeline Low Dose,Xan_Lo,Xanomeline Low Dose,Xan_Lo,2014-03-24,Overall Survival,OS,191,2013-09-15,1,Alive,Alive During Study,ADSL,LSTALVDT,
380,CDISCPILOT01,01-713-1043,2,78,F,Xanomeline Low Dose,Xan_Lo,Xanomeline Low Dose,Xan_Lo,2013-09-15,Progression Free Survival,PFS,1,2013-09-15,1,Randomization,Randomization,ADSL,RANDDT,
381,CDISCPILOT01,01-713-1073,1,74,F,Xanomeline Low Dose,Xan_Lo,Xanomeline Low Dose,Xan_Lo,2014-10-05,Overall Survival,OS,190,2014-03-30,1,Alive,Alive During Study,ADSL,LSTALVDT,
382,CDISCPILOT01,01-713-1073,2,74,F,Xanomeline Low Dose,Xan_Lo,Xanomeline Low Dose,Xan_Lo,2014-03-30,Progression Free Survival,PFS,1,2014-03-30,1,Randomization,Randomization,ADSL,RANDDT,
383,CDISCPILOT01,01-713-1106,1,74,M,Xanomeline High Dose,Xan_Hi,Xanomeline High Dose,Xan_Hi,2013-05-06,Overall Survival,OS,188,2012-10-31,1,Alive,Alive During Study,ADSL,LSTALVDT,
384,CDISCPILOT01,01-713-1106,2,74,M,Xanomeline High Dose,Xan_Hi,Xanomeline High Dose,Xan_Hi,2012-10-31,Progression Free Survival,PFS,1,2012-10-31,1,Randomization,Randomization,ADSL,RANDDT,
385,CDISCPILOT01,01-713-1141,1,79,M,Xanomeline High Dose,Xan_Hi,Xanomeline High Dose,Xan_Hi,2013-08-06,Overall Survival,OS,68,2013-05-31,1,Alive,Alive During Study,ADSL,LSTALVDT,
386,CDISCPILOT01,01-713-1141,2,79,M,Xanomeline High Dose,Xan_Hi,Xanomeline High Dose,Xan_Hi,2013-05-31,Progression Free Survival,PFS,1,2013-05-31,1,Randomization,Randomization,ADSL,RANDDT,
387,CDISCPILOT01,01-713-1179,1,64,F,Placebo,Pbo,Placebo,Pbo,2014-02-05,Overall Survival,OS,181,2013-08-09,1,Alive,Alive During Study,ADSL,LSTALVDT,
388,CDISCPILOT01,01-713-1179,2,64,F,Placebo,Pbo,Placebo,Pbo,2013-08-09,Progression Free Survival,PFS,1,2013-08-09,1,Randomization,Randomization,ADSL,RANDDT,
389,CDISCPILOT01,01-713-1209,1,77,F,Xanomeline High Dose,Xan_Hi,Xanomeline High Dose,Xan_Hi,2013-11-22,Overall Survival,OS,180,2013-05-27,1,Alive,Alive During Study,ADSL,LSTALVDT,
390,CDISCPILOT01,01-713-1209,2,77,F,Xanomeline High Dose,Xan_Hi,Xanomeline High Dose,Xan_Hi,2013-05-27,Progression Free Survival,PFS,1,2013-05-27,1,Randomization,Randomization,ADSL,RANDDT,
391,CDISCPILOT01,01-713-1256,1,71,M,Placebo,Pbo,Placebo,Pbo,2013-03-25,Overall Survival,OS,188,2012-09-19,1,Alive,Alive During Study,ADSL,LSTALVDT,
392,CDISCPILOT01,01-713-1256,2,71,M,Placebo,Pbo,Placebo,Pbo,2012-09-19,Progression Free Survival,PFS,1,2012-09-19,1,Randomization,Randomization,ADSL,RANDDT,
393,CDISCPILOT01,01-713-1269,1,73,M,Placebo,Pbo,Placebo,Pbo,2014-07-28,Overall Survival,OS,183,2014-01-27,1,Alive,Alive During Study,ADSL,LSTALVDT,
394,CDISCPILOT01,01-713-1269,2,73,M,Placebo,Pbo,Placebo,Pbo,2014-01-27,Progression Free Survival,PFS,1,2014-01-27,1,Randomization,Randomization,ADSL,RANDDT,
395,CDISCPILOT01,01-713-1448,1,71,F,Xanomeline Low Dose,Xan_Lo,Xanomeline Low Dose,Xan_Lo,2014-05-23,Overall Survival,OS,125,2014-01-19,1,Alive,Alive During Study,ADSL,LSTALVDT,
396,CDISCPILOT01,01-713-1448,2,71,F,Xanomeline Low Dose,Xan_Lo,Xanomeline Low Dose,Xan_Lo,2014-01-19,Progression Free Survival,PFS,1,2014-01-19,1,Randomization,Randomization,ADSL,RANDDT,
397,CDISCPILOT01,01-714-1035,1,88,F,Placebo,Pbo,Placebo,Pbo,2014-10-16,Overall Survival,OS,183,2014-04-17,1,Alive,Alive During Study,ADSL,LSTALVDT,
398,CDISCPILOT01,01-714-1035,2,88,F,Placebo,Pbo,Placebo,Pbo,2014-04-17,Progression Free Survival,PFS,1,2014-04-17,1,Randomization,Randomization,ADSL,RANDDT,
399,CDISCPILOT01,01-714-1068,1,79,F,Xanomeline Low Dose,Xan_Lo,Xanomeline Low Dose,Xan_Lo,2013-10-16,Overall Survival,OS,70,2013-08-08,1,Alive,Alive During Study,ADSL,LSTALVDT,
400,CDISCPILOT01,01-714-1068,2,79,F,Xanomeline Low Dose,Xan_Lo,Xanomeline Low Dose,Xan_Lo,2013-08-08,Progression Free Survival,PFS,1,2013-08-08,1,Randomization,Randomization,ADSL,RANDDT,
401,CDISCPILOT01,01-714-1195,1,75,M,Xanomeline Low Dose,Xan_Lo,Xanomeline Low Dose,Xan_Lo,2013-10-23,Overall Survival,OS,181,2013-04-26,1,Alive,Alive During Study,ADSL,LSTALVDT,
402,CDISCPILOT01,01-714-1195,2,75,M,Xanomeline Low Dose,Xan_Lo,Xanomeline Low Dose,Xan_Lo,2013-04-26,Progression Free Survival,PFS,1,2013-04-26,1,Randomization,Randomization,ADSL,RANDDT,
403,CDISCPILOT01,01-714-1288,1,77,M,Xanomeline High Dose,Xan_Hi,Xanomeline High Dose,Xan_Hi,2014-06-17,Overall Survival,OS,196,2013-12-04,1,Alive,Alive During Study,ADSL,LSTALVDT,
404,CDISCPILOT01,01-714-1288,2,77,M,Xanomeline High Dose,Xan_Hi,Xanomeline High Dose,Xan_Hi,2013-12-04,Progression Free Survival,PFS,1,2013-12-04,1,Randomization,Randomization,ADSL,RANDDT,
405,CDISCPILOT01,01-714-1375,1,78,F,Placebo,Pbo,Placebo,Pbo,2013-09-07,Overall Survival,OS,194,2013-02-26,1,Alive,Alive During Study,ADSL,LSTALVDT,
406,CDISCPILOT01,01-714-1375,2,78,F,Placebo,Pbo,Placebo,Pbo,2013-02-26,Progression Free Survival,PFS,1,2013-02-26,1,Randomization,Randomization,ADSL,RANDDT,
407,CDISCPILOT01,01-714-1425,1,81,M,Xanomeline High Dose,Xan_Hi,Xanomeline Low Dose,Xan_Lo,2013-08-22,Overall Survival,OS,8,2013-08-15,1,Alive,Alive During Study,ADSL,LSTALVDT,
408,CDISCPILOT01,01-714-1425,2,81,M,Xanomeline High Dose,Xan_Hi,Xanomeline Low Dose,Xan_Lo,2013-08-15,Progression Free Survival,PFS,1,2013-08-15,1,Randomization,Randomization,ADSL,RANDDT,
409,CDISCPILOT01,01-715-1085,1,77,F,Xanomeline Low Dose,Xan_Lo,Xanomeline Low Dose,Xan_Lo,2013-08-18,Overall Survival,OS,184,2013-02-16,1,Alive,Alive During Study,ADSL,LSTALVDT,
410,CDISCPILOT01,01-715-1085,2,77,F,Xanomeline Low Dose,Xan_Lo,Xanomeline Low Dose,Xan_Lo,2013-02-16,Progression Free Survival,PFS,1,2013-02-16,1,Randomization,Randomization,ADSL,RANDDT,
411,CDISCPILOT01,01-715-1107,1,65,M,Xanomeline Low Dose,Xan_Lo,Xanomeline Low Dose,Xan_Lo,2013-08-14,Overall Survival,OS,170,2013-02-26,1,Alive,Alive During Study,ADSL,LSTALVDT,
412,CDISCPILOT01,01-715-1107,2,65,M,Xanomeline Low Dose,Xan_Lo,Xanomeline Low Dose,Xan_Lo,2013-02-26,Progression Free Survival,PFS,1,2013-02-26,1,Randomization,Randomization,ADSL,RANDDT,
413,CDISCPILOT01,01-715-1155,1,59,F,Placebo,Pbo,Placebo,Pbo,2014-01-25,Overall Survival,OS,44,2013-12-13,1,Alive,Alive During Study,ADSL,LSTALVDT,
414,CDISCPILOT01,01-715-1155,2,59,F,Placebo,Pbo,Placebo,Pbo,2013-12-13,Progression Free Survival,PFS,1,2013-12-13,1,Randomization,Randomization,ADSL,RANDDT,
415,CDISCPILOT01,01-715-1207,1,78,F,Placebo,Pbo,Placebo,Pbo,2013-06-01,Overall Survival,OS,196,2012-11-18,1,Alive,Alive During Study,ADSL,LSTALVDT,
416,CDISCPILOT01,01-715-1207,2,78,F,Placebo,Pbo,Placebo,Pbo,2012-11-18,Progression Free Survival,PFS,1,2012-11-18,1,Randomization,Randomization,ADSL,RANDDT,
417,CDISCPILOT01,01-715-1319,1,65,M,Xanomeline High Dose,Xan_Hi,Xanomeline High Dose,Xan_Hi,2013-03-18,Overall Survival,OS,30,2013-02-17,1,Alive,Alive During Study,ADSL,LSTALVDT,
418,CDISCPILOT01,01-715-1319,2,65,M,Xanomeline High Dose,Xan_Hi,Xanomeline High Dose,Xan_Hi,2013-02-17,Progression Free Survival,PFS,1,2013-02-17,1,Randomization,Randomization,ADSL,RANDDT,
419,CDISCPILOT01,01-715-1321,1,75,F,Xanomeline High Dose,Xan_Hi,Xanomeline High Dose,Xan_Hi,2014-04-22,Overall Survival,OS,71,2014-02-11,1,Alive,Alive During Study,ADSL,LSTALVDT,
420,CDISCPILOT01,01-715-1321,2,75,F,Xanomeline High Dose,Xan_Hi,Xanomeline High Dose,Xan_Hi,2014-02-11,Progression Free Survival,PFS,1,2014-02-11,1,Randomization,Randomization,ADSL,RANDDT,
421,CDISCPILOT01,01-715-1397,1,76,F,Placebo,Pbo,Placebo,Pbo,2013-10-03,Overall Survival,OS,184,2013-04-03,1,Alive,Alive During Study,ADSL,LSTALVDT,
422,CDISCPILOT01,01-715-1397,2,76,F,Placebo,Pbo,Placebo,Pbo,2013-04-03,Progression Free Survival,PFS,1,2013-04-03,1,Randomization,Randomization,ADSL,RANDDT,
423,CDISCPILOT01,01-715-1405,1,69,M,Xanomeline Low Dose,Xan_Lo,Xanomeline Low Dose,Xan_Lo,2013-07-13,Overall Survival,OS,8,2013-07-06,1,Alive,Alive During Study,ADSL,LSTALVDT,
424,CDISCPILOT01,01-715-1405,2,69,M,Xanomeline Low Dose,Xan_Lo,Xanomeline Low Dose,Xan_Lo,2013-07-06,Progression Free Survival,PFS,1,2013-07-06,1,Randomization,Randomization,ADSL,RANDDT,
425,CDISCPILOT01,01-716-1024,1,87,F,Placebo,Pbo,Placebo,Pbo,2013-01-20,Overall Survival,OS,196,2012-07-09,1,Alive,Alive During Study,ADSL,LSTALVDT,
426,CDISCPILOT01,01-716-1024,2,87,F,Placebo,Pbo,Placebo,Pbo,2012-07-09,Progression Free Survival,PFS,1,2012-07-09,1,Randomization,Randomization,ADSL,RANDDT,
427,CDISCPILOT01,01-716-1026,1,73,F,Placebo,Pbo,Placebo,Pbo,2014-10-16,Overall Survival,OS,198,2014-04-02,1,Alive,Alive During Study,ADSL,LSTALVDT,
428,CDISCPILOT01,01-716-1026,2,73,F,Placebo,Pbo,Placebo,Pbo,2014-04-02,Progression Free Survival,PFS,1,2014-04-02,1,Randomization,Randomization,ADSL,RANDDT,
429,CDISCPILOT01,01-716-1030,1,83,F,Xanomeline High Dose,Xan_Hi,Xanomeline Low Dose,Xan_Lo,2014-01-10,Overall Survival,OS,14,2013-12-28,1,Alive,Alive During Study,ADSL,LSTALVDT,
430,CDISCPILOT01,01-716-1030,2,83,F,Xanomeline High Dose,Xan_Hi,Xanomeline Low Dose,Xan_Lo,2013-12-28,Progression Free Survival,PFS,1,2013-12-28,1,Randomization,Randomization,ADSL,RANDDT,
431,CDISCPILOT01,01-716-1044,1,74,M,Placebo,Pbo,Placebo,Pbo,2013-11-03,Overall Survival,OS,191,2013-04-27,1,Alive,Alive During Study,ADSL,LSTALVDT,
432,CDISCPILOT01,01-716-1044,2,74,M,Placebo,Pbo,Placebo,Pbo,2013-04-27,Progression Free Survival,PFS,1,2013-04-27,1,Randomization,Randomization,ADSL,RANDDT,
433,CDISCPILOT01,01-716-1063,1,80,M,Xanomeline Low Dose,Xan_Lo,Xanomeline Low Dose,Xan_Lo,2013-08-28,Overall Survival,OS,112,2013-05-09,1,Alive,Alive During Study,ADSL,LSTALVDT,
434,CDISCPILOT01,01-716-1063,2,80,M,Xanomeline Low Dose,Xan_Lo,Xanomeline Low Dose,Xan_Lo,2013-05-09,Progression Free Survival,PFS,1,2013-05-09,1,Randomization,Randomization,ADSL,RANDDT,
435,CDISCPILOT01,01-716-1071,1,78,F,Xanomeline High Dose,Xan_Hi,Xanomeline High Dose,Xan_Hi,2013-08-01,Overall Survival,OS,55,2013-06-08,1,Alive,Alive During Study,ADSL,LSTALVDT,
436,CDISCPILOT01,01-716-1071,2,78,F,Xanomeline High Dose,Xan_Hi,Xanomeline High Dose,Xan_Hi,2013-06-08,Progression Free Survival,PFS,1,2013-06-08,1,Randomization,Randomization,ADSL,RANDDT,
437,CDISCPILOT01,01-716-1094,1,82,M,Xanomeline Low Dose,Xan_Lo,Xanomeline Low Dose,Xan_Lo,2013-01-26,Overall Survival,OS,39,2012-12-19,1,Alive,Alive During Study,ADSL,LSTALVDT,
438,CDISCPILOT01,01-716-1094,2,82,M,Xanomeline Low Dose,Xan_Lo,Xanomeline Low Dose,Xan_Lo,2012-12-19,Progression Free Survival,PFS,1,2012-12-19,1,Randomization,Randomization,ADSL,RANDDT,
439,CDISCPILOT01,01-716-1103,1,79,M,Xanomeline Low Dose,Xan_Lo,Xanomeline Low Dose,Xan_Lo,2014-09-20,Overall Survival,OS,185,2014-03-20,1,Alive,Alive During Study,ADSL,LSTALVDT,
440,CDISCPILOT01,01-716-1103,2,79,M,Xanomeline Low Dose,Xan_Lo,Xanomeline Low Dose,Xan_Lo,2014-03-20,Progression Free Survival,PFS,1,2014-03-20,1,Randomization,Randomization,ADSL,RANDDT,
441,CDISCPILOT01,01-716-1108,1,86,F,Placebo,Pbo,Placebo,Pbo,2013-08-10,Overall Survival,OS,180,2013-02-12,1,Alive,Alive During Study,ADSL,LSTALVDT,
442,CDISCPILOT01,01-716-1108,2,86,F,Placebo,Pbo,Placebo,Pbo,2013-02-12,Progression Free Survival,PFS,1,2013-02-12,1,Randomization,Randomization,ADSL,RANDDT,
443,CDISCPILOT01,01-716-1151,1,83,F,Xanomeline Low Dose,Xan_Lo,Xanomeline Low Dose,Xan_Lo,2013-06-07,Overall Survival,OS,127,2013-02-01,1,Alive,Alive During Study,ADSL,LSTALVDT,
444,CDISCPILOT01,01-716-1151,2,83,F,Xanomeline Low Dose,Xan_Lo,Xanomeline Low Dose,Xan_Lo,2013-02-01,Progression Free Survival,PFS,1,2013-02-01,1,Randomization,Randomization,ADSL,RANDDT,
445,CDISCPILOT01,01-716-1157,1,85,M,Xanomeline Low Dose,Xan_Lo,Xanomeline Low Dose,Xan_Lo,2014-04-05,Overall Survival,OS,186,2013-10-02,1,Alive,Alive During Study,ADSL,LSTALVDT,
446,CDISCPILOT01,01-716-1157,2,85,M,Xanomeline Low Dose,Xan_Lo,Xanomeline Low Dose,Xan_Lo,2013-10-02,Progression Free Survival,PFS,1,2013-10-02,1,Randomization,Randomization,ADSL,RANDDT,
447,CDISCPILOT01,01-716-1160,1,83,F,Placebo,Pbo,Placebo,Pbo,2013-10-11,Overall Survival,OS,190,2013-04-05,1,Alive,Alive During Study,ADSL,LSTALVDT,
448,CDISCPILOT01,01-716-1160,2,83,F,Placebo,Pbo,Placebo,Pbo,2013-04-05,Progression Free Survival,PFS,1,2013-04-05,1,Randomization,Randomization,ADSL,RANDDT,
449,CDISCPILOT01,01-716-1167,1,68,M,Xanomeline Low Dose,Xan_Lo,Xanomeline Low Dose,Xan_Lo,2013-04-13,Overall Survival,OS,188,2012-10-08,1,Alive,Alive During Study,ADSL,LSTALVDT,
450,CDISCPILOT01,01-716-1167,2,68,M,Xanomeline Low Dose,Xan_Lo,Xanomeline Low Dose,Xan_Lo,2012-10-08,Progression Free Survival,PFS,1,2012-10-08,1,Randomization,Randomization,ADSL,RANDDT,
451,CDISCPILOT01,01-716-1177,1,72,M,Placebo,Pbo,Placebo,Pbo,2015-03-05,Overall Survival,OS,185,2014-09-02,1,Alive,Alive During Study,ADSL,LSTALVDT,
452,CDISCPILOT01,01-716-1177,2,72,M,Placebo,Pbo,Placebo,Pbo,2014-09-02,Progression Free Survival,PFS,1,2014-09-02,1,Randomization,Randomization,ADSL,RANDDT,
453,CDISCPILOT01,01-716-1189,1,81,M,Xanomeline High Dose,Xan_Hi,Xanomeline High Dose,Xan_Hi,2013-03-03,Overall Survival,OS,146,2012-10-09,1,Alive,Alive During Study,ADSL,LSTALVDT,
454,CDISCPILOT01,01-716-1189,2,81,M,Xanomeline High Dose,Xan_Hi,Xanomeline High Dose,Xan_Hi,2012-10-09,Progression Free Survival,PFS,1,2012-10-09,1,Randomization,Randomization,ADSL,RANDDT,
455,CDISCPILOT01,01-716-1229,1,73,F,Xanomeline High Dose,Xan_Hi,Xanomeline High Dose,Xan_Hi,2013-04-02,Overall Survival,OS,42,2013-02-20,1,Alive,Alive During Study,ADSL,LSTALVDT,
456,CDISCPILOT01,01-716-1229,2,73,F,Xanomeline High Dose,Xan_Hi,Xanomeline High Dose,Xan_Hi,2013-02-20,Progression Free Survival,PFS,1,2013-02-20,1,Randomization,Randomization,ADSL,RANDDT,
457,CDISCPILOT01,01-716-1298,1,76,F,Xanomeline Low Dose,Xan_Lo,Xanomeline Low Dose,Xan_Lo,2013-07-06,Overall Survival,OS,90,2013-04-08,1,Alive,Alive During Study,ADSL,LSTALVDT,
458,CDISCPILOT01,01-716-1298,2,76,F,Xanomeline Low Dose,Xan_Lo,Xanomeline Low Dose,Xan_Lo,2013-04-08,Progression Free Survival,PFS,1,2013-04-08,1,Randomization,Randomization,ADSL,RANDDT,
459,CDISCPILOT01,01-716-1308,1,76,F,Placebo,Pbo,Placebo,Pbo,2013-10-07,Overall Survival,OS,41,2013-08-28,1,Alive,Alive During Study,ADSL,LSTALVDT,
460,CDISCPILOT01,01-716-1308,2,76,F,Placebo,Pbo,Placebo,Pbo,2013-08-28,Progression Free Survival,PFS,1,2013-08-28,1,Randomization,Randomization,ADSL,RANDDT,
461,CDISCPILOT01,01-716-1311,1,78,M,Xanomeline Low Dose,Xan_Lo,Xanomeline Low Dose,Xan_Lo,2014-09-30,Overall Survival,OS,140,2014-05-14,1,Alive,Alive During Study,ADSL,LSTALVDT,
462,CDISCPILOT01,01-716-1311,2,78,M,Xanomeline Low Dose,Xan_Lo,Xanomeline Low Dose,Xan_Lo,2014-05-14,Progression Free Survival,PFS,1,2014-05-14,1,Randomization,Randomization,ADSL,RANDDT,
463,CDISCPILOT01,01-716-1364,1,84,F,Xanomeline High Dose,Xan_Hi,Xanomeline High Dose,Xan_Hi,2014-01-09,Overall Survival,OS,190,2013-07-04,1,Alive,Alive During Study,ADSL,LSTALVDT,
464,CDISCPILOT01,01-716-1364,2,84,F,Xanomeline High Dose,Xan_Hi,Xanomeline High Dose,Xan_Hi,2013-07-04,Progression Free Survival,PFS,1,2013-07-04,1,Randomization,Randomization,ADSL,RANDDT,
465,CDISCPILOT01,01-716-1373,1,74,M,Xanomeline High Dose,Xan_Hi,Xanomeline High Dose,Xan_Hi,2013-02-28,Overall Survival,OS,77,2012-12-14,1,Alive,Alive During Study,ADSL,LSTALVDT,
466,CDISCPILOT01,01-716-1373,2,74,M,Xanomeline High Dose,Xan_Hi,Xanomeline High Dose,Xan_Hi,2012-12-14,Progression Free Survival,PFS,1,2012-12-14,1,Randomization,Randomization,ADSL,RANDDT,
467,CDISCPILOT01,01-716-1418,1,80,F,Xanomeline High Dose,Xan_Hi,Xanomeline High Dose,Xan_Hi,2013-11-20,Overall Survival,OS,200,2013-05-05,1,Alive,Alive During Study,ADSL,LSTALVDT,
468,CDISCPILOT01,01-716-1418,2,80,F,Xanomeline High Dose,Xan_Hi,Xanomeline High Dose,Xan_Hi,2013-05-05,Progression Free Survival,PFS,1,2013-05-05,1,Randomization,Randomization,ADSL,RANDDT,
469,CDISCPILOT01,01-716-1441,1,85,M,Placebo,Pbo,Placebo,Pbo,2014-07-22,Overall Survival,OS,182,2014-01-22,1,Alive,Alive During Study,ADSL,LSTALVDT,
470,CDISCPILOT01,01-716-1441,2,85,M,Placebo,Pbo,Placebo,Pbo,2014-01-22,Progression Free Survival,PFS,1,2014-01-22,1,Randomization,Randomization,ADSL,RANDDT,
471,CDISCPILOT01,01-716-1447,1,72,F,Xanomeline High Dose,Xan_Hi,Xanomeline High Dose,Xan_Hi,2014-06-17,Overall Survival,OS,184,2013-12-16,1,Alive,Alive During Study,ADSL,LSTALVDT,
472,CDISCPILOT01,01-716-1447,2,72,F,Xanomeline High Dose,Xan_Hi,Xanomeline High Dose,Xan_Hi,2013-12-16,Progression Free Survival,PFS,1,2013-12-16,1,Randomization,Randomization,ADSL,RANDDT,
473,CDISCPILOT01,01-717-1004,1,80,F,Xanomeline Low Dose,Xan_Lo,Xanomeline Low Dose,Xan_Lo,2014-07-16,Overall Survival,OS,184,2014-01-14,1,Alive,Alive During Study,ADSL,LSTALVDT,
474,CDISCPILOT01,01-717-1004,2,80,F,Xanomeline Low Dose,Xan_Lo,Xanomeline Low Dose,Xan_Lo,2014-01-14,Progression Free Survival,PFS,1,2014-01-14,1,Randomization,Randomization,ADSL,RANDDT,
475,CDISCPILOT01,01-717-1109,1,84,M,Xanomeline High Dose,Xan_Hi,Xanomeline High Dose,Xan_Hi,2014-07-28,Overall Survival,OS,183,2014-01-27,1,Alive,Alive During Study,ADSL,LSTALVDT,
476,CDISCPILOT01,01-717-1109,2,84,M,Xanomeline High Dose,Xan_Hi,Xanomeline High Dose,Xan_Hi,2014-01-27,Progression Free Survival,PFS,1,2014-01-27,1,Randomization,Randomization,ADSL,RANDDT,
477,CDISCPILOT01,01-717-1174,1,73,M,Xanomeline High Dose,Xan_Hi,Xanomeline High Dose,Xan_Hi,2013-07-24,Overall Survival,OS,184,2013-01-22,1,Alive,Alive During Study,ADSL,LSTALVDT,
478,CDISCPILOT01,01-717-1174,2,73,M,Xanomeline High Dose,Xan_Hi,Xanomeline High Dose,Xan_Hi,2013-01-22,Progression Free Survival,PFS,1,2013-01-22,1,Randomization,Randomization,ADSL,RANDDT,
479,CDISCPILOT01,01-717-1201,1,85,F,Placebo,Pbo,Placebo,Pbo,2014-02-21,Overall Survival,OS,65,2013-12-19,1,Alive,Alive During Study,ADSL,LSTALVDT,
480,CDISCPILOT01,01-717-1201,2,85,F,Placebo,Pbo,Placebo,Pbo,2013-12-19,Progression Free Survival,PFS,1,2013-12-19,1,Randomization,Randomization,ADSL,RANDDT,
481,CDISCPILOT01,01-717-1344,1,64,F,Placebo,Pbo,Placebo,Pbo,2014-03-14,Overall Survival,OS,63,2014-01-11,1,Alive,Alive During Study,ADSL,LSTALVDT,
482,CDISCPILOT01,01-717-1344,2,64,F,Placebo,Pbo,Placebo,Pbo,2014-01-11,Progression Free Survival,PFS,1,2014-01-11,1,Randomization,Randomization,ADSL,RANDDT,
483,CDISCPILOT01,01-717-1357,1,77,M,Xanomeline High Dose,Xan_Hi,Xanomeline High Dose,Xan_Hi,2013-10-20,Overall Survival,OS,173,2013-05-01,1,Alive,Alive During Study,ADSL,LSTALVDT,
484,CDISCPILOT01,01-717-1357,2,77,M,Xanomeline High Dose,Xan_Hi,Xanomeline High Dose,Xan_Hi,2013-05-01,Progression Free Survival,PFS,1,2013-05-01,1,Randomization,Randomization,ADSL,RANDDT,
485,CDISCPILOT01,01-717-1446,1,75,F,Xanomeline Low Dose,Xan_Lo,Xanomeline Low Dose,Xan_Lo,2014-03-17,Overall Survival,OS,198,2013-09-01,1,Alive,Alive During Study,ADSL,LSTALVDT,
486,CDISCPILOT01,01-717-1446,2,75,F,Xanomeline Low Dose,Xan_Lo,Xanomeline Low Dose,Xan_Lo,2013-09-01,Progression Free Survival,PFS,1,2013-09-01,1,Randomization,Randomization,ADSL,RANDDT,
487,CDISCPILOT01,01-718-1066,1,79,F,Xanomeline Low Dose,Xan_Lo,Xanomeline Low Dose,Xan_Lo,2013-07-30,Overall Survival,OS,24,2013-07-07,1,Alive,Alive During Study,ADSL,LSTALVDT,
488,CDISCPILOT01,01-718-1066,2,79,F,Xanomeline Low Dose,Xan_Lo,Xanomeline Low Dose,Xan_Lo,2013-07-07,Progression Free Survival,PFS,1,2013-07-07,1,Randomization,Randomization,ADSL,RANDDT,
489,CDISCPILOT01,01-718-1079,1,67,F,Xanomeline Low Dose,Xan_Lo,Xanomeline Low Dose,Xan_Lo,2012-10-31,Overall Survival,OS,43,2012-09-19,1,Alive,Alive During Study,ADSL,LSTALVDT,
490,CDISCPILOT01,01-718-1079,2,67,F,Xanomeline Low Dose,Xan_Lo,Xanomeline Low Dose,Xan_Lo,2012-09-19,Progression Free Survival,PFS,1,2012-09-19,1,Randomization,Randomization,ADSL,RANDDT,
491,CDISCPILOT01,01-718-1101,1,82,M,Xanomeline High Dose,Xan_Hi,Xanomeline High Dose,Xan_Hi,2013-08-02,Overall Survival,OS,167,2013-02-17,1,Alive,Alive During Study,ADSL,LSTALVDT,
492,CDISCPILOT01,01-718-1101,2,82,M,Xanomeline High Dose,Xan_Hi,Xanomeline High Dose,Xan_Hi,2013-02-17,Progression Free Survival,PFS,1,2013-02-17,1,Randomization,Randomization,ADSL,RANDDT,
493,CDISCPILOT01,01-718-1139,1,77,M,Placebo,Pbo,Placebo,Pbo,2013-11-17,Overall Survival,OS,183,2013-05-19,1,Alive,Alive During Study,ADSL,LSTALVDT,
494,CDISCPILOT01,01-718-1139,2,77,M,Placebo,Pbo,Placebo,Pbo,2013-05-19,Progression Free Survival,PFS,1,2013-05-19,1,Randomization,Randomization,ADSL,RANDDT,
495,CDISCPILOT01,01-718-1150,1,73,F,Placebo,Pbo,Placebo,Pbo,2013-07-31,Overall Survival,OS,194,2013-01-19,1,Alive,Alive During Study,ADSL,LSTALVDT,
496,CDISCPILOT01,01-718-1150,2,73,F,Placebo,Pbo,Placebo,Pbo,2013-01-19,Progression Free Survival,PFS,1,2013-01-19,1,Randomization,Randomization,ADSL,RANDDT,
497,CDISCPILOT01,01-718-1170,1,80,F,Xanomeline Low Dose,Xan_Lo,Xanomeline Low Dose,Xan_Lo,2013-11-03,Overall Survival,OS,49,2013-09-16,1,Alive,Alive During Study,ADSL,LSTALVDT,
498,CDISCPILOT01,01-718-1170,2,80,F,Xanomeline Low Dose,Xan_Lo,Xanomeline Low Dose,Xan_Lo,2013-09-16,Progression Free Survival,PFS,1,2013-09-16,1,Randomization,Randomization,ADSL,RANDDT,
499,CDISCPILOT01,01-718-1172,1,74,M,Placebo,Pbo,Placebo,Pbo,2013-11-29,Overall Survival,OS,70,2013-09-21,1,Alive,Alive During Study,ADSL,LSTALVDT,
500,CDISCPILOT01,01-718-1172,2,74,M,Placebo,Pbo,Placebo,Pbo,2013-09-21,Progression Free Survival,PFS,1,2013-09-21,1,Randomization,Randomization,ADSL,RANDDT,
501,CDISCPILOT01,01-718-1250,1,82,F,Xanomeline Low Dose,Xan_Lo,Xanomeline Low Dose,Xan_Lo,2014-02-19,Overall Survival,OS,152,2013-09-21,1,Alive,Alive During Study,ADSL,LSTALVDT,
502,CDISCPILOT01,01-718-1250,2,82,F,Xanomeline Low Dose,Xan_Lo,Xanomeline Low Dose,Xan_Lo,2013-09-21,Progression Free Survival,PFS,1,2013-09-21,1,Randomization,Randomization,ADSL,RANDDT,
503,CDISCPILOT01,01-718-1254,1,78,M,Xanomeline Low Dose,Xan_Lo,Xanomeline Low Dose,Xan_Lo,2014-01-09,Overall Survival,OS,184,2013-07-10,1,Alive,Alive During Study,ADSL,LSTALVDT,
504,CDISCPILOT01,01-718-1254,2,78,M,Xanomeline Low Dose,Xan_Lo,Xanomeline Low Dose,Xan_Lo,2013-07-10,Progression Free Survival,PFS,1,2013-07-10,1,Randomization,Randomization,ADSL,RANDDT,
505,CDISCPILOT01,01-718-1328,1,86,M,Xanomeline High Dose,Xan_Hi,Xanomeline High Dose,Xan_Hi,2013-05-01,Overall Survival,OS,90,2013-02-01,1,Alive,Alive During Study,ADSL,LSTALVDT,
506,CDISCPILOT01,01-718-1328,2,86,M,Xanomeline High Dose,Xan_Hi,Xanomeline High Dose,Xan_Hi,2013-02-01,Progression Free Survival,PFS,1,2013-02-01,1,Randomization,Randomization,ADSL,RANDDT,
507,CDISCPILOT01,01-718-1355,1,79,M,Placebo,Pbo,Placebo,Pbo,2013-08-29,Overall Survival,OS,183,2013-02-28,1,Alive,Alive During Study,ADSL,LSTALVDT,
508,CDISCPILOT01,01-718-1355,2,79,M,Placebo,Pbo,Placebo,Pbo,2013-02-28,Progression Free Survival,PFS,1,2013-02-28,1,Randomization,Randomization,ADSL,RANDDT,
509,CDISCPILOT01,01-718-1371,1,69,F,Xanomeline High Dose,Xan_Hi,Xanomeline High Dose,Xan_Hi,2013-08-01,Overall Survival,OS,98,2013-04-26,1,Alive,Alive During Study,ADSL,LSTALVDT,
510,CDISCPILOT01,01-718-1371,2,69,F,Xanomeline High Dose,Xan_Hi,Xanomeline High Dose,Xan_Hi,2013-04-26,Progression Free Survival,PFS,1,2013-04-26,1,Randomization,Randomization,ADSL,RANDDT,
511,CDISCPILOT01,01-718-1427,1,74,F,Xanomeline High Dose,Xan_Hi,Xanomeline High Dose,Xan_Hi,2013-02-25,Overall Survival,OS,71,2012-12-17,1,Alive,Alive During Study,ADSL,LSTALVDT,
512,CDISCPILOT01,01-718-1427,2,74,F,Xanomeline High Dose,Xan_Hi,Xanomeline High Dose,Xan_Hi,2012-12-17,Progression Free Survival,PFS,1,2012-12-17,1,Randomization,Randomization,ADSL,RANDDT,
