rownames,STUDYID,USUBJID,SUBJID,SITEID,COUNTRY,DOMAIN,RFSTDTC,RFENDTC,RFXSTDTC,RFXENDTC,RFPENDTC,SCRFDT,FRVDT,DTHDTC,DTHADY,DTHFL,LDDTHELD,LDDTHGR1,DTH30FL,DTHA30FL,DTHDOM,DTHB30FL,ASEQ,REGION1,DMDTC,DMDY,AGE,AGEU,AGEGR1,SEX,RACE,RACEGR1,ETHNIC,SAFFL,ARM,ARMCD,ACTARM,ACTARMCD,TRT01P,TRT01A,TRTSDT,TRTSDTM,TRTSTMF,TRTEDT,TRTEDTM,TRTETMF,EOSSTT,EOSDT,RFICDTC,RANDDT,LSTALVDT,TRTDURD,DTHDT,DTHDTF,DTHCAUS,DTHCGR1,ADT,ADY,AVISIT,AVISITN,ATPT,ATPTN,PARAM,PARAMCD,PARAMN,PARCAT1,PARCAT1N,AVAL,AVALCAT1,AVALCA1N,BASE,BASECAT1,BASECA1N,CHG,PCHG,CRIT1,CRIT1FL,CRIT2,CRIT2FL,ABLFL,VSSEQ,VSTESTCD,VSTEST,VSPOS,VSORRES,VSORRESU,VSSTRESC,VSSTRESN,VSSTRESU,VSSTAT,VSLOC,VSBLFL,VISITNUM,VISIT,VISITDY,VSDTC,VSDY,VSTPT,VSTPTNUM,VSELTM,VSTPTREF
1,CDISCPILOT01,01-701-1015,1015,701,USA,VS,2014-01-02,2014-07-02,2014-01-02,2014-07-02,2014-07-02T11:45,,,,,,,,,,,,1,NA,2013-12-26,-7,63,YEARS,18-64,F,WHITE,White,HISPANIC OR LATINO,Y,Placebo,Pbo,Placebo,Pbo,Placebo,Placebo,2014-01-02,2014-01-02T00:00:00Z,H,2014-07-02,2014-07-02T23:59:59Z,H,COMPLETED,2014-07-02,,2014-01-02,2014-07-02,182,,,,,2013-12-26,-7,Baseline,0,,,Height (cm),HEIGHT,1,Anthropometric measurement,1,153,,,153,,,,,,,,,Y,54,HEIGHT,Height,,153,cm,153,153,cm,,,,1,SCREENING 1,-7,2013-12-26,-7,,,,
2,CDISCPILOT01,01-701-1015,1015,701,USA,VS,2014-01-02,2014-07-02,2014-01-02,2014-07-02,2014-07-02T11:45,,,,,,,,,,,,2,NA,2013-12-26,-7,63,YEARS,18-64,F,WHITE,White,HISPANIC OR LATINO,Y,Placebo,Pbo,Placebo,Pbo,Placebo,Placebo,2014-01-02,2014-01-02T00:00:00Z,H,2014-07-02,2014-07-02T23:59:59Z,H,COMPLETED,2014-07-02,,2014-01-02,2014-07-02,182,,,,,2013-12-26,-7,,,,,Weight (kg),WEIGHT,2,Anthropometric measurement,1,89.2,,,89.1,,,,,,,,,,164,WEIGHT,Weight,,89.2,kg,89.2,89.2,kg,,,,1,SCREENING 1,-7,2013-12-26,-7,,,,
3,CDISCPILOT01,01-701-1015,1015,701,USA,VS,2014-01-02,2014-07-02,2014-01-02,2014-07-02,2014-07-02T11:45,,,,,,,,,,,,3,NA,2013-12-26,-7,63,YEARS,18-64,F,WHITE,White,HISPANIC OR LATINO,Y,Placebo,Pbo,Placebo,Pbo,Placebo,Placebo,2014-01-02,2014-01-02T00:00:00Z,H,2014-07-02,2014-07-02T23:59:59Z,H,COMPLETED,2014-07-02,,2014-01-02,2014-07-02,182,,,,,2014-01-02,1,Baseline,0,,,Weight (kg),WEIGHT,2,Anthropometric measurement,1,89.1,,,89.1,,,,,,,,,Y,165,WEIGHT,Weight,,89.1,kg,89.1,89.1,kg,,,Y,3,BASELINE,1,2014-01-02,1,,,,
4,CDISCPILOT01,01-701-1015,1015,701,USA,VS,2014-01-02,2014-07-02,2014-01-02,2014-07-02,2014-07-02T11:45,,,,,,,,,,,,4,NA,2013-12-26,-7,63,YEARS,18-64,F,WHITE,White,HISPANIC OR LATINO,Y,Placebo,Pbo,Placebo,Pbo,Placebo,Placebo,2014-01-02,2014-01-02T00:00:00Z,H,2014-07-02,2014-07-02T23:59:59Z,H,COMPLETED,2014-07-02,,2014-01-02,2014-07-02,182,,,,,2014-01-16,15,Week 2,2,,,Weight (kg),WEIGHT,2,Anthropometric measurement,1,90.2,,,89.1,,,1.1000000000000085,1.2345679012345776,Achievement of >= 5% weight reduction from baseline,N,Achievement of >= 10% weight reduction from baseline,N,,166,WEIGHT,Weight,,90.2,kg,90.2,90.2,kg,,,,4,WEEK 2,14,2014-01-16,15,,,,
5,CDISCPILOT01,01-701-1015,1015,701,USA,VS,2014-01-02,2014-07-02,2014-01-02,2014-07-02,2014-07-02T11:45,,,,,,,,,,,,5,NA,2013-12-26,-7,63,YEARS,18-64,F,WHITE,White,HISPANIC OR LATINO,Y,Placebo,Pbo,Placebo,Pbo,Placebo,Placebo,2014-01-02,2014-01-02T00:00:00Z,H,2014-07-02,2014-07-02T23:59:59Z,H,COMPLETED,2014-07-02,,2014-01-02,2014-07-02,182,,,,,2014-01-30,29,Week 4,4,,,Weight (kg),WEIGHT,2,Anthropometric measurement,1,90.42,,,89.1,,,1.3200000000000074,1.4814814814814898,Achievement of >= 5% weight reduction from baseline,N,Achievement of >= 10% weight reduction from baseline,N,,167,WEIGHT,Weight,,90.42,kg,90.42,90.42,kg,,,,5,WEEK 4,28,2014-01-30,29,,,,
6,CDISCPILOT01,01-701-1015,1015,701,USA,VS,2014-01-02,2014-07-02,2014-01-02,2014-07-02,2014-07-02T11:45,,,,,,,,,,,,6,NA,2013-12-26,-7,63,YEARS,18-64,F,WHITE,White,HISPANIC OR LATINO,Y,Placebo,Pbo,Placebo,Pbo,Placebo,Placebo,2014-01-02,2014-01-02T00:00:00Z,H,2014-07-02,2014-07-02T23:59:59Z,H,COMPLETED,2014-07-02,,2014-01-02,2014-07-02,182,,,,,2014-02-12,42,Week 6,6,,,Weight (kg),WEIGHT,2,Anthropometric measurement,1,90.54,,,89.1,,,1.440000000000012,1.6161616161616297,Achievement of >= 5% weight reduction from baseline,N,Achievement of >= 10% weight reduction from baseline,N,,168,WEIGHT,Weight,,90.54,kg,90.54,90.54,kg,,,,7,WEEK 6,42,2014-02-12,42,,,,
7,CDISCPILOT01,01-701-1015,1015,701,USA,VS,2014-01-02,2014-07-02,2014-01-02,2014-07-02,2014-07-02T11:45,,,,,,,,,,,,7,NA,2013-12-26,-7,63,YEARS,18-64,F,WHITE,White,HISPANIC OR LATINO,Y,Placebo,Pbo,Placebo,Pbo,Placebo,Placebo,2014-01-02,2014-01-02T00:00:00Z,H,2014-07-02,2014-07-02T23:59:59Z,H,COMPLETED,2014-07-02,,2014-01-02,2014-07-02,182,,,,,2014-03-05,63,Week 8,8,,,Weight (kg),WEIGHT,2,Anthropometric measurement,1,90.81,,,89.1,,,1.710000000000008,1.919191919191928,Achievement of >= 5% weight reduction from baseline,N,Achievement of >= 10% weight reduction from baseline,N,,169,WEIGHT,Weight,,90.81,kg,90.81,90.81,kg,,,,8,WEEK 8,56,2014-03-05,63,,,,
8,CDISCPILOT01,01-701-1015,1015,701,USA,VS,2014-01-02,2014-07-02,2014-01-02,2014-07-02,2014-07-02T11:45,,,,,,,,,,,,8,NA,2013-12-26,-7,63,YEARS,18-64,F,WHITE,White,HISPANIC OR LATINO,Y,Placebo,Pbo,Placebo,Pbo,Placebo,Placebo,2014-01-02,2014-01-02T00:00:00Z,H,2014-07-02,2014-07-02T23:59:59Z,H,COMPLETED,2014-07-02,,2014-01-02,2014-07-02,182,,,,,2014-03-26,84,Week 12,12,,,Weight (kg),WEIGHT,2,Anthropometric measurement,1,91.2,,,89.1,,,2.1000000000000085,2.3569023569023666,Achievement of >= 5% weight reduction from baseline,N,Achievement of >= 10% weight reduction from baseline,N,,170,WEIGHT,Weight,,91.2,kg,91.2,91.2,kg,,,,9,WEEK 12,84,2014-03-26,84,,,,
9,CDISCPILOT01,01-701-1015,1015,701,USA,VS,2014-01-02,2014-07-02,2014-01-02,2014-07-02,2014-07-02T11:45,,,,,,,,,,,,9,NA,2013-12-26,-7,63,YEARS,18-64,F,WHITE,White,HISPANIC OR LATINO,Y,Placebo,Pbo,Placebo,Pbo,Placebo,Placebo,2014-01-02,2014-01-02T00:00:00Z,H,2014-07-02,2014-07-02T23:59:59Z,H,COMPLETED,2014-07-02,,2014-01-02,2014-07-02,182,,,,,2014-05-07,126,Week 16,16,,,Weight (kg),WEIGHT,2,Anthropometric measurement,1,90.31,,,89.1,,,1.210000000000008,1.3580246913580336,Achievement of >= 5% weight reduction from baseline,N,Achievement of >= 10% weight reduction from baseline,N,,171,WEIGHT,Weight,,90.31,kg,90.31,90.31,kg,,,,10,WEEK 16,112,2014-05-07,126,,,,
10,CDISCPILOT01,01-701-1015,1015,701,USA,VS,2014-01-02,2014-07-02,2014-01-02,2014-07-02,2014-07-02T11:45,,,,,,,,,,,,10,NA,2013-12-26,-7,63,YEARS,18-64,F,WHITE,White,HISPANIC OR LATINO,Y,Placebo,Pbo,Placebo,Pbo,Placebo,Placebo,2014-01-02,2014-01-02T00:00:00Z,H,2014-07-02,2014-07-02T23:59:59Z,H,COMPLETED,2014-07-02,,2014-01-02,2014-07-02,182,,,,,2014-05-21,140,Week 20,20,,,Weight (kg),WEIGHT,2,Anthropometric measurement,1,91.37,,,89.1,,,2.2700000000000102,2.5476992143658928,Achievement of >= 5% weight reduction from baseline,N,Achievement of >= 10% weight reduction from baseline,N,,172,WEIGHT,Weight,,91.37,kg,91.37,91.37,kg,,,,11,WEEK 20,140,2014-05-21,140,,,,
11,CDISCPILOT01,01-701-1015,1015,701,USA,VS,2014-01-02,2014-07-02,2014-01-02,2014-07-02,2014-07-02T11:45,,,,,,,,,,,,11,NA,2013-12-26,-7,63,YEARS,18-64,F,WHITE,White,HISPANIC OR LATINO,Y,Placebo,Pbo,Placebo,Pbo,Placebo,Placebo,2014-01-02,2014-01-02T00:00:00Z,H,2014-07-02,2014-07-02T23:59:59Z,H,COMPLETED,2014-07-02,,2014-01-02,2014-07-02,182,,,,,2014-06-18,168,Week 24,24,,,Weight (kg),WEIGHT,2,Anthropometric measurement,1,91.55,,,89.1,,,2.450000000000003,2.7497194163860863,Achievement of >= 5% weight reduction from baseline,N,Achievement of >= 10% weight reduction from baseline,N,,173,WEIGHT,Weight,,91.55,kg,91.55,91.55,kg,,,,12,WEEK 24,168,2014-06-18,168,,,,
12,CDISCPILOT01,01-701-1015,1015,701,USA,VS,2014-01-02,2014-07-02,2014-01-02,2014-07-02,2014-07-02T11:45,,,,,,,,,,,,12,NA,2013-12-26,-7,63,YEARS,18-64,F,WHITE,White,HISPANIC OR LATINO,Y,Placebo,Pbo,Placebo,Pbo,Placebo,Placebo,2014-01-02,2014-01-02T00:00:00Z,H,2014-07-02,2014-07-02T23:59:59Z,H,COMPLETED,2014-07-02,,2014-01-02,2014-07-02,182,,,,,2014-07-02,182,Week 26,26,,,Weight (kg),WEIGHT,2,Anthropometric measurement,1,93.1,,,89.1,,,4,4.489337822671156,Achievement of >= 5% weight reduction from baseline,N,Achievement of >= 10% weight reduction from baseline,N,,174,WEIGHT,Weight,,93.1,kg,93.1,93.1,kg,,,,13,WEEK 26,182,2014-07-02,182,,,,
13,CDISCPILOT01,01-701-1015,1015,701,USA,,2014-01-02,2014-07-02,2014-01-02,2014-07-02,2014-07-02T11:45,,,,,,,,,,,,13,NA,2013-12-26,-7,63,YEARS,18-64,F,WHITE,White,HISPANIC OR LATINO,Y,Placebo,Pbo,Placebo,Pbo,Placebo,Placebo,2014-01-02,2014-01-02T00:00:00Z,H,2014-07-02,2014-07-02T23:59:59Z,H,COMPLETED,2014-07-02,,2014-01-02,2014-07-02,182,,,,,2013-12-26,-7,,,,,Body Mass Index (kg/m2),BMI,3,Anthropometric measurement,1,38.10500234952369,Obesity class II,5,38.06228373702422,Obesity class II,5,,,,,,,,,,,,,,,,,,,,,,,,,,,,
14,CDISCPILOT01,01-701-1015,1015,701,USA,,2014-01-02,2014-07-02,2014-01-02,2014-07-02,2014-07-02T11:45,,,,,,,,,,,,14,NA,2013-12-26,-7,63,YEARS,18-64,F,WHITE,White,HISPANIC OR LATINO,Y,Placebo,Pbo,Placebo,Pbo,Placebo,Placebo,2014-01-02,2014-01-02T00:00:00Z,H,2014-07-02,2014-07-02T23:59:59Z,H,COMPLETED,2014-07-02,,2014-01-02,2014-07-02,182,,,,,2014-01-02,1,Baseline,0,,,Body Mass Index (kg/m2),BMI,3,Anthropometric measurement,1,38.06228373702422,Obesity class II,5,38.06228373702422,Obesity class II,5,,,,,,,Y,,,,,,,,,,,,,,,,,,,,,
15,CDISCPILOT01,01-701-1015,1015,701,USA,,2014-01-02,2014-07-02,2014-01-02,2014-07-02,2014-07-02T11:45,,,,,,,,,,,,15,NA,2013-12-26,-7,63,YEARS,18-64,F,WHITE,White,HISPANIC OR LATINO,Y,Placebo,Pbo,Placebo,Pbo,Placebo,Placebo,2014-01-02,2014-01-02T00:00:00Z,H,2014-07-02,2014-07-02T23:59:59Z,H,COMPLETED,2014-07-02,,2014-01-02,2014-07-02,182,,,,,2014-01-16,15,Week 2,2,,,Body Mass Index (kg/m2),BMI,3,Anthropometric measurement,1,38.53218847451835,Obesity class II,5,38.06228373702422,Obesity class II,5,0.469904737494133,1.2345679012345858,,,,,,,,,,,,,,,,,,,,,,,,,,
16,CDISCPILOT01,01-701-1015,1015,701,USA,,2014-01-02,2014-07-02,2014-01-02,2014-07-02,2014-07-02T11:45,,,,,,,,,,,,16,NA,2013-12-26,-7,63,YEARS,18-64,F,WHITE,White,HISPANIC OR LATINO,Y,Placebo,Pbo,Placebo,Pbo,Placebo,Placebo,2014-01-02,2014-01-02T00:00:00Z,H,2014-07-02,2014-07-02T23:59:59Z,H,COMPLETED,2014-07-02,,2014-01-02,2014-07-02,182,,,,,2014-01-30,29,Week 4,4,,,Body Mass Index (kg/m2),BMI,3,Anthropometric measurement,1,38.62616942201717,Obesity class II,5,38.06228373702422,Obesity class II,5,0.5638856849929539,1.481481481481488,,,,,,,,,,,,,,,,,,,,,,,,,,
17,CDISCPILOT01,01-701-1015,1015,701,USA,,2014-01-02,2014-07-02,2014-01-02,2014-07-02,2014-07-02T11:45,,,,,,,,,,,,17,NA,2013-12-26,-7,63,YEARS,18-64,F,WHITE,White,HISPANIC OR LATINO,Y,Placebo,Pbo,Placebo,Pbo,Placebo,Placebo,2014-01-02,2014-01-02T00:00:00Z,H,2014-07-02,2014-07-02T23:59:59Z,H,COMPLETED,2014-07-02,,2014-01-02,2014-07-02,182,,,,,2014-02-12,42,Week 6,6,,,Body Mass Index (kg/m2),BMI,3,Anthropometric measurement,1,38.677431757016535,Obesity class II,5,38.06228373702422,Obesity class II,5,0.6151480199923185,1.616161616161637,,,,,,,,,,,,,,,,,,,,,,,,,,
18,CDISCPILOT01,01-701-1015,1015,701,USA,,2014-01-02,2014-07-02,2014-01-02,2014-07-02,2014-07-02T11:45,,,,,,,,,,,,18,NA,2013-12-26,-7,63,YEARS,18-64,F,WHITE,White,HISPANIC OR LATINO,Y,Placebo,Pbo,Placebo,Pbo,Placebo,Placebo,2014-01-02,2014-01-02T00:00:00Z,H,2014-07-02,2014-07-02T23:59:59Z,H,COMPLETED,2014-07-02,,2014-01-02,2014-07-02,182,,,,,2014-03-05,63,Week 8,8,,,Body Mass Index (kg/m2),BMI,3,Anthropometric measurement,1,38.79277201076509,Obesity class II,5,38.06228373702422,Obesity class II,5,0.7304882737408747,1.9191919191919347,,,,,,,,,,,,,,,,,,,,,,,,,,
19,CDISCPILOT01,01-701-1015,1015,701,USA,,2014-01-02,2014-07-02,2014-01-02,2014-07-02,2014-07-02T11:45,,,,,,,,,,,,19,NA,2013-12-26,-7,63,YEARS,18-64,F,WHITE,White,HISPANIC OR LATINO,Y,Placebo,Pbo,Placebo,Pbo,Placebo,Placebo,2014-01-02,2014-01-02T00:00:00Z,H,2014-07-02,2014-07-02T23:59:59Z,H,COMPLETED,2014-07-02,,2014-01-02,2014-07-02,182,,,,,2014-03-26,84,Week 12,12,,,Body Mass Index (kg/m2),BMI,3,Anthropometric measurement,1,38.95937459951301,Obesity class II,5,38.06228373702422,Obesity class II,5,0.8970908624887954,2.356902356902381,,,,,,,,,,,,,,,,,,,,,,,,,,
20,CDISCPILOT01,01-701-1015,1015,701,USA,,2014-01-02,2014-07-02,2014-01-02,2014-07-02,2014-07-02T11:45,,,,,,,,,,,,20,NA,2013-12-26,-7,63,YEARS,18-64,F,WHITE,White,HISPANIC OR LATINO,Y,Placebo,Pbo,Placebo,Pbo,Placebo,Placebo,2014-01-02,2014-01-02T00:00:00Z,H,2014-07-02,2014-07-02T23:59:59Z,H,COMPLETED,2014-07-02,,2014-01-02,2014-07-02,182,,,,,2014-05-07,126,Week 16,16,,,Body Mass Index (kg/m2),BMI,3,Anthropometric measurement,1,38.57917894826776,Obesity class II,5,38.06228373702422,Obesity class II,5,0.5168952112435434,1.358024691358037,,,,,,,,,,,,,,,,,,,,,,,,,,
21,CDISCPILOT01,01-701-1015,1015,701,USA,,2014-01-02,2014-07-02,2014-01-02,2014-07-02,2014-07-02T11:45,,,,,,,,,,,,21,NA,2013-12-26,-7,63,YEARS,18-64,F,WHITE,White,HISPANIC OR LATINO,Y,Placebo,Pbo,Placebo,Pbo,Placebo,Placebo,2014-01-02,2014-01-02T00:00:00Z,H,2014-07-02,2014-07-02T23:59:59Z,H,COMPLETED,2014-07-02,,2014-01-02,2014-07-02,182,,,,,2014-05-21,140,Week 20,20,,,Body Mass Index (kg/m2),BMI,3,Anthropometric measurement,1,39.031996240762105,Obesity class II,5,38.06228373702422,Obesity class II,5,0.9697125037378882,2.5476992143659065,,,,,,,,,,,,,,,,,,,,,,,,,,
22,CDISCPILOT01,01-701-1015,1015,701,USA,,2014-01-02,2014-07-02,2014-01-02,2014-07-02,2014-07-02T11:45,,,,,,,,,,,,22,NA,2013-12-26,-7,63,YEARS,18-64,F,WHITE,White,HISPANIC OR LATINO,Y,Placebo,Pbo,Placebo,Pbo,Placebo,Placebo,2014-01-02,2014-01-02T00:00:00Z,H,2014-07-02,2014-07-02T23:59:59Z,H,COMPLETED,2014-07-02,,2014-01-02,2014-07-02,182,,,,,2014-06-18,168,Week 24,24,,,Body Mass Index (kg/m2),BMI,3,Anthropometric measurement,1,39.10888974326114,Obesity class II,5,38.06228373702422,Obesity class II,5,1.046606006236921,2.7497194163860925,,,,,,,,,,,,,,,,,,,,,,,,,,
23,CDISCPILOT01,01-701-1015,1015,701,USA,,2014-01-02,2014-07-02,2014-01-02,2014-07-02,2014-07-02T11:45,,,,,,,,,,,,23,NA,2013-12-26,-7,63,YEARS,18-64,F,WHITE,White,HISPANIC OR LATINO,Y,Placebo,Pbo,Placebo,Pbo,Placebo,Placebo,2014-01-02,2014-01-02T00:00:00Z,H,2014-07-02,2014-07-02T23:59:59Z,H,COMPLETED,2014-07-02,,2014-01-02,2014-07-02,182,,,,,2014-07-02,182,Week 26,26,,,Body Mass Index (kg/m2),BMI,3,Anthropometric measurement,1,39.77102823700286,Obesity class II,5,38.06228373702422,Obesity class II,5,1.7087444999786428,4.489337822671162,,,,,,,,,,,,,,,,,,,,,,,,,,
24,CDISCPILOT01,01-701-1015,1015,701,USA,VS,2014-01-02,2014-07-02,2014-01-02,2014-07-02,2014-07-02T11:45,,,,,,,,,,,,24,NA,2013-12-26,-7,63,YEARS,18-64,F,WHITE,White,HISPANIC OR LATINO,Y,Placebo,Pbo,Placebo,Pbo,Placebo,Placebo,2014-01-02,2014-01-02T00:00:00Z,H,2014-07-02,2014-07-02T23:59:59Z,H,COMPLETED,2014-07-02,,2014-01-02,2014-07-02,182,,,,,2013-12-26,-7,,,,,Hip Circumference (cm),HIPCIR,4,Anthropometric measurement,1,102,,,102,,,,,,,,,,55,HIPCIR,Hip Circumference,,102,cm,102,102,cm,,,,1,SCREENING 1,-7,2013-12-26,-7,,,,
25,CDISCPILOT01,01-701-1015,1015,701,USA,VS,2014-01-02,2014-07-02,2014-01-02,2014-07-02,2014-07-02T11:45,,,,,,,,,,,,25,NA,2013-12-26,-7,63,YEARS,18-64,F,WHITE,White,HISPANIC OR LATINO,Y,Placebo,Pbo,Placebo,Pbo,Placebo,Placebo,2014-01-02,2014-01-02T00:00:00Z,H,2014-07-02,2014-07-02T23:59:59Z,H,COMPLETED,2014-07-02,,2014-01-02,2014-07-02,182,,,,,2014-01-02,1,Baseline,0,,,Hip Circumference (cm),HIPCIR,4,Anthropometric measurement,1,102,,,102,,,,,,,,,Y,56,HIPCIR,Hip Circumference,,102,cm,102,102,cm,,,Y,3,BASELINE,1,2014-01-02,1,,,,
26,CDISCPILOT01,01-701-1015,1015,701,USA,VS,2014-01-02,2014-07-02,2014-01-02,2014-07-02,2014-07-02T11:45,,,,,,,,,,,,26,NA,2013-12-26,-7,63,YEARS,18-64,F,WHITE,White,HISPANIC OR LATINO,Y,Placebo,Pbo,Placebo,Pbo,Placebo,Placebo,2014-01-02,2014-01-02T00:00:00Z,H,2014-07-02,2014-07-02T23:59:59Z,H,COMPLETED,2014-07-02,,2014-01-02,2014-07-02,182,,,,,2014-01-16,15,Week 2,2,,,Hip Circumference (cm),HIPCIR,4,Anthropometric measurement,1,103,,,102,,,1,0.9803921568627451,,,,,,57,HIPCIR,Hip Circumference,,103,cm,103,103,cm,,,,4,WEEK 2,14,2014-01-16,15,,,,
27,CDISCPILOT01,01-701-1015,1015,701,USA,VS,2014-01-02,2014-07-02,2014-01-02,2014-07-02,2014-07-02T11:45,,,,,,,,,,,,27,NA,2013-12-26,-7,63,YEARS,18-64,F,WHITE,White,HISPANIC OR LATINO,Y,Placebo,Pbo,Placebo,Pbo,Placebo,Placebo,2014-01-02,2014-01-02T00:00:00Z,H,2014-07-02,2014-07-02T23:59:59Z,H,COMPLETED,2014-07-02,,2014-01-02,2014-07-02,182,,,,,2014-01-30,29,Week 4,4,,,Hip Circumference (cm),HIPCIR,4,Anthropometric measurement,1,103,,,102,,,1,0.9803921568627451,,,,,,58,HIPCIR,Hip Circumference,,103,cm,103,103,cm,,,,5,WEEK 4,28,2014-01-30,29,,,,
28,CDISCPILOT01,01-701-1015,1015,701,USA,VS,2014-01-02,2014-07-02,2014-01-02,2014-07-02,2014-07-02T11:45,,,,,,,,,,,,28,NA,2013-12-26,-7,63,YEARS,18-64,F,WHITE,White,HISPANIC OR LATINO,Y,Placebo,Pbo,Placebo,Pbo,Placebo,Placebo,2014-01-02,2014-01-02T00:00:00Z,H,2014-07-02,2014-07-02T23:59:59Z,H,COMPLETED,2014-07-02,,2014-01-02,2014-07-02,182,,,,,2014-02-12,42,Week 6,6,,,Hip Circumference (cm),HIPCIR,4,Anthropometric measurement,1,103,,,102,,,1,0.9803921568627451,,,,,,59,HIPCIR,Hip Circumference,,103,cm,103,103,cm,,,,7,WEEK 6,42,2014-02-12,42,,,,
29,CDISCPILOT01,01-701-1015,1015,701,USA,VS,2014-01-02,2014-07-02,2014-01-02,2014-07-02,2014-07-02T11:45,,,,,,,,,,,,29,NA,2013-12-26,-7,63,YEARS,18-64,F,WHITE,White,HISPANIC OR LATINO,Y,Placebo,Pbo,Placebo,Pbo,Placebo,Placebo,2014-01-02,2014-01-02T00:00:00Z,H,2014-07-02,2014-07-02T23:59:59Z,H,COMPLETED,2014-07-02,,2014-01-02,2014-07-02,182,,,,,2014-03-05,63,Week 8,8,,,Hip Circumference (cm),HIPCIR,4,Anthropometric measurement,1,104,,,102,,,2,1.9607843137254901,,,,,,60,HIPCIR,Hip Circumference,,104,cm,104,104,cm,,,,8,WEEK 8,56,2014-03-05,63,,,,
30,CDISCPILOT01,01-701-1015,1015,701,USA,VS,2014-01-02,2014-07-02,2014-01-02,2014-07-02,2014-07-02T11:45,,,,,,,,,,,,30,NA,2013-12-26,-7,63,YEARS,18-64,F,WHITE,White,HISPANIC OR LATINO,Y,Placebo,Pbo,Placebo,Pbo,Placebo,Placebo,2014-01-02,2014-01-02T00:00:00Z,H,2014-07-02,2014-07-02T23:59:59Z,H,COMPLETED,2014-07-02,,2014-01-02,2014-07-02,182,,,,,2014-03-26,84,Week 12,12,,,Hip Circumference (cm),HIPCIR,4,Anthropometric measurement,1,104.2,,,102,,,2.200000000000003,2.1568627450980418,,,,,,61,HIPCIR,Hip Circumference,,104.2,cm,104.2,104.2,cm,,,,9,WEEK 12,84,2014-03-26,84,,,,
31,CDISCPILOT01,01-701-1015,1015,701,USA,VS,2014-01-02,2014-07-02,2014-01-02,2014-07-02,2014-07-02T11:45,,,,,,,,,,,,31,NA,2013-12-26,-7,63,YEARS,18-64,F,WHITE,White,HISPANIC OR LATINO,Y,Placebo,Pbo,Placebo,Pbo,Placebo,Placebo,2014-01-02,2014-01-02T00:00:00Z,H,2014-07-02,2014-07-02T23:59:59Z,H,COMPLETED,2014-07-02,,2014-01-02,2014-07-02,182,,,,,2014-05-07,126,Week 16,16,,,Hip Circumference (cm),HIPCIR,4,Anthropometric measurement,1,104.7,,,102,,,2.700000000000003,2.6470588235294144,,,,,,62,HIPCIR,Hip Circumference,,104.7,cm,104.7,104.7,cm,,,,10,WEEK 16,112,2014-05-07,126,,,,
32,CDISCPILOT01,01-701-1015,1015,701,USA,VS,2014-01-02,2014-07-02,2014-01-02,2014-07-02,2014-07-02T11:45,,,,,,,,,,,,32,NA,2013-12-26,-7,63,YEARS,18-64,F,WHITE,White,HISPANIC OR LATINO,Y,Placebo,Pbo,Placebo,Pbo,Placebo,Placebo,2014-01-02,2014-01-02T00:00:00Z,H,2014-07-02,2014-07-02T23:59:59Z,H,COMPLETED,2014-07-02,,2014-01-02,2014-07-02,182,,,,,2014-05-21,140,Week 20,20,,,Hip Circumference (cm),HIPCIR,4,Anthropometric measurement,1,105,,,102,,,3,2.941176470588235,,,,,,63,HIPCIR,Hip Circumference,,105,cm,105,105,cm,,,,11,WEEK 20,140,2014-05-21,140,,,,
33,CDISCPILOT01,01-701-1015,1015,701,USA,VS,2014-01-02,2014-07-02,2014-01-02,2014-07-02,2014-07-02T11:45,,,,,,,,,,,,33,NA,2013-12-26,-7,63,YEARS,18-64,F,WHITE,White,HISPANIC OR LATINO,Y,Placebo,Pbo,Placebo,Pbo,Placebo,Placebo,2014-01-02,2014-01-02T00:00:00Z,H,2014-07-02,2014-07-02T23:59:59Z,H,COMPLETED,2014-07-02,,2014-01-02,2014-07-02,182,,,,,2014-06-18,168,Week 24,24,,,Hip Circumference (cm),HIPCIR,4,Anthropometric measurement,1,105.1,,,102,,,3.0999999999999943,3.0392156862745043,,,,,,64,HIPCIR,Hip Circumference,,105.1,cm,105.1,105.1,cm,,,,12,WEEK 24,168,2014-06-18,168,,,,
34,CDISCPILOT01,01-701-1015,1015,701,USA,VS,2014-01-02,2014-07-02,2014-01-02,2014-07-02,2014-07-02T11:45,,,,,,,,,,,,34,NA,2013-12-26,-7,63,YEARS,18-64,F,WHITE,White,HISPANIC OR LATINO,Y,Placebo,Pbo,Placebo,Pbo,Placebo,Placebo,2014-01-02,2014-01-02T00:00:00Z,H,2014-07-02,2014-07-02T23:59:59Z,H,COMPLETED,2014-07-02,,2014-01-02,2014-07-02,182,,,,,2014-07-02,182,Week 26,26,,,Hip Circumference (cm),HIPCIR,4,Anthropometric measurement,1,105.2,,,102,,,3.200000000000003,3.137254901960787,,,,,,65,HIPCIR,Hip Circumference,,105.2,cm,105.2,105.2,cm,,,,13,WEEK 26,182,2014-07-02,182,,,,
35,CDISCPILOT01,01-701-1015,1015,701,USA,VS,2014-01-02,2014-07-02,2014-01-02,2014-07-02,2014-07-02T11:45,,,,,,,,,,,,35,NA,2013-12-26,-7,63,YEARS,18-64,F,WHITE,White,HISPANIC OR LATINO,Y,Placebo,Pbo,Placebo,Pbo,Placebo,Placebo,2014-01-02,2014-01-02T00:00:00Z,H,2014-07-02,2014-07-02T23:59:59Z,H,COMPLETED,2014-07-02,,2014-01-02,2014-07-02,182,,,,,2013-12-26,-7,,,,,Waist Circumference (cm),WSTCIR,5,Anthropometric measurement,1,99,,,99,,,,,,,,,,175,WSTCIR,Waist Circumference,,99,cm,99,99,cm,,,,1,SCREENING 1,-7,2013-12-26,-7,,,,
36,CDISCPILOT01,01-701-1015,1015,701,USA,VS,2014-01-02,2014-07-02,2014-01-02,2014-07-02,2014-07-02T11:45,,,,,,,,,,,,36,NA,2013-12-26,-7,63,YEARS,18-64,F,WHITE,White,HISPANIC OR LATINO,Y,Placebo,Pbo,Placebo,Pbo,Placebo,Placebo,2014-01-02,2014-01-02T00:00:00Z,H,2014-07-02,2014-07-02T23:59:59Z,H,COMPLETED,2014-07-02,,2014-01-02,2014-07-02,182,,,,,2014-01-02,1,Baseline,0,,,Waist Circumference (cm),WSTCIR,5,Anthropometric measurement,1,99,,,99,,,,,,,,,Y,176,WSTCIR,Waist Circumference,,99,cm,99,99,cm,,,Y,3,BASELINE,1,2014-01-02,1,,,,
37,CDISCPILOT01,01-701-1015,1015,701,USA,VS,2014-01-02,2014-07-02,2014-01-02,2014-07-02,2014-07-02T11:45,,,,,,,,,,,,37,NA,2013-12-26,-7,63,YEARS,18-64,F,WHITE,White,HISPANIC OR LATINO,Y,Placebo,Pbo,Placebo,Pbo,Placebo,Placebo,2014-01-02,2014-01-02T00:00:00Z,H,2014-07-02,2014-07-02T23:59:59Z,H,COMPLETED,2014-07-02,,2014-01-02,2014-07-02,182,,,,,2014-01-16,15,Week 2,2,,,Waist Circumference (cm),WSTCIR,5,Anthropometric measurement,1,100,,,99,,,1,1.0101010101010102,,,,,,177,WSTCIR,Waist Circumference,,100,cm,100,100,cm,,,,4,WEEK 2,14,2014-01-16,15,,,,
38,CDISCPILOT01,01-701-1015,1015,701,USA,VS,2014-01-02,2014-07-02,2014-01-02,2014-07-02,2014-07-02T11:45,,,,,,,,,,,,38,NA,2013-12-26,-7,63,YEARS,18-64,F,WHITE,White,HISPANIC OR LATINO,Y,Placebo,Pbo,Placebo,Pbo,Placebo,Placebo,2014-01-02,2014-01-02T00:00:00Z,H,2014-07-02,2014-07-02T23:59:59Z,H,COMPLETED,2014-07-02,,2014-01-02,2014-07-02,182,,,,,2014-01-30,29,Week 4,4,,,Waist Circumference (cm),WSTCIR,5,Anthropometric measurement,1,100.4,,,99,,,1.4000000000000057,1.41414141414142,,,,,,178,WSTCIR,Waist Circumference,,100.4,cm,100.4,100.4,cm,,,,5,WEEK 4,28,2014-01-30,29,,,,
39,CDISCPILOT01,01-701-1015,1015,701,USA,VS,2014-01-02,2014-07-02,2014-01-02,2014-07-02,2014-07-02T11:45,,,,,,,,,,,,39,NA,2013-12-26,-7,63,YEARS,18-64,F,WHITE,White,HISPANIC OR LATINO,Y,Placebo,Pbo,Placebo,Pbo,Placebo,Placebo,2014-01-02,2014-01-02T00:00:00Z,H,2014-07-02,2014-07-02T23:59:59Z,H,COMPLETED,2014-07-02,,2014-01-02,2014-07-02,182,,,,,2014-02-12,42,Week 6,6,,,Waist Circumference (cm),WSTCIR,5,Anthropometric measurement,1,101,,,99,,,2,2.0202020202020203,,,,,,179,WSTCIR,Waist Circumference,,101,cm,101,101,cm,,,,7,WEEK 6,42,2014-02-12,42,,,,
40,CDISCPILOT01,01-701-1015,1015,701,USA,VS,2014-01-02,2014-07-02,2014-01-02,2014-07-02,2014-07-02T11:45,,,,,,,,,,,,40,NA,2013-12-26,-7,63,YEARS,18-64,F,WHITE,White,HISPANIC OR LATINO,Y,Placebo,Pbo,Placebo,Pbo,Placebo,Placebo,2014-01-02,2014-01-02T00:00:00Z,H,2014-07-02,2014-07-02T23:59:59Z,H,COMPLETED,2014-07-02,,2014-01-02,2014-07-02,182,,,,,2014-03-05,63,Week 8,8,,,Waist Circumference (cm),WSTCIR,5,Anthropometric measurement,1,101,,,99,,,2,2.0202020202020203,,,,,,180,WSTCIR,Waist Circumference,,101,cm,101,101,cm,,,,8,WEEK 8,56,2014-03-05,63,,,,
41,CDISCPILOT01,01-701-1015,1015,701,USA,VS,2014-01-02,2014-07-02,2014-01-02,2014-07-02,2014-07-02T11:45,,,,,,,,,,,,41,NA,2013-12-26,-7,63,YEARS,18-64,F,WHITE,White,HISPANIC OR LATINO,Y,Placebo,Pbo,Placebo,Pbo,Placebo,Placebo,2014-01-02,2014-01-02T00:00:00Z,H,2014-07-02,2014-07-02T23:59:59Z,H,COMPLETED,2014-07-02,,2014-01-02,2014-07-02,182,,,,,2014-03-26,84,Week 12,12,,,Waist Circumference (cm),WSTCIR,5,Anthropometric measurement,1,102,,,99,,,3,3.0303030303030303,,,,,,181,WSTCIR,Waist Circumference,,102,cm,102,102,cm,,,,9,WEEK 12,84,2014-03-26,84,,,,
42,CDISCPILOT01,01-701-1015,1015,701,USA,VS,2014-01-02,2014-07-02,2014-01-02,2014-07-02,2014-07-02T11:45,,,,,,,,,,,,42,NA,2013-12-26,-7,63,YEARS,18-64,F,WHITE,White,HISPANIC OR LATINO,Y,Placebo,Pbo,Placebo,Pbo,Placebo,Placebo,2014-01-02,2014-01-02T00:00:00Z,H,2014-07-02,2014-07-02T23:59:59Z,H,COMPLETED,2014-07-02,,2014-01-02,2014-07-02,182,,,,,2014-05-07,126,Week 16,16,,,Waist Circumference (cm),WSTCIR,5,Anthropometric measurement,1,102.5,,,99,,,3.5,3.535353535353535,,,,,,182,WSTCIR,Waist Circumference,,102.5,cm,102.5,102.5,cm,,,,10,WEEK 16,112,2014-05-07,126,,,,
43,CDISCPILOT01,01-701-1015,1015,701,USA,VS,2014-01-02,2014-07-02,2014-01-02,2014-07-02,2014-07-02T11:45,,,,,,,,,,,,43,NA,2013-12-26,-7,63,YEARS,18-64,F,WHITE,White,HISPANIC OR LATINO,Y,Placebo,Pbo,Placebo,Pbo,Placebo,Placebo,2014-01-02,2014-01-02T00:00:00Z,H,2014-07-02,2014-07-02T23:59:59Z,H,COMPLETED,2014-07-02,,2014-01-02,2014-07-02,182,,,,,2014-05-21,140,Week 20,20,,,Waist Circumference (cm),WSTCIR,5,Anthropometric measurement,1,102.7,,,99,,,3.700000000000003,3.73737373737374,,,,,,183,WSTCIR,Waist Circumference,,102.7,cm,102.7,102.7,cm,,,,11,WEEK 20,140,2014-05-21,140,,,,
44,CDISCPILOT01,01-701-1015,1015,701,USA,VS,2014-01-02,2014-07-02,2014-01-02,2014-07-02,2014-07-02T11:45,,,,,,,,,,,,44,NA,2013-12-26,-7,63,YEARS,18-64,F,WHITE,White,HISPANIC OR LATINO,Y,Placebo,Pbo,Placebo,Pbo,Placebo,Placebo,2014-01-02,2014-01-02T00:00:00Z,H,2014-07-02,2014-07-02T23:59:59Z,H,COMPLETED,2014-07-02,,2014-01-02,2014-07-02,182,,,,,2014-06-18,168,Week 24,24,,,Waist Circumference (cm),WSTCIR,5,Anthropometric measurement,1,104,,,99,,,5,5.05050505050505,,,,,,184,WSTCIR,Waist Circumference,,104,cm,104,104,cm,,,,12,WEEK 24,168,2014-06-18,168,,,,
45,CDISCPILOT01,01-701-1015,1015,701,USA,VS,2014-01-02,2014-07-02,2014-01-02,2014-07-02,2014-07-02T11:45,,,,,,,,,,,,45,NA,2013-12-26,-7,63,YEARS,18-64,F,WHITE,White,HISPANIC OR LATINO,Y,Placebo,Pbo,Placebo,Pbo,Placebo,Placebo,2014-01-02,2014-01-02T00:00:00Z,H,2014-07-02,2014-07-02T23:59:59Z,H,COMPLETED,2014-07-02,,2014-01-02,2014-07-02,182,,,,,2014-07-02,182,Week 26,26,,,Waist Circumference (cm),WSTCIR,5,Anthropometric measurement,1,105,,,99,,,6,6.0606060606060606,,,,,,185,WSTCIR,Waist Circumference,,105,cm,105,105,cm,,,,13,WEEK 26,182,2014-07-02,182,,,,
46,CDISCPILOT01,01-701-1015,1015,701,USA,,2014-01-02,2014-07-02,2014-01-02,2014-07-02,2014-07-02T11:45,,,,,,,,,,,,46,NA,2013-12-26,-7,63,YEARS,18-64,F,WHITE,White,HISPANIC OR LATINO,Y,Placebo,Pbo,Placebo,Pbo,Placebo,Placebo,2014-01-02,2014-01-02T00:00:00Z,H,2014-07-02,2014-07-02T23:59:59Z,H,COMPLETED,2014-07-02,,2014-01-02,2014-07-02,182,,,,,2013-12-26,-7,,,,,Waist to Hip Ratio,WAISTHIP,6,Anthropometric measurement,1,0.9705882352941176,,,0.9705882352941176,,,,,,,,,,,,,,,,,,,,,,,,,,,,,,
47,CDISCPILOT01,01-701-1015,1015,701,USA,,2014-01-02,2014-07-02,2014-01-02,2014-07-02,2014-07-02T11:45,,,,,,,,,,,,47,NA,2013-12-26,-7,63,YEARS,18-64,F,WHITE,White,HISPANIC OR LATINO,Y,Placebo,Pbo,Placebo,Pbo,Placebo,Placebo,2014-01-02,2014-01-02T00:00:00Z,H,2014-07-02,2014-07-02T23:59:59Z,H,COMPLETED,2014-07-02,,2014-01-02,2014-07-02,182,,,,,2014-01-02,1,Baseline,0,,,Waist to Hip Ratio,WAISTHIP,6,Anthropometric measurement,1,0.9705882352941176,,,0.9705882352941176,,,,,,,,,Y,,,,,,,,,,,,,,,,,,,,,
48,CDISCPILOT01,01-701-1015,1015,701,USA,,2014-01-02,2014-07-02,2014-01-02,2014-07-02,2014-07-02T11:45,,,,,,,,,,,,48,NA,2013-12-26,-7,63,YEARS,18-64,F,WHITE,White,HISPANIC OR LATINO,Y,Placebo,Pbo,Placebo,Pbo,Placebo,Placebo,2014-01-02,2014-01-02T00:00:00Z,H,2014-07-02,2014-07-02T23:59:59Z,H,COMPLETED,2014-07-02,,2014-01-02,2014-07-02,182,,,,,2014-01-16,15,Week 2,2,,,Waist to Hip Ratio,WAISTHIP,6,Anthropometric measurement,1,0.970873786407767,,,0.9705882352941176,,,2.855511136493627e-4,0.029420417769934336,,,,,,,,,,,,,,,,,,,,,,,,,,
49,CDISCPILOT01,01-701-1015,1015,701,USA,,2014-01-02,2014-07-02,2014-01-02,2014-07-02,2014-07-02T11:45,,,,,,,,,,,,49,NA,2013-12-26,-7,63,YEARS,18-64,F,WHITE,White,HISPANIC OR LATINO,Y,Placebo,Pbo,Placebo,Pbo,Placebo,Placebo,2014-01-02,2014-01-02T00:00:00Z,H,2014-07-02,2014-07-02T23:59:59Z,H,COMPLETED,2014-07-02,,2014-01-02,2014-07-02,182,,,,,2014-01-30,29,Week 4,4,,,Waist to Hip Ratio,WAISTHIP,6,Anthropometric measurement,1,0.9747572815533981,,,0.9705882352941176,,,0.0041690462592804955,0.4295380994410207,,,,,,,,,,,,,,,,,,,,,,,,,,
50,CDISCPILOT01,01-701-1015,1015,701,USA,,2014-01-02,2014-07-02,2014-01-02,2014-07-02,2014-07-02T11:45,,,,,,,,,,,,50,NA,2013-12-26,-7,63,YEARS,18-64,F,WHITE,White,HISPANIC OR LATINO,Y,Placebo,Pbo,Placebo,Pbo,Placebo,Placebo,2014-01-02,2014-01-02T00:00:00Z,H,2014-07-02,2014-07-02T23:59:59Z,H,COMPLETED,2014-07-02,,2014-01-02,2014-07-02,182,,,,,2014-02-12,42,Week 6,6,,,Waist to Hip Ratio,WAISTHIP,6,Anthropometric measurement,1,0.9805825242718447,,,0.9705882352941176,,,0.009994288977727028,1.0297146219476332,,,,,,,,,,,,,,,,,,,,,,,,,,
51,CDISCPILOT01,01-701-1015,1015,701,USA,,2014-01-02,2014-07-02,2014-01-02,2014-07-02,2014-07-02T11:45,,,,,,,,,,,,51,NA,2013-12-26,-7,63,YEARS,18-64,F,WHITE,White,HISPANIC OR LATINO,Y,Placebo,Pbo,Placebo,Pbo,Placebo,Placebo,2014-01-02,2014-01-02T00:00:00Z,H,2014-07-02,2014-07-02T23:59:59Z,H,COMPLETED,2014-07-02,,2014-01-02,2014-07-02,182,,,,,2014-03-05,63,Week 8,8,,,Waist to Hip Ratio,WAISTHIP,6,Anthropometric measurement,1,0.9711538461538461,,,0.9705882352941176,,,5.656108597285048e-4,0.05827505827505807,,,,,,,,,,,,,,,,,,,,,,,,,,
52,CDISCPILOT01,01-701-1015,1015,701,USA,,2014-01-02,2014-07-02,2014-01-02,2014-07-02,2014-07-02T11:45,,,,,,,,,,,,52,NA,2013-12-26,-7,63,YEARS,18-64,F,WHITE,White,HISPANIC OR LATINO,Y,Placebo,Pbo,Placebo,Pbo,Placebo,Placebo,2014-01-02,2014-01-02T00:00:00Z,H,2014-07-02,2014-07-02T23:59:59Z,H,COMPLETED,2014-07-02,,2014-01-02,2014-07-02,182,,,,,2014-03-26,84,Week 12,12,,,Waist to Hip Ratio,WAISTHIP,6,Anthropometric measurement,1,0.9788867562380038,,,0.9705882352941176,,,0.008298520943886167,0.8549991275519081,,,,,,,,,,,,,,,,,,,,,,,,,,
53,CDISCPILOT01,01-701-1015,1015,701,USA,,2014-01-02,2014-07-02,2014-01-02,2014-07-02,2014-07-02T11:45,,,,,,,,,,,,53,NA,2013-12-26,-7,63,YEARS,18-64,F,WHITE,White,HISPANIC OR LATINO,Y,Placebo,Pbo,Placebo,Pbo,Placebo,Placebo,2014-01-02,2014-01-02T00:00:00Z,H,2014-07-02,2014-07-02T23:59:59Z,H,COMPLETED,2014-07-02,,2014-01-02,2014-07-02,182,,,,,2014-05-07,126,Week 16,16,,,Waist to Hip Ratio,WAISTHIP,6,Anthropometric measurement,1,0.9789875835721108,,,0.9705882352941176,,,0.008399348277993157,0.8653873983386888,,,,,,,,,,,,,,,,,,,,,,,,,,
54,CDISCPILOT01,01-701-1015,1015,701,USA,,2014-01-02,2014-07-02,2014-01-02,2014-07-02,2014-07-02T11:45,,,,,,,,,,,,54,NA,2013-12-26,-7,63,YEARS,18-64,F,WHITE,White,HISPANIC OR LATINO,Y,Placebo,Pbo,Placebo,Pbo,Placebo,Placebo,2014-01-02,2014-01-02T00:00:00Z,H,2014-07-02,2014-07-02T23:59:59Z,H,COMPLETED,2014-07-02,,2014-01-02,2014-07-02,182,,,,,2014-05-21,140,Week 20,20,,,Waist to Hip Ratio,WAISTHIP,6,Anthropometric measurement,1,0.9780952380952381,,,0.9705882352941176,,,0.007507002801120488,0.7734487734487776,,,,,,,,,,,,,,,,,,,,,,,,,,
55,CDISCPILOT01,01-701-1015,1015,701,USA,,2014-01-02,2014-07-02,2014-01-02,2014-07-02,2014-07-02T11:45,,,,,,,,,,,,55,NA,2013-12-26,-7,63,YEARS,18-64,F,WHITE,White,HISPANIC OR LATINO,Y,Placebo,Pbo,Placebo,Pbo,Placebo,Placebo,2014-01-02,2014-01-02T00:00:00Z,H,2014-07-02,2014-07-02T23:59:59Z,H,COMPLETED,2014-07-02,,2014-01-02,2014-07-02,182,,,,,2014-06-18,168,Week 24,24,,,Waist to Hip Ratio,WAISTHIP,6,Anthropometric measurement,1,0.9895337773549001,,,0.9705882352941176,,,0.018945542060782472,1.9519649395957697,,,,,,,,,,,,,,,,,,,,,,,,,,
56,CDISCPILOT01,01-701-1015,1015,701,USA,,2014-01-02,2014-07-02,2014-01-02,2014-07-02,2014-07-02T11:45,,,,,,,,,,,,56,NA,2013-12-26,-7,63,YEARS,18-64,F,WHITE,White,HISPANIC OR LATINO,Y,Placebo,Pbo,Placebo,Pbo,Placebo,Placebo,2014-01-02,2014-01-02T00:00:00Z,H,2014-07-02,2014-07-02T23:59:59Z,H,COMPLETED,2014-07-02,,2014-01-02,2014-07-02,182,,,,,2014-07-02,182,Week 26,26,,,Waist to Hip Ratio,WAISTHIP,6,Anthropometric measurement,1,0.9980988593155893,,,0.9705882352941176,,,0.02751062402147164,2.834427929484957,,,,,,,,,,,,,,,,,,,,,,,,,,
57,CDISCPILOT01,01-701-1015,1015,701,USA,VS,2014-01-02,2014-07-02,2014-01-02,2014-07-02,2014-07-02T11:45,,,,,,,,,,,,57,NA,2013-12-26,-7,63,YEARS,18-64,F,WHITE,White,HISPANIC OR LATINO,Y,Placebo,Pbo,Placebo,Pbo,Placebo,Placebo,2014-01-02,2014-01-02T00:00:00Z,H,2014-07-02,2014-07-02T23:59:59Z,H,COMPLETED,2014-07-02,,2014-01-02,2014-07-02,182,,,,,2013-12-26,-7,,,AFTER LYING DOWN FOR 5 MINUTES,815,Diastolic Blood Pressure (mmHg),DIABP,7,Vital Sign,2,64,,,61,,,,,,,,,,12,DIABP,Diastolic Blood Pressure,SUPINE,64,mmHg,64,64,mmHg,,,,1,SCREENING 1,-7,2013-12-26,-7,AFTER LYING DOWN FOR 5 MINUTES,815,PT5M,PATIENT SUPINE
58,CDISCPILOT01,01-701-1015,1015,701,USA,VS,2014-01-02,2014-07-02,2014-01-02,2014-07-02,2014-07-02T11:45,,,,,,,,,,,,58,NA,2013-12-26,-7,63,YEARS,18-64,F,WHITE,White,HISPANIC OR LATINO,Y,Placebo,Pbo,Placebo,Pbo,Placebo,Placebo,2014-01-02,2014-01-02T00:00:00Z,H,2014-07-02,2014-07-02T23:59:59Z,H,COMPLETED,2014-07-02,,2014-01-02,2014-07-02,182,,,,,2013-12-26,-7,,,AFTER STANDING FOR 1 MINUTE,816,Diastolic Blood Pressure (mmHg),DIABP,7,Vital Sign,2,83,,,61,,,,,,,,,,13,DIABP,Diastolic Blood Pressure,STANDING,83,mmHg,83,83,mmHg,,,,1,SCREENING 1,-7,2013-12-26,-7,AFTER STANDING FOR 1 MINUTE,816,PT1M,PATIENT STANDING
59,CDISCPILOT01,01-701-1015,1015,701,USA,VS,2014-01-02,2014-07-02,2014-01-02,2014-07-02,2014-07-02T11:45,,,,,,,,,,,,59,NA,2013-12-26,-7,63,YEARS,18-64,F,WHITE,White,HISPANIC OR LATINO,Y,Placebo,Pbo,Placebo,Pbo,Placebo,Placebo,2014-01-02,2014-01-02T00:00:00Z,H,2014-07-02,2014-07-02T23:59:59Z,H,COMPLETED,2014-07-02,,2014-01-02,2014-07-02,182,,,,,2013-12-26,-7,,,AFTER STANDING FOR 3 MINUTES,817,Diastolic Blood Pressure (mmHg),DIABP,7,Vital Sign,2,57,,,61,,,,,,,,,,14,DIABP,Diastolic Blood Pressure,STANDING,57,mmHg,57,57,mmHg,,,,1,SCREENING 1,-7,2013-12-26,-7,AFTER STANDING FOR 3 MINUTES,817,PT3M,PATIENT STANDING
60,CDISCPILOT01,01-701-1015,1015,701,USA,VS,2014-01-02,2014-07-02,2014-01-02,2014-07-02,2014-07-02T11:45,,,,,,,,,,,,60,NA,2013-12-26,-7,63,YEARS,18-64,F,WHITE,White,HISPANIC OR LATINO,Y,Placebo,Pbo,Placebo,Pbo,Placebo,Placebo,2014-01-02,2014-01-02T00:00:00Z,H,2014-07-02,2014-07-02T23:59:59Z,H,COMPLETED,2014-07-02,,2014-01-02,2014-07-02,182,,,,,2013-12-31,-2,,,AFTER LYING DOWN FOR 5 MINUTES,815,Diastolic Blood Pressure (mmHg),DIABP,7,Vital Sign,2,68,,,61,,,,,,,,,,15,DIABP,Diastolic Blood Pressure,SUPINE,68,mmHg,68,68,mmHg,,,,2,SCREENING 2,-1,2013-12-31,-2,AFTER LYING DOWN FOR 5 MINUTES,815,PT5M,PATIENT SUPINE
61,CDISCPILOT01,01-701-1015,1015,701,USA,VS,2014-01-02,2014-07-02,2014-01-02,2014-07-02,2014-07-02T11:45,,,,,,,,,,,,61,NA,2013-12-26,-7,63,YEARS,18-64,F,WHITE,White,HISPANIC OR LATINO,Y,Placebo,Pbo,Placebo,Pbo,Placebo,Placebo,2014-01-02,2014-01-02T00:00:00Z,H,2014-07-02,2014-07-02T23:59:59Z,H,COMPLETED,2014-07-02,,2014-01-02,2014-07-02,182,,,,,2013-12-31,-2,,,AFTER STANDING FOR 1 MINUTE,816,Diastolic Blood Pressure (mmHg),DIABP,7,Vital Sign,2,59,,,61,,,,,,,,,,16,DIABP,Diastolic Blood Pressure,STANDING,59,mmHg,59,59,mmHg,,,,2,SCREENING 2,-1,2013-12-31,-2,AFTER STANDING FOR 1 MINUTE,816,PT1M,PATIENT STANDING
62,CDISCPILOT01,01-701-1015,1015,701,USA,VS,2014-01-02,2014-07-02,2014-01-02,2014-07-02,2014-07-02T11:45,,,,,,,,,,,,62,NA,2013-12-26,-7,63,YEARS,18-64,F,WHITE,White,HISPANIC OR LATINO,Y,Placebo,Pbo,Placebo,Pbo,Placebo,Placebo,2014-01-02,2014-01-02T00:00:00Z,H,2014-07-02,2014-07-02T23:59:59Z,H,COMPLETED,2014-07-02,,2014-01-02,2014-07-02,182,,,,,2013-12-31,-2,,,AFTER STANDING FOR 3 MINUTES,817,Diastolic Blood Pressure (mmHg),DIABP,7,Vital Sign,2,71,,,61,,,,,,,,,,17,DIABP,Diastolic Blood Pressure,STANDING,71,mmHg,71,71,mmHg,,,,2,SCREENING 2,-1,2013-12-31,-2,AFTER STANDING FOR 3 MINUTES,817,PT3M,PATIENT STANDING
63,CDISCPILOT01,01-701-1015,1015,701,USA,VS,2014-01-02,2014-07-02,2014-01-02,2014-07-02,2014-07-02T11:45,,,,,,,,,,,,63,NA,2013-12-26,-7,63,YEARS,18-64,F,WHITE,White,HISPANIC OR LATINO,Y,Placebo,Pbo,Placebo,Pbo,Placebo,Placebo,2014-01-02,2014-01-02T00:00:00Z,H,2014-07-02,2014-07-02T23:59:59Z,H,COMPLETED,2014-07-02,,2014-01-02,2014-07-02,182,,,,,2014-01-02,1,Baseline,0,AFTER LYING DOWN FOR 5 MINUTES,815,Diastolic Blood Pressure (mmHg),DIABP,7,Vital Sign,2,56,,,61,,,,,,,,,,18,DIABP,Diastolic Blood Pressure,SUPINE,56,mmHg,56,56,mmHg,,,Y,3,BASELINE,1,2014-01-02,1,AFTER LYING DOWN FOR 5 MINUTES,815,PT5M,PATIENT SUPINE
64,CDISCPILOT01,01-701-1015,1015,701,USA,VS,2014-01-02,2014-07-02,2014-01-02,2014-07-02,2014-07-02T11:45,,,,,,,,,,,,64,NA,2013-12-26,-7,63,YEARS,18-64,F,WHITE,White,HISPANIC OR LATINO,Y,Placebo,Pbo,Placebo,Pbo,Placebo,Placebo,2014-01-02,2014-01-02T00:00:00Z,H,2014-07-02,2014-07-02T23:59:59Z,H,COMPLETED,2014-07-02,,2014-01-02,2014-07-02,182,,,,,2014-01-02,1,Baseline,0,AFTER STANDING FOR 1 MINUTE,816,Diastolic Blood Pressure (mmHg),DIABP,7,Vital Sign,2,51,,,61,,,,,,,,,,19,DIABP,Diastolic Blood Pressure,STANDING,51,mmHg,51,51,mmHg,,,Y,3,BASELINE,1,2014-01-02,1,AFTER STANDING FOR 1 MINUTE,816,PT1M,PATIENT STANDING
65,CDISCPILOT01,01-701-1015,1015,701,USA,VS,2014-01-02,2014-07-02,2014-01-02,2014-07-02,2014-07-02T11:45,,,,,,,,,,,,65,NA,2013-12-26,-7,63,YEARS,18-64,F,WHITE,White,HISPANIC OR LATINO,Y,Placebo,Pbo,Placebo,Pbo,Placebo,Placebo,2014-01-02,2014-01-02T00:00:00Z,H,2014-07-02,2014-07-02T23:59:59Z,H,COMPLETED,2014-07-02,,2014-01-02,2014-07-02,182,,,,,2014-01-02,1,Baseline,0,AFTER STANDING FOR 3 MINUTES,817,Diastolic Blood Pressure (mmHg),DIABP,7,Vital Sign,2,61,,,61,,,,,,,,,Y,20,DIABP,Diastolic Blood Pressure,STANDING,61,mmHg,61,61,mmHg,,,Y,3,BASELINE,1,2014-01-02,1,AFTER STANDING FOR 3 MINUTES,817,PT3M,PATIENT STANDING
66,CDISCPILOT01,01-701-1015,1015,701,USA,VS,2014-01-02,2014-07-02,2014-01-02,2014-07-02,2014-07-02T11:45,,,,,,,,,,,,66,NA,2013-12-26,-7,63,YEARS,18-64,F,WHITE,White,HISPANIC OR LATINO,Y,Placebo,Pbo,Placebo,Pbo,Placebo,Placebo,2014-01-02,2014-01-02T00:00:00Z,H,2014-07-02,2014-07-02T23:59:59Z,H,COMPLETED,2014-07-02,,2014-01-02,2014-07-02,182,,,,,2014-01-14,13,,,AFTER LYING DOWN FOR 5 MINUTES,815,Diastolic Blood Pressure (mmHg),DIABP,7,Vital Sign,2,67,,,61,,,,,,,,,,21,DIABP,Diastolic Blood Pressure,SUPINE,67,mmHg,67,67,mmHg,,,,3.5,AMBUL ECG PLACEMENT,13,2014-01-14,13,AFTER LYING DOWN FOR 5 MINUTES,815,PT5M,PATIENT SUPINE
67,CDISCPILOT01,01-701-1015,1015,701,USA,VS,2014-01-02,2014-07-02,2014-01-02,2014-07-02,2014-07-02T11:45,,,,,,,,,,,,67,NA,2013-12-26,-7,63,YEARS,18-64,F,WHITE,White,HISPANIC OR LATINO,Y,Placebo,Pbo,Placebo,Pbo,Placebo,Placebo,2014-01-02,2014-01-02T00:00:00Z,H,2014-07-02,2014-07-02T23:59:59Z,H,COMPLETED,2014-07-02,,2014-01-02,2014-07-02,182,,,,,2014-01-14,13,,,AFTER STANDING FOR 1 MINUTE,816,Diastolic Blood Pressure (mmHg),DIABP,7,Vital Sign,2,61,,,61,,,,,,,,,,22,DIABP,Diastolic Blood Pressure,STANDING,61,mmHg,61,61,mmHg,,,,3.5,AMBUL ECG PLACEMENT,13,2014-01-14,13,AFTER STANDING FOR 1 MINUTE,816,PT1M,PATIENT STANDING
68,CDISCPILOT01,01-701-1015,1015,701,USA,VS,2014-01-02,2014-07-02,2014-01-02,2014-07-02,2014-07-02T11:45,,,,,,,,,,,,68,NA,2013-12-26,-7,63,YEARS,18-64,F,WHITE,White,HISPANIC OR LATINO,Y,Placebo,Pbo,Placebo,Pbo,Placebo,Placebo,2014-01-02,2014-01-02T00:00:00Z,H,2014-07-02,2014-07-02T23:59:59Z,H,COMPLETED,2014-07-02,,2014-01-02,2014-07-02,182,,,,,2014-01-14,13,,,AFTER STANDING FOR 3 MINUTES,817,Diastolic Blood Pressure (mmHg),DIABP,7,Vital Sign,2,65,,,61,,,,,,,,,,23,DIABP,Diastolic Blood Pressure,STANDING,65,mmHg,65,65,mmHg,,,,3.5,AMBUL ECG PLACEMENT,13,2014-01-14,13,AFTER STANDING FOR 3 MINUTES,817,PT3M,PATIENT STANDING
69,CDISCPILOT01,01-701-1015,1015,701,USA,VS,2014-01-02,2014-07-02,2014-01-02,2014-07-02,2014-07-02T11:45,,,,,,,,,,,,69,NA,2013-12-26,-7,63,YEARS,18-64,F,WHITE,White,HISPANIC OR LATINO,Y,Placebo,Pbo,Placebo,Pbo,Placebo,Placebo,2014-01-02,2014-01-02T00:00:00Z,H,2014-07-02,2014-07-02T23:59:59Z,H,COMPLETED,2014-07-02,,2014-01-02,2014-07-02,182,,,,,2014-01-16,15,Week 2,2,AFTER LYING DOWN FOR 5 MINUTES,815,Diastolic Blood Pressure (mmHg),DIABP,7,Vital Sign,2,56,,,61,,,-5,-8.19672131147541,,,,,,24,DIABP,Diastolic Blood Pressure,SUPINE,56,mmHg,56,56,mmHg,,,,4,WEEK 2,14,2014-01-16,15,AFTER LYING DOWN FOR 5 MINUTES,815,PT5M,PATIENT SUPINE
70,CDISCPILOT01,01-701-1015,1015,701,USA,VS,2014-01-02,2014-07-02,2014-01-02,2014-07-02,2014-07-02T11:45,,,,,,,,,,,,70,NA,2013-12-26,-7,63,YEARS,18-64,F,WHITE,White,HISPANIC OR LATINO,Y,Placebo,Pbo,Placebo,Pbo,Placebo,Placebo,2014-01-02,2014-01-02T00:00:00Z,H,2014-07-02,2014-07-02T23:59:59Z,H,COMPLETED,2014-07-02,,2014-01-02,2014-07-02,182,,,,,2014-01-16,15,Week 2,2,AFTER STANDING FOR 1 MINUTE,816,Diastolic Blood Pressure (mmHg),DIABP,7,Vital Sign,2,50,,,61,,,-11,-18.0327868852459,,,,,,25,DIABP,Diastolic Blood Pressure,STANDING,50,mmHg,50,50,mmHg,,,,4,WEEK 2,14,2014-01-16,15,AFTER STANDING FOR 1 MINUTE,816,PT1M,PATIENT STANDING
71,CDISCPILOT01,01-701-1015,1015,701,USA,VS,2014-01-02,2014-07-02,2014-01-02,2014-07-02,2014-07-02T11:45,,,,,,,,,,,,71,NA,2013-12-26,-7,63,YEARS,18-64,F,WHITE,White,HISPANIC OR LATINO,Y,Placebo,Pbo,Placebo,Pbo,Placebo,Placebo,2014-01-02,2014-01-02T00:00:00Z,H,2014-07-02,2014-07-02T23:59:59Z,H,COMPLETED,2014-07-02,,2014-01-02,2014-07-02,182,,,,,2014-01-16,15,Week 2,2,AFTER STANDING FOR 3 MINUTES,817,Diastolic Blood Pressure (mmHg),DIABP,7,Vital Sign,2,54,,,61,,,-7,-11.475409836065573,,,,,,26,DIABP,Diastolic Blood Pressure,STANDING,54,mmHg,54,54,mmHg,,,,4,WEEK 2,14,2014-01-16,15,AFTER STANDING FOR 3 MINUTES,817,PT3M,PATIENT STANDING
72,CDISCPILOT01,01-701-1015,1015,701,USA,VS,2014-01-02,2014-07-02,2014-01-02,2014-07-02,2014-07-02T11:45,,,,,,,,,,,,72,NA,2013-12-26,-7,63,YEARS,18-64,F,WHITE,White,HISPANIC OR LATINO,Y,Placebo,Pbo,Placebo,Pbo,Placebo,Placebo,2014-01-02,2014-01-02T00:00:00Z,H,2014-07-02,2014-07-02T23:59:59Z,H,COMPLETED,2014-07-02,,2014-01-02,2014-07-02,182,,,,,2014-01-30,29,Week 4,4,AFTER LYING DOWN FOR 5 MINUTES,815,Diastolic Blood Pressure (mmHg),DIABP,7,Vital Sign,2,64,,,61,,,3,4.918032786885246,,,,,,27,DIABP,Diastolic Blood Pressure,SUPINE,64,mmHg,64,64,mmHg,,,,5,WEEK 4,28,2014-01-30,29,AFTER LYING DOWN FOR 5 MINUTES,815,PT5M,PATIENT SUPINE
73,CDISCPILOT01,01-701-1015,1015,701,USA,VS,2014-01-02,2014-07-02,2014-01-02,2014-07-02,2014-07-02T11:45,,,,,,,,,,,,73,NA,2013-12-26,-7,63,YEARS,18-64,F,WHITE,White,HISPANIC OR LATINO,Y,Placebo,Pbo,Placebo,Pbo,Placebo,Placebo,2014-01-02,2014-01-02T00:00:00Z,H,2014-07-02,2014-07-02T23:59:59Z,H,COMPLETED,2014-07-02,,2014-01-02,2014-07-02,182,,,,,2014-01-30,29,Week 4,4,AFTER STANDING FOR 1 MINUTE,816,Diastolic Blood Pressure (mmHg),DIABP,7,Vital Sign,2,55,,,61,,,-6,-9.836065573770492,,,,,,28,DIABP,Diastolic Blood Pressure,STANDING,55,mmHg,55,55,mmHg,,,,5,WEEK 4,28,2014-01-30,29,AFTER STANDING FOR 1 MINUTE,816,PT1M,PATIENT STANDING
74,CDISCPILOT01,01-701-1015,1015,701,USA,VS,2014-01-02,2014-07-02,2014-01-02,2014-07-02,2014-07-02T11:45,,,,,,,,,,,,74,NA,2013-12-26,-7,63,YEARS,18-64,F,WHITE,White,HISPANIC OR LATINO,Y,Placebo,Pbo,Placebo,Pbo,Placebo,Placebo,2014-01-02,2014-01-02T00:00:00Z,H,2014-07-02,2014-07-02T23:59:59Z,H,COMPLETED,2014-07-02,,2014-01-02,2014-07-02,182,,,,,2014-01-30,29,Week 4,4,AFTER STANDING FOR 3 MINUTES,817,Diastolic Blood Pressure (mmHg),DIABP,7,Vital Sign,2,53,,,61,,,-8,-13.114754098360656,,,,,,29,DIABP,Diastolic Blood Pressure,STANDING,53,mmHg,53,53,mmHg,,,,5,WEEK 4,28,2014-01-30,29,AFTER STANDING FOR 3 MINUTES,817,PT3M,PATIENT STANDING
75,CDISCPILOT01,01-701-1015,1015,701,USA,VS,2014-01-02,2014-07-02,2014-01-02,2014-07-02,2014-07-02T11:45,,,,,,,,,,,,75,NA,2013-12-26,-7,63,YEARS,18-64,F,WHITE,White,HISPANIC OR LATINO,Y,Placebo,Pbo,Placebo,Pbo,Placebo,Placebo,2014-01-02,2014-01-02T00:00:00Z,H,2014-07-02,2014-07-02T23:59:59Z,H,COMPLETED,2014-07-02,,2014-01-02,2014-07-02,182,,,,,2014-02-01,31,,,AFTER LYING DOWN FOR 5 MINUTES,815,Diastolic Blood Pressure (mmHg),DIABP,7,Vital Sign,2,72,,,61,,,,,,,,,,30,DIABP,Diastolic Blood Pressure,SUPINE,72,mmHg,72,72,mmHg,,,,6,AMBUL ECG REMOVAL,30,2014-02-01,31,AFTER LYING DOWN FOR 5 MINUTES,815,PT5M,PATIENT SUPINE
76,CDISCPILOT01,01-701-1015,1015,701,USA,VS,2014-01-02,2014-07-02,2014-01-02,2014-07-02,2014-07-02T11:45,,,,,,,,,,,,76,NA,2013-12-26,-7,63,YEARS,18-64,F,WHITE,White,HISPANIC OR LATINO,Y,Placebo,Pbo,Placebo,Pbo,Placebo,Placebo,2014-01-02,2014-01-02T00:00:00Z,H,2014-07-02,2014-07-02T23:59:59Z,H,COMPLETED,2014-07-02,,2014-01-02,2014-07-02,182,,,,,2014-02-01,31,,,AFTER STANDING FOR 1 MINUTE,816,Diastolic Blood Pressure (mmHg),DIABP,7,Vital Sign,2,61,,,61,,,,,,,,,,31,DIABP,Diastolic Blood Pressure,STANDING,61,mmHg,61,61,mmHg,,,,6,AMBUL ECG REMOVAL,30,2014-02-01,31,AFTER STANDING FOR 1 MINUTE,816,PT1M,PATIENT STANDING
77,CDISCPILOT01,01-701-1015,1015,701,USA,VS,2014-01-02,2014-07-02,2014-01-02,2014-07-02,2014-07-02T11:45,,,,,,,,,,,,77,NA,2013-12-26,-7,63,YEARS,18-64,F,WHITE,White,HISPANIC OR LATINO,Y,Placebo,Pbo,Placebo,Pbo,Placebo,Placebo,2014-01-02,2014-01-02T00:00:00Z,H,2014-07-02,2014-07-02T23:59:59Z,H,COMPLETED,2014-07-02,,2014-01-02,2014-07-02,182,,,,,2014-02-01,31,,,AFTER STANDING FOR 3 MINUTES,817,Diastolic Blood Pressure (mmHg),DIABP,7,Vital Sign,2,53,,,61,,,,,,,,,,32,DIABP,Diastolic Blood Pressure,STANDING,53,mmHg,53,53,mmHg,,,,6,AMBUL ECG REMOVAL,30,2014-02-01,31,AFTER STANDING FOR 3 MINUTES,817,PT3M,PATIENT STANDING
78,CDISCPILOT01,01-701-1015,1015,701,USA,VS,2014-01-02,2014-07-02,2014-01-02,2014-07-02,2014-07-02T11:45,,,,,,,,,,,,78,NA,2013-12-26,-7,63,YEARS,18-64,F,WHITE,White,HISPANIC OR LATINO,Y,Placebo,Pbo,Placebo,Pbo,Placebo,Placebo,2014-01-02,2014-01-02T00:00:00Z,H,2014-07-02,2014-07-02T23:59:59Z,H,COMPLETED,2014-07-02,,2014-01-02,2014-07-02,182,,,,,2014-02-12,42,Week 6,6,AFTER LYING DOWN FOR 5 MINUTES,815,Diastolic Blood Pressure (mmHg),DIABP,7,Vital Sign,2,55,,,61,,,-6,-9.836065573770492,,,,,,33,DIABP,Diastolic Blood Pressure,SUPINE,55,mmHg,55,55,mmHg,,,,7,WEEK 6,42,2014-02-12,42,AFTER LYING DOWN FOR 5 MINUTES,815,PT5M,PATIENT SUPINE
79,CDISCPILOT01,01-701-1015,1015,701,USA,VS,2014-01-02,2014-07-02,2014-01-02,2014-07-02,2014-07-02T11:45,,,,,,,,,,,,79,NA,2013-12-26,-7,63,YEARS,18-64,F,WHITE,White,HISPANIC OR LATINO,Y,Placebo,Pbo,Placebo,Pbo,Placebo,Placebo,2014-01-02,2014-01-02T00:00:00Z,H,2014-07-02,2014-07-02T23:59:59Z,H,COMPLETED,2014-07-02,,2014-01-02,2014-07-02,182,,,,,2014-02-12,42,Week 6,6,AFTER STANDING FOR 1 MINUTE,816,Diastolic Blood Pressure (mmHg),DIABP,7,Vital Sign,2,63,,,61,,,2,3.278688524590164,,,,,,34,DIABP,Diastolic Blood Pressure,STANDING,63,mmHg,63,63,mmHg,,,,7,WEEK 6,42,2014-02-12,42,AFTER STANDING FOR 1 MINUTE,816,PT1M,PATIENT STANDING
80,CDISCPILOT01,01-701-1015,1015,701,USA,VS,2014-01-02,2014-07-02,2014-01-02,2014-07-02,2014-07-02T11:45,,,,,,,,,,,,80,NA,2013-12-26,-7,63,YEARS,18-64,F,WHITE,White,HISPANIC OR LATINO,Y,Placebo,Pbo,Placebo,Pbo,Placebo,Placebo,2014-01-02,2014-01-02T00:00:00Z,H,2014-07-02,2014-07-02T23:59:59Z,H,COMPLETED,2014-07-02,,2014-01-02,2014-07-02,182,,,,,2014-02-12,42,Week 6,6,AFTER STANDING FOR 3 MINUTES,817,Diastolic Blood Pressure (mmHg),DIABP,7,Vital Sign,2,60,,,61,,,-1,-1.639344262295082,,,,,,35,DIABP,Diastolic Blood Pressure,STANDING,60,mmHg,60,60,mmHg,,,,7,WEEK 6,42,2014-02-12,42,AFTER STANDING FOR 3 MINUTES,817,PT3M,PATIENT STANDING
81,CDISCPILOT01,01-701-1015,1015,701,USA,VS,2014-01-02,2014-07-02,2014-01-02,2014-07-02,2014-07-02T11:45,,,,,,,,,,,,81,NA,2013-12-26,-7,63,YEARS,18-64,F,WHITE,White,HISPANIC OR LATINO,Y,Placebo,Pbo,Placebo,Pbo,Placebo,Placebo,2014-01-02,2014-01-02T00:00:00Z,H,2014-07-02,2014-07-02T23:59:59Z,H,COMPLETED,2014-07-02,,2014-01-02,2014-07-02,182,,,,,2014-03-05,63,Week 8,8,AFTER LYING DOWN FOR 5 MINUTES,815,Diastolic Blood Pressure (mmHg),DIABP,7,Vital Sign,2,67,,,61,,,6,9.836065573770492,,,,,,36,DIABP,Diastolic Blood Pressure,SUPINE,67,mmHg,67,67,mmHg,,,,8,WEEK 8,56,2014-03-05,63,AFTER LYING DOWN FOR 5 MINUTES,815,PT5M,PATIENT SUPINE
82,CDISCPILOT01,01-701-1015,1015,701,USA,VS,2014-01-02,2014-07-02,2014-01-02,2014-07-02,2014-07-02T11:45,,,,,,,,,,,,82,NA,2013-12-26,-7,63,YEARS,18-64,F,WHITE,White,HISPANIC OR LATINO,Y,Placebo,Pbo,Placebo,Pbo,Placebo,Placebo,2014-01-02,2014-01-02T00:00:00Z,H,2014-07-02,2014-07-02T23:59:59Z,H,COMPLETED,2014-07-02,,2014-01-02,2014-07-02,182,,,,,2014-03-05,63,Week 8,8,AFTER STANDING FOR 1 MINUTE,816,Diastolic Blood Pressure (mmHg),DIABP,7,Vital Sign,2,62,,,61,,,1,1.639344262295082,,,,,,37,DIABP,Diastolic Blood Pressure,STANDING,62,mmHg,62,62,mmHg,,,,8,WEEK 8,56,2014-03-05,63,AFTER STANDING FOR 1 MINUTE,816,PT1M,PATIENT STANDING
83,CDISCPILOT01,01-701-1015,1015,701,USA,VS,2014-01-02,2014-07-02,2014-01-02,2014-07-02,2014-07-02T11:45,,,,,,,,,,,,83,NA,2013-12-26,-7,63,YEARS,18-64,F,WHITE,White,HISPANIC OR LATINO,Y,Placebo,Pbo,Placebo,Pbo,Placebo,Placebo,2014-01-02,2014-01-02T00:00:00Z,H,2014-07-02,2014-07-02T23:59:59Z,H,COMPLETED,2014-07-02,,2014-01-02,2014-07-02,182,,,,,2014-03-05,63,Week 8,8,AFTER STANDING FOR 3 MINUTES,817,Diastolic Blood Pressure (mmHg),DIABP,7,Vital Sign,2,71,,,61,,,10,16.39344262295082,,,,,,38,DIABP,Diastolic Blood Pressure,STANDING,71,mmHg,71,71,mmHg,,,,8,WEEK 8,56,2014-03-05,63,AFTER STANDING FOR 3 MINUTES,817,PT3M,PATIENT STANDING
84,CDISCPILOT01,01-701-1015,1015,701,USA,VS,2014-01-02,2014-07-02,2014-01-02,2014-07-02,2014-07-02T11:45,,,,,,,,,,,,84,NA,2013-12-26,-7,63,YEARS,18-64,F,WHITE,White,HISPANIC OR LATINO,Y,Placebo,Pbo,Placebo,Pbo,Placebo,Placebo,2014-01-02,2014-01-02T00:00:00Z,H,2014-07-02,2014-07-02T23:59:59Z,H,COMPLETED,2014-07-02,,2014-01-02,2014-07-02,182,,,,,2014-03-26,84,Week 12,12,AFTER LYING DOWN FOR 5 MINUTES,815,Diastolic Blood Pressure (mmHg),DIABP,7,Vital Sign,2,68,,,61,,,7,11.475409836065573,,,,,,39,DIABP,Diastolic Blood Pressure,SUPINE,68,mmHg,68,68,mmHg,,,,9,WEEK 12,84,2014-03-26,84,AFTER LYING DOWN FOR 5 MINUTES,815,PT5M,PATIENT SUPINE
85,CDISCPILOT01,01-701-1015,1015,701,USA,VS,2014-01-02,2014-07-02,2014-01-02,2014-07-02,2014-07-02T11:45,,,,,,,,,,,,85,NA,2013-12-26,-7,63,YEARS,18-64,F,WHITE,White,HISPANIC OR LATINO,Y,Placebo,Pbo,Placebo,Pbo,Placebo,Placebo,2014-01-02,2014-01-02T00:00:00Z,H,2014-07-02,2014-07-02T23:59:59Z,H,COMPLETED,2014-07-02,,2014-01-02,2014-07-02,182,,,,,2014-03-26,84,Week 12,12,AFTER STANDING FOR 1 MINUTE,816,Diastolic Blood Pressure (mmHg),DIABP,7,Vital Sign,2,60,,,61,,,-1,-1.639344262295082,,,,,,40,DIABP,Diastolic Blood Pressure,STANDING,60,mmHg,60,60,mmHg,,,,9,WEEK 12,84,2014-03-26,84,AFTER STANDING FOR 1 MINUTE,816,PT1M,PATIENT STANDING
86,CDISCPILOT01,01-701-1015,1015,701,USA,VS,2014-01-02,2014-07-02,2014-01-02,2014-07-02,2014-07-02T11:45,,,,,,,,,,,,86,NA,2013-12-26,-7,63,YEARS,18-64,F,WHITE,White,HISPANIC OR LATINO,Y,Placebo,Pbo,Placebo,Pbo,Placebo,Placebo,2014-01-02,2014-01-02T00:00:00Z,H,2014-07-02,2014-07-02T23:59:59Z,H,COMPLETED,2014-07-02,,2014-01-02,2014-07-02,182,,,,,2014-03-26,84,Week 12,12,AFTER STANDING FOR 3 MINUTES,817,Diastolic Blood Pressure (mmHg),DIABP,7,Vital Sign,2,64,,,61,,,3,4.918032786885246,,,,,,41,DIABP,Diastolic Blood Pressure,STANDING,64,mmHg,64,64,mmHg,,,,9,WEEK 12,84,2014-03-26,84,AFTER STANDING FOR 3 MINUTES,817,PT3M,PATIENT STANDING
87,CDISCPILOT01,01-701-1015,1015,701,USA,VS,2014-01-02,2014-07-02,2014-01-02,2014-07-02,2014-07-02T11:45,,,,,,,,,,,,87,NA,2013-12-26,-7,63,YEARS,18-64,F,WHITE,White,HISPANIC OR LATINO,Y,Placebo,Pbo,Placebo,Pbo,Placebo,Placebo,2014-01-02,2014-01-02T00:00:00Z,H,2014-07-02,2014-07-02T23:59:59Z,H,COMPLETED,2014-07-02,,2014-01-02,2014-07-02,182,,,,,2014-05-07,126,Week 16,16,AFTER LYING DOWN FOR 5 MINUTES,815,Diastolic Blood Pressure (mmHg),DIABP,7,Vital Sign,2,66,,,61,,,5,8.19672131147541,,,,,,42,DIABP,Diastolic Blood Pressure,SUPINE,66,mmHg,66,66,mmHg,,,,10,WEEK 16,112,2014-05-07,126,AFTER LYING DOWN FOR 5 MINUTES,815,PT5M,PATIENT SUPINE
88,CDISCPILOT01,01-701-1015,1015,701,USA,VS,2014-01-02,2014-07-02,2014-01-02,2014-07-02,2014-07-02T11:45,,,,,,,,,,,,88,NA,2013-12-26,-7,63,YEARS,18-64,F,WHITE,White,HISPANIC OR LATINO,Y,Placebo,Pbo,Placebo,Pbo,Placebo,Placebo,2014-01-02,2014-01-02T00:00:00Z,H,2014-07-02,2014-07-02T23:59:59Z,H,COMPLETED,2014-07-02,,2014-01-02,2014-07-02,182,,,,,2014-05-07,126,Week 16,16,AFTER STANDING FOR 1 MINUTE,816,Diastolic Blood Pressure (mmHg),DIABP,7,Vital Sign,2,68,,,61,,,7,11.475409836065573,,,,,,43,DIABP,Diastolic Blood Pressure,STANDING,68,mmHg,68,68,mmHg,,,,10,WEEK 16,112,2014-05-07,126,AFTER STANDING FOR 1 MINUTE,816,PT1M,PATIENT STANDING
89,CDISCPILOT01,01-701-1015,1015,701,USA,VS,2014-01-02,2014-07-02,2014-01-02,2014-07-02,2014-07-02T11:45,,,,,,,,,,,,89,NA,2013-12-26,-7,63,YEARS,18-64,F,WHITE,White,HISPANIC OR LATINO,Y,Placebo,Pbo,Placebo,Pbo,Placebo,Placebo,2014-01-02,2014-01-02T00:00:00Z,H,2014-07-02,2014-07-02T23:59:59Z,H,COMPLETED,2014-07-02,,2014-01-02,2014-07-02,182,,,,,2014-05-07,126,Week 16,16,AFTER STANDING FOR 3 MINUTES,817,Diastolic Blood Pressure (mmHg),DIABP,7,Vital Sign,2,66,,,61,,,5,8.19672131147541,,,,,,44,DIABP,Diastolic Blood Pressure,STANDING,66,mmHg,66,66,mmHg,,,,10,WEEK 16,112,2014-05-07,126,AFTER STANDING FOR 3 MINUTES,817,PT3M,PATIENT STANDING
90,CDISCPILOT01,01-701-1015,1015,701,USA,VS,2014-01-02,2014-07-02,2014-01-02,2014-07-02,2014-07-02T11:45,,,,,,,,,,,,90,NA,2013-12-26,-7,63,YEARS,18-64,F,WHITE,White,HISPANIC OR LATINO,Y,Placebo,Pbo,Placebo,Pbo,Placebo,Placebo,2014-01-02,2014-01-02T00:00:00Z,H,2014-07-02,2014-07-02T23:59:59Z,H,COMPLETED,2014-07-02,,2014-01-02,2014-07-02,182,,,,,2014-05-21,140,Week 20,20,AFTER LYING DOWN FOR 5 MINUTES,815,Diastolic Blood Pressure (mmHg),DIABP,7,Vital Sign,2,67,,,61,,,6,9.836065573770492,,,,,,45,DIABP,Diastolic Blood Pressure,SUPINE,67,mmHg,67,67,mmHg,,,,11,WEEK 20,140,2014-05-21,140,AFTER LYING DOWN FOR 5 MINUTES,815,PT5M,PATIENT SUPINE
91,CDISCPILOT01,01-701-1015,1015,701,USA,VS,2014-01-02,2014-07-02,2014-01-02,2014-07-02,2014-07-02T11:45,,,,,,,,,,,,91,NA,2013-12-26,-7,63,YEARS,18-64,F,WHITE,White,HISPANIC OR LATINO,Y,Placebo,Pbo,Placebo,Pbo,Placebo,Placebo,2014-01-02,2014-01-02T00:00:00Z,H,2014-07-02,2014-07-02T23:59:59Z,H,COMPLETED,2014-07-02,,2014-01-02,2014-07-02,182,,,,,2014-05-21,140,Week 20,20,AFTER STANDING FOR 1 MINUTE,816,Diastolic Blood Pressure (mmHg),DIABP,7,Vital Sign,2,65,,,61,,,4,6.557377049180328,,,,,,46,DIABP,Diastolic Blood Pressure,STANDING,65,mmHg,65,65,mmHg,,,,11,WEEK 20,140,2014-05-21,140,AFTER STANDING FOR 1 MINUTE,816,PT1M,PATIENT STANDING
92,CDISCPILOT01,01-701-1015,1015,701,USA,VS,2014-01-02,2014-07-02,2014-01-02,2014-07-02,2014-07-02T11:45,,,,,,,,,,,,92,NA,2013-12-26,-7,63,YEARS,18-64,F,WHITE,White,HISPANIC OR LATINO,Y,Placebo,Pbo,Placebo,Pbo,Placebo,Placebo,2014-01-02,2014-01-02T00:00:00Z,H,2014-07-02,2014-07-02T23:59:59Z,H,COMPLETED,2014-07-02,,2014-01-02,2014-07-02,182,,,,,2014-05-21,140,Week 20,20,AFTER STANDING FOR 3 MINUTES,817,Diastolic Blood Pressure (mmHg),DIABP,7,Vital Sign,2,63,,,61,,,2,3.278688524590164,,,,,,47,DIABP,Diastolic Blood Pressure,STANDING,63,mmHg,63,63,mmHg,,,,11,WEEK 20,140,2014-05-21,140,AFTER STANDING FOR 3 MINUTES,817,PT3M,PATIENT STANDING
93,CDISCPILOT01,01-701-1015,1015,701,USA,VS,2014-01-02,2014-07-02,2014-01-02,2014-07-02,2014-07-02T11:45,,,,,,,,,,,,93,NA,2013-12-26,-7,63,YEARS,18-64,F,WHITE,White,HISPANIC OR LATINO,Y,Placebo,Pbo,Placebo,Pbo,Placebo,Placebo,2014-01-02,2014-01-02T00:00:00Z,H,2014-07-02,2014-07-02T23:59:59Z,H,COMPLETED,2014-07-02,,2014-01-02,2014-07-02,182,,,,,2014-06-18,168,Week 24,24,AFTER LYING DOWN FOR 5 MINUTES,815,Diastolic Blood Pressure (mmHg),DIABP,7,Vital Sign,2,63,,,61,,,2,3.278688524590164,,,,,,48,DIABP,Diastolic Blood Pressure,SUPINE,63,mmHg,63,63,mmHg,,,,12,WEEK 24,168,2014-06-18,168,AFTER LYING DOWN FOR 5 MINUTES,815,PT5M,PATIENT SUPINE
94,CDISCPILOT01,01-701-1015,1015,701,USA,VS,2014-01-02,2014-07-02,2014-01-02,2014-07-02,2014-07-02T11:45,,,,,,,,,,,,94,NA,2013-12-26,-7,63,YEARS,18-64,F,WHITE,White,HISPANIC OR LATINO,Y,Placebo,Pbo,Placebo,Pbo,Placebo,Placebo,2014-01-02,2014-01-02T00:00:00Z,H,2014-07-02,2014-07-02T23:59:59Z,H,COMPLETED,2014-07-02,,2014-01-02,2014-07-02,182,,,,,2014-06-18,168,Week 24,24,AFTER STANDING FOR 1 MINUTE,816,Diastolic Blood Pressure (mmHg),DIABP,7,Vital Sign,2,57,,,61,,,-4,-6.557377049180328,,,,,,49,DIABP,Diastolic Blood Pressure,STANDING,57,mmHg,57,57,mmHg,,,,12,WEEK 24,168,2014-06-18,168,AFTER STANDING FOR 1 MINUTE,816,PT1M,PATIENT STANDING
95,CDISCPILOT01,01-701-1015,1015,701,USA,VS,2014-01-02,2014-07-02,2014-01-02,2014-07-02,2014-07-02T11:45,,,,,,,,,,,,95,NA,2013-12-26,-7,63,YEARS,18-64,F,WHITE,White,HISPANIC OR LATINO,Y,Placebo,Pbo,Placebo,Pbo,Placebo,Placebo,2014-01-02,2014-01-02T00:00:00Z,H,2014-07-02,2014-07-02T23:59:59Z,H,COMPLETED,2014-07-02,,2014-01-02,2014-07-02,182,,,,,2014-06-18,168,Week 24,24,AFTER STANDING FOR 3 MINUTES,817,Diastolic Blood Pressure (mmHg),DIABP,7,Vital Sign,2,71,,,61,,,10,16.39344262295082,,,,,,50,DIABP,Diastolic Blood Pressure,STANDING,71,mmHg,71,71,mmHg,,,,12,WEEK 24,168,2014-06-18,168,AFTER STANDING FOR 3 MINUTES,817,PT3M,PATIENT STANDING
96,CDISCPILOT01,01-701-1015,1015,701,USA,VS,2014-01-02,2014-07-02,2014-01-02,2014-07-02,2014-07-02T11:45,,,,,,,,,,,,96,NA,2013-12-26,-7,63,YEARS,18-64,F,WHITE,White,HISPANIC OR LATINO,Y,Placebo,Pbo,Placebo,Pbo,Placebo,Placebo,2014-01-02,2014-01-02T00:00:00Z,H,2014-07-02,2014-07-02T23:59:59Z,H,COMPLETED,2014-07-02,,2014-01-02,2014-07-02,182,,,,,2014-07-02,182,Week 26,26,AFTER LYING DOWN FOR 5 MINUTES,815,Diastolic Blood Pressure (mmHg),DIABP,7,Vital Sign,2,61,,,61,,,0,0,,,,,,51,DIABP,Diastolic Blood Pressure,SUPINE,61,mmHg,61,61,mmHg,,,,13,WEEK 26,182,2014-07-02,182,AFTER LYING DOWN FOR 5 MINUTES,815,PT5M,PATIENT SUPINE
97,CDISCPILOT01,01-701-1015,1015,701,USA,VS,2014-01-02,2014-07-02,2014-01-02,2014-07-02,2014-07-02T11:45,,,,,,,,,,,,97,NA,2013-12-26,-7,63,YEARS,18-64,F,WHITE,White,HISPANIC OR LATINO,Y,Placebo,Pbo,Placebo,Pbo,Placebo,Placebo,2014-01-02,2014-01-02T00:00:00Z,H,2014-07-02,2014-07-02T23:59:59Z,H,COMPLETED,2014-07-02,,2014-01-02,2014-07-02,182,,,,,2014-07-02,182,Week 26,26,AFTER STANDING FOR 1 MINUTE,816,Diastolic Blood Pressure (mmHg),DIABP,7,Vital Sign,2,59,,,61,,,-2,-3.278688524590164,,,,,,52,DIABP,Diastolic Blood Pressure,STANDING,59,mmHg,59,59,mmHg,,,,13,WEEK 26,182,2014-07-02,182,AFTER STANDING FOR 1 MINUTE,816,PT1M,PATIENT STANDING
98,CDISCPILOT01,01-701-1015,1015,701,USA,VS,2014-01-02,2014-07-02,2014-01-02,2014-07-02,2014-07-02T11:45,,,,,,,,,,,,98,NA,2013-12-26,-7,63,YEARS,18-64,F,WHITE,White,HISPANIC OR LATINO,Y,Placebo,Pbo,Placebo,Pbo,Placebo,Placebo,2014-01-02,2014-01-02T00:00:00Z,H,2014-07-02,2014-07-02T23:59:59Z,H,COMPLETED,2014-07-02,,2014-01-02,2014-07-02,182,,,,,2014-07-02,182,Week 26,26,AFTER STANDING FOR 3 MINUTES,817,Diastolic Blood Pressure (mmHg),DIABP,7,Vital Sign,2,55,,,61,,,-6,-9.836065573770492,,,,,,53,DIABP,Diastolic Blood Pressure,STANDING,55,mmHg,55,55,mmHg,,,,13,WEEK 26,182,2014-07-02,182,AFTER STANDING FOR 3 MINUTES,817,PT3M,PATIENT STANDING
99,CDISCPILOT01,01-701-1015,1015,701,USA,VS,2014-01-02,2014-07-02,2014-01-02,2014-07-02,2014-07-02T11:45,,,,,,,,,,,,99,NA,2013-12-26,-7,63,YEARS,18-64,F,WHITE,White,HISPANIC OR LATINO,Y,Placebo,Pbo,Placebo,Pbo,Placebo,Placebo,2014-01-02,2014-01-02T00:00:00Z,H,2014-07-02,2014-07-02T23:59:59Z,H,COMPLETED,2014-07-02,,2014-01-02,2014-07-02,182,,,,,2013-12-26,-7,,,AFTER LYING DOWN FOR 5 MINUTES,815,Pulse Rate (beats/min),PULSE,8,Vital Sign,2,57,,,59,,,,,,,,,,66,PULSE,Pulse Rate,SUPINE,57,BEATS/MIN,57,57,BEATS/MIN,,,,1,SCREENING 1,-7,2013-12-26,-7,AFTER LYING DOWN FOR 5 MINUTES,815,PT5M,PATIENT SUPINE
100,CDISCPILOT01,01-701-1015,1015,701,USA,VS,2014-01-02,2014-07-02,2014-01-02,2014-07-02,2014-07-02T11:45,,,,,,,,,,,,100,NA,2013-12-26,-7,63,YEARS,18-64,F,WHITE,White,HISPANIC OR LATINO,Y,Placebo,Pbo,Placebo,Pbo,Placebo,Placebo,2014-01-02,2014-01-02T00:00:00Z,H,2014-07-02,2014-07-02T23:59:59Z,H,COMPLETED,2014-07-02,,2014-01-02,2014-07-02,182,,,,,2013-12-26,-7,,,AFTER STANDING FOR 1 MINUTE,816,Pulse Rate (beats/min),PULSE,8,Vital Sign,2,62,,,59,,,,,,,,,,67,PULSE,Pulse Rate,STANDING,62,BEATS/MIN,62,62,BEATS/MIN,,,,1,SCREENING 1,-7,2013-12-26,-7,AFTER STANDING FOR 1 MINUTE,816,PT1M,PATIENT STANDING
101,CDISCPILOT01,01-701-1015,1015,701,USA,VS,2014-01-02,2014-07-02,2014-01-02,2014-07-02,2014-07-02T11:45,,,,,,,,,,,,101,NA,2013-12-26,-7,63,YEARS,18-64,F,WHITE,White,HISPANIC OR LATINO,Y,Placebo,Pbo,Placebo,Pbo,Placebo,Placebo,2014-01-02,2014-01-02T00:00:00Z,H,2014-07-02,2014-07-02T23:59:59Z,H,COMPLETED,2014-07-02,,2014-01-02,2014-07-02,182,,,,,2013-12-26,-7,,,AFTER STANDING FOR 3 MINUTES,817,Pulse Rate (beats/min),PULSE,8,Vital Sign,2,65,,,59,,,,,,,,,,68,PULSE,Pulse Rate,STANDING,65,BEATS/MIN,65,65,BEATS/MIN,,,,1,SCREENING 1,-7,2013-12-26,-7,AFTER STANDING FOR 3 MINUTES,817,PT3M,PATIENT STANDING
102,CDISCPILOT01,01-701-1015,1015,701,USA,VS,2014-01-02,2014-07-02,2014-01-02,2014-07-02,2014-07-02T11:45,,,,,,,,,,,,102,NA,2013-12-26,-7,63,YEARS,18-64,F,WHITE,White,HISPANIC OR LATINO,Y,Placebo,Pbo,Placebo,Pbo,Placebo,Placebo,2014-01-02,2014-01-02T00:00:00Z,H,2014-07-02,2014-07-02T23:59:59Z,H,COMPLETED,2014-07-02,,2014-01-02,2014-07-02,182,,,,,2013-12-31,-2,,,AFTER LYING DOWN FOR 5 MINUTES,815,Pulse Rate (beats/min),PULSE,8,Vital Sign,2,56,,,59,,,,,,,,,,69,PULSE,Pulse Rate,SUPINE,56,BEATS/MIN,56,56,BEATS/MIN,,,,2,SCREENING 2,-1,2013-12-31,-2,AFTER LYING DOWN FOR 5 MINUTES,815,PT5M,PATIENT SUPINE
103,CDISCPILOT01,01-701-1015,1015,701,USA,VS,2014-01-02,2014-07-02,2014-01-02,2014-07-02,2014-07-02T11:45,,,,,,,,,,,,103,NA,2013-12-26,-7,63,YEARS,18-64,F,WHITE,White,HISPANIC OR LATINO,Y,Placebo,Pbo,Placebo,Pbo,Placebo,Placebo,2014-01-02,2014-01-02T00:00:00Z,H,2014-07-02,2014-07-02T23:59:59Z,H,COMPLETED,2014-07-02,,2014-01-02,2014-07-02,182,,,,,2013-12-31,-2,,,AFTER STANDING FOR 1 MINUTE,816,Pulse Rate (beats/min),PULSE,8,Vital Sign,2,60,,,59,,,,,,,,,,70,PULSE,Pulse Rate,STANDING,60,BEATS/MIN,60,60,BEATS/MIN,,,,2,SCREENING 2,-1,2013-12-31,-2,AFTER STANDING FOR 1 MINUTE,816,PT1M,PATIENT STANDING
104,CDISCPILOT01,01-701-1015,1015,701,USA,VS,2014-01-02,2014-07-02,2014-01-02,2014-07-02,2014-07-02T11:45,,,,,,,,,,,,104,NA,2013-12-26,-7,63,YEARS,18-64,F,WHITE,White,HISPANIC OR LATINO,Y,Placebo,Pbo,Placebo,Pbo,Placebo,Placebo,2014-01-02,2014-01-02T00:00:00Z,H,2014-07-02,2014-07-02T23:59:59Z,H,COMPLETED,2014-07-02,,2014-01-02,2014-07-02,182,,,,,2013-12-31,-2,,,AFTER STANDING FOR 3 MINUTES,817,Pulse Rate (beats/min),PULSE,8,Vital Sign,2,57,,,59,,,,,,,,,,71,PULSE,Pulse Rate,STANDING,57,BEATS/MIN,57,57,BEATS/MIN,,,,2,SCREENING 2,-1,2013-12-31,-2,AFTER STANDING FOR 3 MINUTES,817,PT3M,PATIENT STANDING
105,CDISCPILOT01,01-701-1015,1015,701,USA,VS,2014-01-02,2014-07-02,2014-01-02,2014-07-02,2014-07-02T11:45,,,,,,,,,,,,105,NA,2013-12-26,-7,63,YEARS,18-64,F,WHITE,White,HISPANIC OR LATINO,Y,Placebo,Pbo,Placebo,Pbo,Placebo,Placebo,2014-01-02,2014-01-02T00:00:00Z,H,2014-07-02,2014-07-02T23:59:59Z,H,COMPLETED,2014-07-02,,2014-01-02,2014-07-02,182,,,,,2014-01-02,1,Baseline,0,AFTER LYING DOWN FOR 5 MINUTES,815,Pulse Rate (beats/min),PULSE,8,Vital Sign,2,56,,,59,,,,,,,,,,72,PULSE,Pulse Rate,SUPINE,56,BEATS/MIN,56,56,BEATS/MIN,,,Y,3,BASELINE,1,2014-01-02,1,AFTER LYING DOWN FOR 5 MINUTES,815,PT5M,PATIENT SUPINE
106,CDISCPILOT01,01-701-1015,1015,701,USA,VS,2014-01-02,2014-07-02,2014-01-02,2014-07-02,2014-07-02T11:45,,,,,,,,,,,,106,NA,2013-12-26,-7,63,YEARS,18-64,F,WHITE,White,HISPANIC OR LATINO,Y,Placebo,Pbo,Placebo,Pbo,Placebo,Placebo,2014-01-02,2014-01-02T00:00:00Z,H,2014-07-02,2014-07-02T23:59:59Z,H,COMPLETED,2014-07-02,,2014-01-02,2014-07-02,182,,,,,2014-01-02,1,Baseline,0,AFTER STANDING FOR 1 MINUTE,816,Pulse Rate (beats/min),PULSE,8,Vital Sign,2,59,,,59,,,,,,,,,,73,PULSE,Pulse Rate,STANDING,59,BEATS/MIN,59,59,BEATS/MIN,,,Y,3,BASELINE,1,2014-01-02,1,AFTER STANDING FOR 1 MINUTE,816,PT1M,PATIENT STANDING
107,CDISCPILOT01,01-701-1015,1015,701,USA,VS,2014-01-02,2014-07-02,2014-01-02,2014-07-02,2014-07-02T11:45,,,,,,,,,,,,107,NA,2013-12-26,-7,63,YEARS,18-64,F,WHITE,White,HISPANIC OR LATINO,Y,Placebo,Pbo,Placebo,Pbo,Placebo,Placebo,2014-01-02,2014-01-02T00:00:00Z,H,2014-07-02,2014-07-02T23:59:59Z,H,COMPLETED,2014-07-02,,2014-01-02,2014-07-02,182,,,,,2014-01-02,1,Baseline,0,AFTER STANDING FOR 3 MINUTES,817,Pulse Rate (beats/min),PULSE,8,Vital Sign,2,59,,,59,,,,,,,,,Y,74,PULSE,Pulse Rate,STANDING,59,BEATS/MIN,59,59,BEATS/MIN,,,Y,3,BASELINE,1,2014-01-02,1,AFTER STANDING FOR 3 MINUTES,817,PT3M,PATIENT STANDING
108,CDISCPILOT01,01-701-1015,1015,701,USA,VS,2014-01-02,2014-07-02,2014-01-02,2014-07-02,2014-07-02T11:45,,,,,,,,,,,,108,NA,2013-12-26,-7,63,YEARS,18-64,F,WHITE,White,HISPANIC OR LATINO,Y,Placebo,Pbo,Placebo,Pbo,Placebo,Placebo,2014-01-02,2014-01-02T00:00:00Z,H,2014-07-02,2014-07-02T23:59:59Z,H,COMPLETED,2014-07-02,,2014-01-02,2014-07-02,182,,,,,2014-01-14,13,,,AFTER LYING DOWN FOR 5 MINUTES,815,Pulse Rate (beats/min),PULSE,8,Vital Sign,2,61,,,59,,,,,,,,,,75,PULSE,Pulse Rate,SUPINE,61,BEATS/MIN,61,61,BEATS/MIN,,,,3.5,AMBUL ECG PLACEMENT,13,2014-01-14,13,AFTER LYING DOWN FOR 5 MINUTES,815,PT5M,PATIENT SUPINE
109,CDISCPILOT01,01-701-1015,1015,701,USA,VS,2014-01-02,2014-07-02,2014-01-02,2014-07-02,2014-07-02T11:45,,,,,,,,,,,,109,NA,2013-12-26,-7,63,YEARS,18-64,F,WHITE,White,HISPANIC OR LATINO,Y,Placebo,Pbo,Placebo,Pbo,Placebo,Placebo,2014-01-02,2014-01-02T00:00:00Z,H,2014-07-02,2014-07-02T23:59:59Z,H,COMPLETED,2014-07-02,,2014-01-02,2014-07-02,182,,,,,2014-01-14,13,,,AFTER STANDING FOR 1 MINUTE,816,Pulse Rate (beats/min),PULSE,8,Vital Sign,2,65,,,59,,,,,,,,,,76,PULSE,Pulse Rate,STANDING,65,BEATS/MIN,65,65,BEATS/MIN,,,,3.5,AMBUL ECG PLACEMENT,13,2014-01-14,13,AFTER STANDING FOR 1 MINUTE,816,PT1M,PATIENT STANDING
110,CDISCPILOT01,01-701-1015,1015,701,USA,VS,2014-01-02,2014-07-02,2014-01-02,2014-07-02,2014-07-02T11:45,,,,,,,,,,,,110,NA,2013-12-26,-7,63,YEARS,18-64,F,WHITE,White,HISPANIC OR LATINO,Y,Placebo,Pbo,Placebo,Pbo,Placebo,Placebo,2014-01-02,2014-01-02T00:00:00Z,H,2014-07-02,2014-07-02T23:59:59Z,H,COMPLETED,2014-07-02,,2014-01-02,2014-07-02,182,,,,,2014-01-14,13,,,AFTER STANDING FOR 3 MINUTES,817,Pulse Rate (beats/min),PULSE,8,Vital Sign,2,61,,,59,,,,,,,,,,77,PULSE,Pulse Rate,STANDING,61,BEATS/MIN,61,61,BEATS/MIN,,,,3.5,AMBUL ECG PLACEMENT,13,2014-01-14,13,AFTER STANDING FOR 3 MINUTES,817,PT3M,PATIENT STANDING
111,CDISCPILOT01,01-701-1015,1015,701,USA,VS,2014-01-02,2014-07-02,2014-01-02,2014-07-02,2014-07-02T11:45,,,,,,,,,,,,111,NA,2013-12-26,-7,63,YEARS,18-64,F,WHITE,White,HISPANIC OR LATINO,Y,Placebo,Pbo,Placebo,Pbo,Placebo,Placebo,2014-01-02,2014-01-02T00:00:00Z,H,2014-07-02,2014-07-02T23:59:59Z,H,COMPLETED,2014-07-02,,2014-01-02,2014-07-02,182,,,,,2014-01-16,15,Week 2,2,AFTER LYING DOWN FOR 5 MINUTES,815,Pulse Rate (beats/min),PULSE,8,Vital Sign,2,58,,,59,,,-1,-1.694915254237288,,,,,,78,PULSE,Pulse Rate,SUPINE,58,BEATS/MIN,58,58,BEATS/MIN,,,,4,WEEK 2,14,2014-01-16,15,AFTER LYING DOWN FOR 5 MINUTES,815,PT5M,PATIENT SUPINE
112,CDISCPILOT01,01-701-1015,1015,701,USA,VS,2014-01-02,2014-07-02,2014-01-02,2014-07-02,2014-07-02T11:45,,,,,,,,,,,,112,NA,2013-12-26,-7,63,YEARS,18-64,F,WHITE,White,HISPANIC OR LATINO,Y,Placebo,Pbo,Placebo,Pbo,Placebo,Placebo,2014-01-02,2014-01-02T00:00:00Z,H,2014-07-02,2014-07-02T23:59:59Z,H,COMPLETED,2014-07-02,,2014-01-02,2014-07-02,182,,,,,2014-01-16,15,Week 2,2,AFTER STANDING FOR 1 MINUTE,816,Pulse Rate (beats/min),PULSE,8,Vital Sign,2,61,,,59,,,2,3.389830508474576,,,,,,79,PULSE,Pulse Rate,STANDING,61,BEATS/MIN,61,61,BEATS/MIN,,,,4,WEEK 2,14,2014-01-16,15,AFTER STANDING FOR 1 MINUTE,816,PT1M,PATIENT STANDING
113,CDISCPILOT01,01-701-1015,1015,701,USA,VS,2014-01-02,2014-07-02,2014-01-02,2014-07-02,2014-07-02T11:45,,,,,,,,,,,,113,NA,2013-12-26,-7,63,YEARS,18-64,F,WHITE,White,HISPANIC OR LATINO,Y,Placebo,Pbo,Placebo,Pbo,Placebo,Placebo,2014-01-02,2014-01-02T00:00:00Z,H,2014-07-02,2014-07-02T23:59:59Z,H,COMPLETED,2014-07-02,,2014-01-02,2014-07-02,182,,,,,2014-01-16,15,Week 2,2,AFTER STANDING FOR 3 MINUTES,817,Pulse Rate (beats/min),PULSE,8,Vital Sign,2,62,,,59,,,3,5.084745762711865,,,,,,80,PULSE,Pulse Rate,STANDING,62,BEATS/MIN,62,62,BEATS/MIN,,,,4,WEEK 2,14,2014-01-16,15,AFTER STANDING FOR 3 MINUTES,817,PT3M,PATIENT STANDING
114,CDISCPILOT01,01-701-1015,1015,701,USA,VS,2014-01-02,2014-07-02,2014-01-02,2014-07-02,2014-07-02T11:45,,,,,,,,,,,,114,NA,2013-12-26,-7,63,YEARS,18-64,F,WHITE,White,HISPANIC OR LATINO,Y,Placebo,Pbo,Placebo,Pbo,Placebo,Placebo,2014-01-02,2014-01-02T00:00:00Z,H,2014-07-02,2014-07-02T23:59:59Z,H,COMPLETED,2014-07-02,,2014-01-02,2014-07-02,182,,,,,2014-01-30,29,Week 4,4,AFTER LYING DOWN FOR 5 MINUTES,815,Pulse Rate (beats/min),PULSE,8,Vital Sign,2,59,,,59,,,0,0,,,,,,81,PULSE,Pulse Rate,SUPINE,59,BEATS/MIN,59,59,BEATS/MIN,,,,5,WEEK 4,28,2014-01-30,29,AFTER LYING DOWN FOR 5 MINUTES,815,PT5M,PATIENT SUPINE
115,CDISCPILOT01,01-701-1015,1015,701,USA,VS,2014-01-02,2014-07-02,2014-01-02,2014-07-02,2014-07-02T11:45,,,,,,,,,,,,115,NA,2013-12-26,-7,63,YEARS,18-64,F,WHITE,White,HISPANIC OR LATINO,Y,Placebo,Pbo,Placebo,Pbo,Placebo,Placebo,2014-01-02,2014-01-02T00:00:00Z,H,2014-07-02,2014-07-02T23:59:59Z,H,COMPLETED,2014-07-02,,2014-01-02,2014-07-02,182,,,,,2014-01-30,29,Week 4,4,AFTER STANDING FOR 1 MINUTE,816,Pulse Rate (beats/min),PULSE,8,Vital Sign,2,62,,,59,,,3,5.084745762711865,,,,,,82,PULSE,Pulse Rate,STANDING,62,BEATS/MIN,62,62,BEATS/MIN,,,,5,WEEK 4,28,2014-01-30,29,AFTER STANDING FOR 1 MINUTE,816,PT1M,PATIENT STANDING
116,CDISCPILOT01,01-701-1015,1015,701,USA,VS,2014-01-02,2014-07-02,2014-01-02,2014-07-02,2014-07-02T11:45,,,,,,,,,,,,116,NA,2013-12-26,-7,63,YEARS,18-64,F,WHITE,White,HISPANIC OR LATINO,Y,Placebo,Pbo,Placebo,Pbo,Placebo,Placebo,2014-01-02,2014-01-02T00:00:00Z,H,2014-07-02,2014-07-02T23:59:59Z,H,COMPLETED,2014-07-02,,2014-01-02,2014-07-02,182,,,,,2014-01-30,29,Week 4,4,AFTER STANDING FOR 3 MINUTES,817,Pulse Rate (beats/min),PULSE,8,Vital Sign,2,59,,,59,,,0,0,,,,,,83,PULSE,Pulse Rate,STANDING,59,BEATS/MIN,59,59,BEATS/MIN,,,,5,WEEK 4,28,2014-01-30,29,AFTER STANDING FOR 3 MINUTES,817,PT3M,PATIENT STANDING
117,CDISCPILOT01,01-701-1015,1015,701,USA,VS,2014-01-02,2014-07-02,2014-01-02,2014-07-02,2014-07-02T11:45,,,,,,,,,,,,117,NA,2013-12-26,-7,63,YEARS,18-64,F,WHITE,White,HISPANIC OR LATINO,Y,Placebo,Pbo,Placebo,Pbo,Placebo,Placebo,2014-01-02,2014-01-02T00:00:00Z,H,2014-07-02,2014-07-02T23:59:59Z,H,COMPLETED,2014-07-02,,2014-01-02,2014-07-02,182,,,,,2014-02-01,31,,,AFTER LYING DOWN FOR 5 MINUTES,815,Pulse Rate (beats/min),PULSE,8,Vital Sign,2,67,,,59,,,,,,,,,,84,PULSE,Pulse Rate,SUPINE,67,BEATS/MIN,67,67,BEATS/MIN,,,,6,AMBUL ECG REMOVAL,30,2014-02-01,31,AFTER LYING DOWN FOR 5 MINUTES,815,PT5M,PATIENT SUPINE
118,CDISCPILOT01,01-701-1015,1015,701,USA,VS,2014-01-02,2014-07-02,2014-01-02,2014-07-02,2014-07-02T11:45,,,,,,,,,,,,118,NA,2013-12-26,-7,63,YEARS,18-64,F,WHITE,White,HISPANIC OR LATINO,Y,Placebo,Pbo,Placebo,Pbo,Placebo,Placebo,2014-01-02,2014-01-02T00:00:00Z,H,2014-07-02,2014-07-02T23:59:59Z,H,COMPLETED,2014-07-02,,2014-01-02,2014-07-02,182,,,,,2014-02-01,31,,,AFTER STANDING FOR 1 MINUTE,816,Pulse Rate (beats/min),PULSE,8,Vital Sign,2,69,,,59,,,,,,,,,,85,PULSE,Pulse Rate,STANDING,69,BEATS/MIN,69,69,BEATS/MIN,,,,6,AMBUL ECG REMOVAL,30,2014-02-01,31,AFTER STANDING FOR 1 MINUTE,816,PT1M,PATIENT STANDING
119,CDISCPILOT01,01-701-1015,1015,701,USA,VS,2014-01-02,2014-07-02,2014-01-02,2014-07-02,2014-07-02T11:45,,,,,,,,,,,,119,NA,2013-12-26,-7,63,YEARS,18-64,F,WHITE,White,HISPANIC OR LATINO,Y,Placebo,Pbo,Placebo,Pbo,Placebo,Placebo,2014-01-02,2014-01-02T00:00:00Z,H,2014-07-02,2014-07-02T23:59:59Z,H,COMPLETED,2014-07-02,,2014-01-02,2014-07-02,182,,,,,2014-02-01,31,,,AFTER STANDING FOR 3 MINUTES,817,Pulse Rate (beats/min),PULSE,8,Vital Sign,2,65,,,59,,,,,,,,,,86,PULSE,Pulse Rate,STANDING,65,BEATS/MIN,65,65,BEATS/MIN,,,,6,AMBUL ECG REMOVAL,30,2014-02-01,31,AFTER STANDING FOR 3 MINUTES,817,PT3M,PATIENT STANDING
120,CDISCPILOT01,01-701-1015,1015,701,USA,VS,2014-01-02,2014-07-02,2014-01-02,2014-07-02,2014-07-02T11:45,,,,,,,,,,,,120,NA,2013-12-26,-7,63,YEARS,18-64,F,WHITE,White,HISPANIC OR LATINO,Y,Placebo,Pbo,Placebo,Pbo,Placebo,Placebo,2014-01-02,2014-01-02T00:00:00Z,H,2014-07-02,2014-07-02T23:59:59Z,H,COMPLETED,2014-07-02,,2014-01-02,2014-07-02,182,,,,,2014-02-12,42,Week 6,6,AFTER LYING DOWN FOR 5 MINUTES,815,Pulse Rate (beats/min),PULSE,8,Vital Sign,2,55,,,59,,,-4,-6.779661016949152,,,,,,87,PULSE,Pulse Rate,SUPINE,55,BEATS/MIN,55,55,BEATS/MIN,,,,7,WEEK 6,42,2014-02-12,42,AFTER LYING DOWN FOR 5 MINUTES,815,PT5M,PATIENT SUPINE
121,CDISCPILOT01,01-701-1015,1015,701,USA,VS,2014-01-02,2014-07-02,2014-01-02,2014-07-02,2014-07-02T11:45,,,,,,,,,,,,121,NA,2013-12-26,-7,63,YEARS,18-64,F,WHITE,White,HISPANIC OR LATINO,Y,Placebo,Pbo,Placebo,Pbo,Placebo,Placebo,2014-01-02,2014-01-02T00:00:00Z,H,2014-07-02,2014-07-02T23:59:59Z,H,COMPLETED,2014-07-02,,2014-01-02,2014-07-02,182,,,,,2014-02-12,42,Week 6,6,AFTER STANDING FOR 1 MINUTE,816,Pulse Rate (beats/min),PULSE,8,Vital Sign,2,56,,,59,,,-3,-5.084745762711865,,,,,,88,PULSE,Pulse Rate,STANDING,56,BEATS/MIN,56,56,BEATS/MIN,,,,7,WEEK 6,42,2014-02-12,42,AFTER STANDING FOR 1 MINUTE,816,PT1M,PATIENT STANDING
122,CDISCPILOT01,01-701-1015,1015,701,USA,VS,2014-01-02,2014-07-02,2014-01-02,2014-07-02,2014-07-02T11:45,,,,,,,,,,,,122,NA,2013-12-26,-7,63,YEARS,18-64,F,WHITE,White,HISPANIC OR LATINO,Y,Placebo,Pbo,Placebo,Pbo,Placebo,Placebo,2014-01-02,2014-01-02T00:00:00Z,H,2014-07-02,2014-07-02T23:59:59Z,H,COMPLETED,2014-07-02,,2014-01-02,2014-07-02,182,,,,,2014-02-12,42,Week 6,6,AFTER STANDING FOR 3 MINUTES,817,Pulse Rate (beats/min),PULSE,8,Vital Sign,2,57,,,59,,,-2,-3.389830508474576,,,,,,89,PULSE,Pulse Rate,STANDING,57,BEATS/MIN,57,57,BEATS/MIN,,,,7,WEEK 6,42,2014-02-12,42,AFTER STANDING FOR 3 MINUTES,817,PT3M,PATIENT STANDING
123,CDISCPILOT01,01-701-1015,1015,701,USA,VS,2014-01-02,2014-07-02,2014-01-02,2014-07-02,2014-07-02T11:45,,,,,,,,,,,,123,NA,2013-12-26,-7,63,YEARS,18-64,F,WHITE,White,HISPANIC OR LATINO,Y,Placebo,Pbo,Placebo,Pbo,Placebo,Placebo,2014-01-02,2014-01-02T00:00:00Z,H,2014-07-02,2014-07-02T23:59:59Z,H,COMPLETED,2014-07-02,,2014-01-02,2014-07-02,182,,,,,2014-03-05,63,Week 8,8,AFTER LYING DOWN FOR 5 MINUTES,815,Pulse Rate (beats/min),PULSE,8,Vital Sign,2,57,,,59,,,-2,-3.389830508474576,,,,,,90,PULSE,Pulse Rate,SUPINE,57,BEATS/MIN,57,57,BEATS/MIN,,,,8,WEEK 8,56,2014-03-05,63,AFTER LYING DOWN FOR 5 MINUTES,815,PT5M,PATIENT SUPINE
124,CDISCPILOT01,01-701-1015,1015,701,USA,VS,2014-01-02,2014-07-02,2014-01-02,2014-07-02,2014-07-02T11:45,,,,,,,,,,,,124,NA,2013-12-26,-7,63,YEARS,18-64,F,WHITE,White,HISPANIC OR LATINO,Y,Placebo,Pbo,Placebo,Pbo,Placebo,Placebo,2014-01-02,2014-01-02T00:00:00Z,H,2014-07-02,2014-07-02T23:59:59Z,H,COMPLETED,2014-07-02,,2014-01-02,2014-07-02,182,,,,,2014-03-05,63,Week 8,8,AFTER STANDING FOR 1 MINUTE,816,Pulse Rate (beats/min),PULSE,8,Vital Sign,2,60,,,59,,,1,1.694915254237288,,,,,,91,PULSE,Pulse Rate,STANDING,60,BEATS/MIN,60,60,BEATS/MIN,,,,8,WEEK 8,56,2014-03-05,63,AFTER STANDING FOR 1 MINUTE,816,PT1M,PATIENT STANDING
125,CDISCPILOT01,01-701-1015,1015,701,USA,VS,2014-01-02,2014-07-02,2014-01-02,2014-07-02,2014-07-02T11:45,,,,,,,,,,,,125,NA,2013-12-26,-7,63,YEARS,18-64,F,WHITE,White,HISPANIC OR LATINO,Y,Placebo,Pbo,Placebo,Pbo,Placebo,Placebo,2014-01-02,2014-01-02T00:00:00Z,H,2014-07-02,2014-07-02T23:59:59Z,H,COMPLETED,2014-07-02,,2014-01-02,2014-07-02,182,,,,,2014-03-05,63,Week 8,8,AFTER STANDING FOR 3 MINUTES,817,Pulse Rate (beats/min),PULSE,8,Vital Sign,2,57,,,59,,,-2,-3.389830508474576,,,,,,92,PULSE,Pulse Rate,STANDING,57,BEATS/MIN,57,57,BEATS/MIN,,,,8,WEEK 8,56,2014-03-05,63,AFTER STANDING FOR 3 MINUTES,817,PT3M,PATIENT STANDING
126,CDISCPILOT01,01-701-1015,1015,701,USA,VS,2014-01-02,2014-07-02,2014-01-02,2014-07-02,2014-07-02T11:45,,,,,,,,,,,,126,NA,2013-12-26,-7,63,YEARS,18-64,F,WHITE,White,HISPANIC OR LATINO,Y,Placebo,Pbo,Placebo,Pbo,Placebo,Placebo,2014-01-02,2014-01-02T00:00:00Z,H,2014-07-02,2014-07-02T23:59:59Z,H,COMPLETED,2014-07-02,,2014-01-02,2014-07-02,182,,,,,2014-03-26,84,Week 12,12,AFTER LYING DOWN FOR 5 MINUTES,815,Pulse Rate (beats/min),PULSE,8,Vital Sign,2,54,,,59,,,-5,-8.47457627118644,,,,,,93,PULSE,Pulse Rate,SUPINE,54,BEATS/MIN,54,54,BEATS/MIN,,,,9,WEEK 12,84,2014-03-26,84,AFTER LYING DOWN FOR 5 MINUTES,815,PT5M,PATIENT SUPINE
127,CDISCPILOT01,01-701-1015,1015,701,USA,VS,2014-01-02,2014-07-02,2014-01-02,2014-07-02,2014-07-02T11:45,,,,,,,,,,,,127,NA,2013-12-26,-7,63,YEARS,18-64,F,WHITE,White,HISPANIC OR LATINO,Y,Placebo,Pbo,Placebo,Pbo,Placebo,Placebo,2014-01-02,2014-01-02T00:00:00Z,H,2014-07-02,2014-07-02T23:59:59Z,H,COMPLETED,2014-07-02,,2014-01-02,2014-07-02,182,,,,,2014-03-26,84,Week 12,12,AFTER STANDING FOR 1 MINUTE,816,Pulse Rate (beats/min),PULSE,8,Vital Sign,2,53,,,59,,,-6,-10.16949152542373,,,,,,94,PULSE,Pulse Rate,STANDING,53,BEATS/MIN,53,53,BEATS/MIN,,,,9,WEEK 12,84,2014-03-26,84,AFTER STANDING FOR 1 MINUTE,816,PT1M,PATIENT STANDING
128,CDISCPILOT01,01-701-1015,1015,701,USA,VS,2014-01-02,2014-07-02,2014-01-02,2014-07-02,2014-07-02T11:45,,,,,,,,,,,,128,NA,2013-12-26,-7,63,YEARS,18-64,F,WHITE,White,HISPANIC OR LATINO,Y,Placebo,Pbo,Placebo,Pbo,Placebo,Placebo,2014-01-02,2014-01-02T00:00:00Z,H,2014-07-02,2014-07-02T23:59:59Z,H,COMPLETED,2014-07-02,,2014-01-02,2014-07-02,182,,,,,2014-03-26,84,Week 12,12,AFTER STANDING FOR 3 MINUTES,817,Pulse Rate (beats/min),PULSE,8,Vital Sign,2,52,,,59,,,-7,-11.864406779661017,,,,,,95,PULSE,Pulse Rate,STANDING,52,BEATS/MIN,52,52,BEATS/MIN,,,,9,WEEK 12,84,2014-03-26,84,AFTER STANDING FOR 3 MINUTES,817,PT3M,PATIENT STANDING
129,CDISCPILOT01,01-701-1015,1015,701,USA,VS,2014-01-02,2014-07-02,2014-01-02,2014-07-02,2014-07-02T11:45,,,,,,,,,,,,129,NA,2013-12-26,-7,63,YEARS,18-64,F,WHITE,White,HISPANIC OR LATINO,Y,Placebo,Pbo,Placebo,Pbo,Placebo,Placebo,2014-01-02,2014-01-02T00:00:00Z,H,2014-07-02,2014-07-02T23:59:59Z,H,COMPLETED,2014-07-02,,2014-01-02,2014-07-02,182,,,,,2014-05-07,126,Week 16,16,AFTER LYING DOWN FOR 5 MINUTES,815,Pulse Rate (beats/min),PULSE,8,Vital Sign,2,60,,,59,,,1,1.694915254237288,,,,,,96,PULSE,Pulse Rate,SUPINE,60,BEATS/MIN,60,60,BEATS/MIN,,,,10,WEEK 16,112,2014-05-07,126,AFTER LYING DOWN FOR 5 MINUTES,815,PT5M,PATIENT SUPINE
130,CDISCPILOT01,01-701-1015,1015,701,USA,VS,2014-01-02,2014-07-02,2014-01-02,2014-07-02,2014-07-02T11:45,,,,,,,,,,,,130,NA,2013-12-26,-7,63,YEARS,18-64,F,WHITE,White,HISPANIC OR LATINO,Y,Placebo,Pbo,Placebo,Pbo,Placebo,Placebo,2014-01-02,2014-01-02T00:00:00Z,H,2014-07-02,2014-07-02T23:59:59Z,H,COMPLETED,2014-07-02,,2014-01-02,2014-07-02,182,,,,,2014-05-07,126,Week 16,16,AFTER STANDING FOR 1 MINUTE,816,Pulse Rate (beats/min),PULSE,8,Vital Sign,2,55,,,59,,,-4,-6.779661016949152,,,,,,97,PULSE,Pulse Rate,STANDING,55,BEATS/MIN,55,55,BEATS/MIN,,,,10,WEEK 16,112,2014-05-07,126,AFTER STANDING FOR 1 MINUTE,816,PT1M,PATIENT STANDING
131,CDISCPILOT01,01-701-1015,1015,701,USA,VS,2014-01-02,2014-07-02,2014-01-02,2014-07-02,2014-07-02T11:45,,,,,,,,,,,,131,NA,2013-12-26,-7,63,YEARS,18-64,F,WHITE,White,HISPANIC OR LATINO,Y,Placebo,Pbo,Placebo,Pbo,Placebo,Placebo,2014-01-02,2014-01-02T00:00:00Z,H,2014-07-02,2014-07-02T23:59:59Z,H,COMPLETED,2014-07-02,,2014-01-02,2014-07-02,182,,,,,2014-05-07,126,Week 16,16,AFTER STANDING FOR 3 MINUTES,817,Pulse Rate (beats/min),PULSE,8,Vital Sign,2,61,,,59,,,2,3.389830508474576,,,,,,98,PULSE,Pulse Rate,STANDING,61,BEATS/MIN,61,61,BEATS/MIN,,,,10,WEEK 16,112,2014-05-07,126,AFTER STANDING FOR 3 MINUTES,817,PT3M,PATIENT STANDING
132,CDISCPILOT01,01-701-1015,1015,701,USA,VS,2014-01-02,2014-07-02,2014-01-02,2014-07-02,2014-07-02T11:45,,,,,,,,,,,,132,NA,2013-12-26,-7,63,YEARS,18-64,F,WHITE,White,HISPANIC OR LATINO,Y,Placebo,Pbo,Placebo,Pbo,Placebo,Placebo,2014-01-02,2014-01-02T00:00:00Z,H,2014-07-02,2014-07-02T23:59:59Z,H,COMPLETED,2014-07-02,,2014-01-02,2014-07-02,182,,,,,2014-05-21,140,Week 20,20,AFTER LYING DOWN FOR 5 MINUTES,815,Pulse Rate (beats/min),PULSE,8,Vital Sign,2,54,,,59,,,-5,-8.47457627118644,,,,,,99,PULSE,Pulse Rate,SUPINE,54,BEATS/MIN,54,54,BEATS/MIN,,,,11,WEEK 20,140,2014-05-21,140,AFTER LYING DOWN FOR 5 MINUTES,815,PT5M,PATIENT SUPINE
133,CDISCPILOT01,01-701-1015,1015,701,USA,VS,2014-01-02,2014-07-02,2014-01-02,2014-07-02,2014-07-02T11:45,,,,,,,,,,,,133,NA,2013-12-26,-7,63,YEARS,18-64,F,WHITE,White,HISPANIC OR LATINO,Y,Placebo,Pbo,Placebo,Pbo,Placebo,Placebo,2014-01-02,2014-01-02T00:00:00Z,H,2014-07-02,2014-07-02T23:59:59Z,H,COMPLETED,2014-07-02,,2014-01-02,2014-07-02,182,,,,,2014-05-21,140,Week 20,20,AFTER STANDING FOR 1 MINUTE,816,Pulse Rate (beats/min),PULSE,8,Vital Sign,2,59,,,59,,,0,0,,,,,,100,PULSE,Pulse Rate,STANDING,59,BEATS/MIN,59,59,BEATS/MIN,,,,11,WEEK 20,140,2014-05-21,140,AFTER STANDING FOR 1 MINUTE,816,PT1M,PATIENT STANDING
134,CDISCPILOT01,01-701-1015,1015,701,USA,VS,2014-01-02,2014-07-02,2014-01-02,2014-07-02,2014-07-02T11:45,,,,,,,,,,,,134,NA,2013-12-26,-7,63,YEARS,18-64,F,WHITE,White,HISPANIC OR LATINO,Y,Placebo,Pbo,Placebo,Pbo,Placebo,Placebo,2014-01-02,2014-01-02T00:00:00Z,H,2014-07-02,2014-07-02T23:59:59Z,H,COMPLETED,2014-07-02,,2014-01-02,2014-07-02,182,,,,,2014-05-21,140,Week 20,20,AFTER STANDING FOR 3 MINUTES,817,Pulse Rate (beats/min),PULSE,8,Vital Sign,2,58,,,59,,,-1,-1.694915254237288,,,,,,101,PULSE,Pulse Rate,STANDING,58,BEATS/MIN,58,58,BEATS/MIN,,,,11,WEEK 20,140,2014-05-21,140,AFTER STANDING FOR 3 MINUTES,817,PT3M,PATIENT STANDING
135,CDISCPILOT01,01-701-1015,1015,701,USA,VS,2014-01-02,2014-07-02,2014-01-02,2014-07-02,2014-07-02T11:45,,,,,,,,,,,,135,NA,2013-12-26,-7,63,YEARS,18-64,F,WHITE,White,HISPANIC OR LATINO,Y,Placebo,Pbo,Placebo,Pbo,Placebo,Placebo,2014-01-02,2014-01-02T00:00:00Z,H,2014-07-02,2014-07-02T23:59:59Z,H,COMPLETED,2014-07-02,,2014-01-02,2014-07-02,182,,,,,2014-06-18,168,Week 24,24,AFTER LYING DOWN FOR 5 MINUTES,815,Pulse Rate (beats/min),PULSE,8,Vital Sign,2,55,,,59,,,-4,-6.779661016949152,,,,,,102,PULSE,Pulse Rate,SUPINE,55,BEATS/MIN,55,55,BEATS/MIN,,,,12,WEEK 24,168,2014-06-18,168,AFTER LYING DOWN FOR 5 MINUTES,815,PT5M,PATIENT SUPINE
136,CDISCPILOT01,01-701-1015,1015,701,USA,VS,2014-01-02,2014-07-02,2014-01-02,2014-07-02,2014-07-02T11:45,,,,,,,,,,,,136,NA,2013-12-26,-7,63,YEARS,18-64,F,WHITE,White,HISPANIC OR LATINO,Y,Placebo,Pbo,Placebo,Pbo,Placebo,Placebo,2014-01-02,2014-01-02T00:00:00Z,H,2014-07-02,2014-07-02T23:59:59Z,H,COMPLETED,2014-07-02,,2014-01-02,2014-07-02,182,,,,,2014-06-18,168,Week 24,24,AFTER STANDING FOR 1 MINUTE,816,Pulse Rate (beats/min),PULSE,8,Vital Sign,2,57,,,59,,,-2,-3.389830508474576,,,,,,103,PULSE,Pulse Rate,STANDING,57,BEATS/MIN,57,57,BEATS/MIN,,,,12,WEEK 24,168,2014-06-18,168,AFTER STANDING FOR 1 MINUTE,816,PT1M,PATIENT STANDING
137,CDISCPILOT01,01-701-1015,1015,701,USA,VS,2014-01-02,2014-07-02,2014-01-02,2014-07-02,2014-07-02T11:45,,,,,,,,,,,,137,NA,2013-12-26,-7,63,YEARS,18-64,F,WHITE,White,HISPANIC OR LATINO,Y,Placebo,Pbo,Placebo,Pbo,Placebo,Placebo,2014-01-02,2014-01-02T00:00:00Z,H,2014-07-02,2014-07-02T23:59:59Z,H,COMPLETED,2014-07-02,,2014-01-02,2014-07-02,182,,,,,2014-06-18,168,Week 24,24,AFTER STANDING FOR 3 MINUTES,817,Pulse Rate (beats/min),PULSE,8,Vital Sign,2,56,,,59,,,-3,-5.084745762711865,,,,,,104,PULSE,Pulse Rate,STANDING,56,BEATS/MIN,56,56,BEATS/MIN,,,,12,WEEK 24,168,2014-06-18,168,AFTER STANDING FOR 3 MINUTES,817,PT3M,PATIENT STANDING
138,CDISCPILOT01,01-701-1015,1015,701,USA,VS,2014-01-02,2014-07-02,2014-01-02,2014-07-02,2014-07-02T11:45,,,,,,,,,,,,138,NA,2013-12-26,-7,63,YEARS,18-64,F,WHITE,White,HISPANIC OR LATINO,Y,Placebo,Pbo,Placebo,Pbo,Placebo,Placebo,2014-01-02,2014-01-02T00:00:00Z,H,2014-07-02,2014-07-02T23:59:59Z,H,COMPLETED,2014-07-02,,2014-01-02,2014-07-02,182,,,,,2014-07-02,182,Week 26,26,AFTER LYING DOWN FOR 5 MINUTES,815,Pulse Rate (beats/min),PULSE,8,Vital Sign,2,60,,,59,,,1,1.694915254237288,,,,,,105,PULSE,Pulse Rate,SUPINE,60,BEATS/MIN,60,60,BEATS/MIN,,,,13,WEEK 26,182,2014-07-02,182,AFTER LYING DOWN FOR 5 MINUTES,815,PT5M,PATIENT SUPINE
139,CDISCPILOT01,01-701-1015,1015,701,USA,VS,2014-01-02,2014-07-02,2014-01-02,2014-07-02,2014-07-02T11:45,,,,,,,,,,,,139,NA,2013-12-26,-7,63,YEARS,18-64,F,WHITE,White,HISPANIC OR LATINO,Y,Placebo,Pbo,Placebo,Pbo,Placebo,Placebo,2014-01-02,2014-01-02T00:00:00Z,H,2014-07-02,2014-07-02T23:59:59Z,H,COMPLETED,2014-07-02,,2014-01-02,2014-07-02,182,,,,,2014-07-02,182,Week 26,26,AFTER STANDING FOR 1 MINUTE,816,Pulse Rate (beats/min),PULSE,8,Vital Sign,2,61,,,59,,,2,3.389830508474576,,,,,,106,PULSE,Pulse Rate,STANDING,61,BEATS/MIN,61,61,BEATS/MIN,,,,13,WEEK 26,182,2014-07-02,182,AFTER STANDING FOR 1 MINUTE,816,PT1M,PATIENT STANDING
140,CDISCPILOT01,01-701-1015,1015,701,USA,VS,2014-01-02,2014-07-02,2014-01-02,2014-07-02,2014-07-02T11:45,,,,,,,,,,,,140,NA,2013-12-26,-7,63,YEARS,18-64,F,WHITE,White,HISPANIC OR LATINO,Y,Placebo,Pbo,Placebo,Pbo,Placebo,Placebo,2014-01-02,2014-01-02T00:00:00Z,H,2014-07-02,2014-07-02T23:59:59Z,H,COMPLETED,2014-07-02,,2014-01-02,2014-07-02,182,,,,,2014-07-02,182,Week 26,26,AFTER STANDING FOR 3 MINUTES,817,Pulse Rate (beats/min),PULSE,8,Vital Sign,2,59,,,59,,,0,0,,,,,,107,PULSE,Pulse Rate,STANDING,59,BEATS/MIN,59,59,BEATS/MIN,,,,13,WEEK 26,182,2014-07-02,182,AFTER STANDING FOR 3 MINUTES,817,PT3M,PATIENT STANDING
141,CDISCPILOT01,01-701-1015,1015,701,USA,VS,2014-01-02,2014-07-02,2014-01-02,2014-07-02,2014-07-02T11:45,,,,,,,,,,,,141,NA,2013-12-26,-7,63,YEARS,18-64,F,WHITE,White,HISPANIC OR LATINO,Y,Placebo,Pbo,Placebo,Pbo,Placebo,Placebo,2014-01-02,2014-01-02T00:00:00Z,H,2014-07-02,2014-07-02T23:59:59Z,H,COMPLETED,2014-07-02,,2014-01-02,2014-07-02,182,,,,,2013-12-26,-7,,,AFTER LYING DOWN FOR 5 MINUTES,815,Systolic Blood Pressure (mmHg),SYSBP,9,Vital Sign,2,131,,,131,,,,,,,,,,108,SYSBP,Systolic Blood Pressure,SUPINE,131,mmHg,131,131,mmHg,,,,1,SCREENING 1,-7,2013-12-26,-7,AFTER LYING DOWN FOR 5 MINUTES,815,PT5M,PATIENT SUPINE
142,CDISCPILOT01,01-701-1015,1015,701,USA,VS,2014-01-02,2014-07-02,2014-01-02,2014-07-02,2014-07-02T11:45,,,,,,,,,,,,142,NA,2013-12-26,-7,63,YEARS,18-64,F,WHITE,White,HISPANIC OR LATINO,Y,Placebo,Pbo,Placebo,Pbo,Placebo,Placebo,2014-01-02,2014-01-02T00:00:00Z,H,2014-07-02,2014-07-02T23:59:59Z,H,COMPLETED,2014-07-02,,2014-01-02,2014-07-02,182,,,,,2013-12-26,-7,,,AFTER STANDING FOR 1 MINUTE,816,Systolic Blood Pressure (mmHg),SYSBP,9,Vital Sign,2,129,,,131,,,,,,,,,,109,SYSBP,Systolic Blood Pressure,STANDING,129,mmHg,129,129,mmHg,,,,1,SCREENING 1,-7,2013-12-26,-7,AFTER STANDING FOR 1 MINUTE,816,PT1M,PATIENT STANDING
143,CDISCPILOT01,01-701-1015,1015,701,USA,VS,2014-01-02,2014-07-02,2014-01-02,2014-07-02,2014-07-02T11:45,,,,,,,,,,,,143,NA,2013-12-26,-7,63,YEARS,18-64,F,WHITE,White,HISPANIC OR LATINO,Y,Placebo,Pbo,Placebo,Pbo,Placebo,Placebo,2014-01-02,2014-01-02T00:00:00Z,H,2014-07-02,2014-07-02T23:59:59Z,H,COMPLETED,2014-07-02,,2014-01-02,2014-07-02,182,,,,,2013-12-26,-7,,,AFTER STANDING FOR 3 MINUTES,817,Systolic Blood Pressure (mmHg),SYSBP,9,Vital Sign,2,147,,,131,,,,,,,,,,110,SYSBP,Systolic Blood Pressure,STANDING,147,mmHg,147,147,mmHg,,,,1,SCREENING 1,-7,2013-12-26,-7,AFTER STANDING FOR 3 MINUTES,817,PT3M,PATIENT STANDING
144,CDISCPILOT01,01-701-1015,1015,701,USA,VS,2014-01-02,2014-07-02,2014-01-02,2014-07-02,2014-07-02T11:45,,,,,,,,,,,,144,NA,2013-12-26,-7,63,YEARS,18-64,F,WHITE,White,HISPANIC OR LATINO,Y,Placebo,Pbo,Placebo,Pbo,Placebo,Placebo,2014-01-02,2014-01-02T00:00:00Z,H,2014-07-02,2014-07-02T23:59:59Z,H,COMPLETED,2014-07-02,,2014-01-02,2014-07-02,182,,,,,2013-12-31,-2,,,AFTER LYING DOWN FOR 5 MINUTES,815,Systolic Blood Pressure (mmHg),SYSBP,9,Vital Sign,2,138,,,131,,,,,,,,,,111,SYSBP,Systolic Blood Pressure,SUPINE,138,mmHg,138,138,mmHg,,,,2,SCREENING 2,-1,2013-12-31,-2,AFTER LYING DOWN FOR 5 MINUTES,815,PT5M,PATIENT SUPINE
145,CDISCPILOT01,01-701-1015,1015,701,USA,VS,2014-01-02,2014-07-02,2014-01-02,2014-07-02,2014-07-02T11:45,,,,,,,,,,,,145,NA,2013-12-26,-7,63,YEARS,18-64,F,WHITE,White,HISPANIC OR LATINO,Y,Placebo,Pbo,Placebo,Pbo,Placebo,Placebo,2014-01-02,2014-01-02T00:00:00Z,H,2014-07-02,2014-07-02T23:59:59Z,H,COMPLETED,2014-07-02,,2014-01-02,2014-07-02,182,,,,,2013-12-31,-2,,,AFTER STANDING FOR 1 MINUTE,816,Systolic Blood Pressure (mmHg),SYSBP,9,Vital Sign,2,137,,,131,,,,,,,,,,112,SYSBP,Systolic Blood Pressure,STANDING,137,mmHg,137,137,mmHg,,,,2,SCREENING 2,-1,2013-12-31,-2,AFTER STANDING FOR 1 MINUTE,816,PT1M,PATIENT STANDING
146,CDISCPILOT01,01-701-1015,1015,701,USA,VS,2014-01-02,2014-07-02,2014-01-02,2014-07-02,2014-07-02T11:45,,,,,,,,,,,,146,NA,2013-12-26,-7,63,YEARS,18-64,F,WHITE,White,HISPANIC OR LATINO,Y,Placebo,Pbo,Placebo,Pbo,Placebo,Placebo,2014-01-02,2014-01-02T00:00:00Z,H,2014-07-02,2014-07-02T23:59:59Z,H,COMPLETED,2014-07-02,,2014-01-02,2014-07-02,182,,,,,2013-12-31,-2,,,AFTER STANDING FOR 3 MINUTES,817,Systolic Blood Pressure (mmHg),SYSBP,9,Vital Sign,2,145,,,131,,,,,,,,,,113,SYSBP,Systolic Blood Pressure,STANDING,145,mmHg,145,145,mmHg,,,,2,SCREENING 2,-1,2013-12-31,-2,AFTER STANDING FOR 3 MINUTES,817,PT3M,PATIENT STANDING
147,CDISCPILOT01,01-701-1015,1015,701,USA,VS,2014-01-02,2014-07-02,2014-01-02,2014-07-02,2014-07-02T11:45,,,,,,,,,,,,147,NA,2013-12-26,-7,63,YEARS,18-64,F,WHITE,White,HISPANIC OR LATINO,Y,Placebo,Pbo,Placebo,Pbo,Placebo,Placebo,2014-01-02,2014-01-02T00:00:00Z,H,2014-07-02,2014-07-02T23:59:59Z,H,COMPLETED,2014-07-02,,2014-01-02,2014-07-02,182,,,,,2014-01-02,1,Baseline,0,AFTER LYING DOWN FOR 5 MINUTES,815,Systolic Blood Pressure (mmHg),SYSBP,9,Vital Sign,2,130,,,131,,,,,,,,,,114,SYSBP,Systolic Blood Pressure,SUPINE,130,mmHg,130,130,mmHg,,,Y,3,BASELINE,1,2014-01-02,1,AFTER LYING DOWN FOR 5 MINUTES,815,PT5M,PATIENT SUPINE
148,CDISCPILOT01,01-701-1015,1015,701,USA,VS,2014-01-02,2014-07-02,2014-01-02,2014-07-02,2014-07-02T11:45,,,,,,,,,,,,148,NA,2013-12-26,-7,63,YEARS,18-64,F,WHITE,White,HISPANIC OR LATINO,Y,Placebo,Pbo,Placebo,Pbo,Placebo,Placebo,2014-01-02,2014-01-02T00:00:00Z,H,2014-07-02,2014-07-02T23:59:59Z,H,COMPLETED,2014-07-02,,2014-01-02,2014-07-02,182,,,,,2014-01-02,1,Baseline,0,AFTER STANDING FOR 1 MINUTE,816,Systolic Blood Pressure (mmHg),SYSBP,9,Vital Sign,2,121,,,131,,,,,,,,,,115,SYSBP,Systolic Blood Pressure,STANDING,121,mmHg,121,121,mmHg,,,Y,3,BASELINE,1,2014-01-02,1,AFTER STANDING FOR 1 MINUTE,816,PT1M,PATIENT STANDING
149,CDISCPILOT01,01-701-1015,1015,701,USA,VS,2014-01-02,2014-07-02,2014-01-02,2014-07-02,2014-07-02T11:45,,,,,,,,,,,,149,NA,2013-12-26,-7,63,YEARS,18-64,F,WHITE,White,HISPANIC OR LATINO,Y,Placebo,Pbo,Placebo,Pbo,Placebo,Placebo,2014-01-02,2014-01-02T00:00:00Z,H,2014-07-02,2014-07-02T23:59:59Z,H,COMPLETED,2014-07-02,,2014-01-02,2014-07-02,182,,,,,2014-01-02,1,Baseline,0,AFTER STANDING FOR 3 MINUTES,817,Systolic Blood Pressure (mmHg),SYSBP,9,Vital Sign,2,131,,,131,,,,,,,,,Y,116,SYSBP,Systolic Blood Pressure,STANDING,131,mmHg,131,131,mmHg,,,Y,3,BASELINE,1,2014-01-02,1,AFTER STANDING FOR 3 MINUTES,817,PT3M,PATIENT STANDING
150,CDISCPILOT01,01-701-1015,1015,701,USA,VS,2014-01-02,2014-07-02,2014-01-02,2014-07-02,2014-07-02T11:45,,,,,,,,,,,,150,NA,2013-12-26,-7,63,YEARS,18-64,F,WHITE,White,HISPANIC OR LATINO,Y,Placebo,Pbo,Placebo,Pbo,Placebo,Placebo,2014-01-02,2014-01-02T00:00:00Z,H,2014-07-02,2014-07-02T23:59:59Z,H,COMPLETED,2014-07-02,,2014-01-02,2014-07-02,182,,,,,2014-01-14,13,,,AFTER LYING DOWN FOR 5 MINUTES,815,Systolic Blood Pressure (mmHg),SYSBP,9,Vital Sign,2,137,,,131,,,,,,,,,,117,SYSBP,Systolic Blood Pressure,SUPINE,137,mmHg,137,137,mmHg,,,,3.5,AMBUL ECG PLACEMENT,13,2014-01-14,13,AFTER LYING DOWN FOR 5 MINUTES,815,PT5M,PATIENT SUPINE
151,CDISCPILOT01,01-701-1015,1015,701,USA,VS,2014-01-02,2014-07-02,2014-01-02,2014-07-02,2014-07-02T11:45,,,,,,,,,,,,151,NA,2013-12-26,-7,63,YEARS,18-64,F,WHITE,White,HISPANIC OR LATINO,Y,Placebo,Pbo,Placebo,Pbo,Placebo,Placebo,2014-01-02,2014-01-02T00:00:00Z,H,2014-07-02,2014-07-02T23:59:59Z,H,COMPLETED,2014-07-02,,2014-01-02,2014-07-02,182,,,,,2014-01-14,13,,,AFTER STANDING FOR 1 MINUTE,816,Systolic Blood Pressure (mmHg),SYSBP,9,Vital Sign,2,127,,,131,,,,,,,,,,118,SYSBP,Systolic Blood Pressure,STANDING,127,mmHg,127,127,mmHg,,,,3.5,AMBUL ECG PLACEMENT,13,2014-01-14,13,AFTER STANDING FOR 1 MINUTE,816,PT1M,PATIENT STANDING
152,CDISCPILOT01,01-701-1015,1015,701,USA,VS,2014-01-02,2014-07-02,2014-01-02,2014-07-02,2014-07-02T11:45,,,,,,,,,,,,152,NA,2013-12-26,-7,63,YEARS,18-64,F,WHITE,White,HISPANIC OR LATINO,Y,Placebo,Pbo,Placebo,Pbo,Placebo,Placebo,2014-01-02,2014-01-02T00:00:00Z,H,2014-07-02,2014-07-02T23:59:59Z,H,COMPLETED,2014-07-02,,2014-01-02,2014-07-02,182,,,,,2014-01-14,13,,,AFTER STANDING FOR 3 MINUTES,817,Systolic Blood Pressure (mmHg),SYSBP,9,Vital Sign,2,146,,,131,,,,,,,,,,119,SYSBP,Systolic Blood Pressure,STANDING,146,mmHg,146,146,mmHg,,,,3.5,AMBUL ECG PLACEMENT,13,2014-01-14,13,AFTER STANDING FOR 3 MINUTES,817,PT3M,PATIENT STANDING
153,CDISCPILOT01,01-701-1015,1015,701,USA,VS,2014-01-02,2014-07-02,2014-01-02,2014-07-02,2014-07-02T11:45,,,,,,,,,,,,153,NA,2013-12-26,-7,63,YEARS,18-64,F,WHITE,White,HISPANIC OR LATINO,Y,Placebo,Pbo,Placebo,Pbo,Placebo,Placebo,2014-01-02,2014-01-02T00:00:00Z,H,2014-07-02,2014-07-02T23:59:59Z,H,COMPLETED,2014-07-02,,2014-01-02,2014-07-02,182,,,,,2014-01-16,15,Week 2,2,AFTER LYING DOWN FOR 5 MINUTES,815,Systolic Blood Pressure (mmHg),SYSBP,9,Vital Sign,2,114,,,131,,,-17,-12.977099236641221,,,,,,120,SYSBP,Systolic Blood Pressure,SUPINE,114,mmHg,114,114,mmHg,,,,4,WEEK 2,14,2014-01-16,15,AFTER LYING DOWN FOR 5 MINUTES,815,PT5M,PATIENT SUPINE
154,CDISCPILOT01,01-701-1015,1015,701,USA,VS,2014-01-02,2014-07-02,2014-01-02,2014-07-02,2014-07-02T11:45,,,,,,,,,,,,154,NA,2013-12-26,-7,63,YEARS,18-64,F,WHITE,White,HISPANIC OR LATINO,Y,Placebo,Pbo,Placebo,Pbo,Placebo,Placebo,2014-01-02,2014-01-02T00:00:00Z,H,2014-07-02,2014-07-02T23:59:59Z,H,COMPLETED,2014-07-02,,2014-01-02,2014-07-02,182,,,,,2014-01-16,15,Week 2,2,AFTER STANDING FOR 1 MINUTE,816,Systolic Blood Pressure (mmHg),SYSBP,9,Vital Sign,2,121,,,131,,,-10,-7.633587786259542,,,,,,121,SYSBP,Systolic Blood Pressure,STANDING,121,mmHg,121,121,mmHg,,,,4,WEEK 2,14,2014-01-16,15,AFTER STANDING FOR 1 MINUTE,816,PT1M,PATIENT STANDING
155,CDISCPILOT01,01-701-1015,1015,701,USA,VS,2014-01-02,2014-07-02,2014-01-02,2014-07-02,2014-07-02T11:45,,,,,,,,,,,,155,NA,2013-12-26,-7,63,YEARS,18-64,F,WHITE,White,HISPANIC OR LATINO,Y,Placebo,Pbo,Placebo,Pbo,Placebo,Placebo,2014-01-02,2014-01-02T00:00:00Z,H,2014-07-02,2014-07-02T23:59:59Z,H,COMPLETED,2014-07-02,,2014-01-02,2014-07-02,182,,,,,2014-01-16,15,Week 2,2,AFTER STANDING FOR 3 MINUTES,817,Systolic Blood Pressure (mmHg),SYSBP,9,Vital Sign,2,132,,,131,,,1,0.7633587786259541,,,,,,122,SYSBP,Systolic Blood Pressure,STANDING,132,mmHg,132,132,mmHg,,,,4,WEEK 2,14,2014-01-16,15,AFTER STANDING FOR 3 MINUTES,817,PT3M,PATIENT STANDING
156,CDISCPILOT01,01-701-1015,1015,701,USA,VS,2014-01-02,2014-07-02,2014-01-02,2014-07-02,2014-07-02T11:45,,,,,,,,,,,,156,NA,2013-12-26,-7,63,YEARS,18-64,F,WHITE,White,HISPANIC OR LATINO,Y,Placebo,Pbo,Placebo,Pbo,Placebo,Placebo,2014-01-02,2014-01-02T00:00:00Z,H,2014-07-02,2014-07-02T23:59:59Z,H,COMPLETED,2014-07-02,,2014-01-02,2014-07-02,182,,,,,2014-01-30,29,Week 4,4,AFTER LYING DOWN FOR 5 MINUTES,815,Systolic Blood Pressure (mmHg),SYSBP,9,Vital Sign,2,138,,,131,,,7,5.343511450381679,,,,,,123,SYSBP,Systolic Blood Pressure,SUPINE,138,mmHg,138,138,mmHg,,,,5,WEEK 4,28,2014-01-30,29,AFTER LYING DOWN FOR 5 MINUTES,815,PT5M,PATIENT SUPINE
157,CDISCPILOT01,01-701-1015,1015,701,USA,VS,2014-01-02,2014-07-02,2014-01-02,2014-07-02,2014-07-02T11:45,,,,,,,,,,,,157,NA,2013-12-26,-7,63,YEARS,18-64,F,WHITE,White,HISPANIC OR LATINO,Y,Placebo,Pbo,Placebo,Pbo,Placebo,Placebo,2014-01-02,2014-01-02T00:00:00Z,H,2014-07-02,2014-07-02T23:59:59Z,H,COMPLETED,2014-07-02,,2014-01-02,2014-07-02,182,,,,,2014-01-30,29,Week 4,4,AFTER STANDING FOR 1 MINUTE,816,Systolic Blood Pressure (mmHg),SYSBP,9,Vital Sign,2,137,,,131,,,6,4.580152671755725,,,,,,124,SYSBP,Systolic Blood Pressure,STANDING,137,mmHg,137,137,mmHg,,,,5,WEEK 4,28,2014-01-30,29,AFTER STANDING FOR 1 MINUTE,816,PT1M,PATIENT STANDING
158,CDISCPILOT01,01-701-1015,1015,701,USA,VS,2014-01-02,2014-07-02,2014-01-02,2014-07-02,2014-07-02T11:45,,,,,,,,,,,,158,NA,2013-12-26,-7,63,YEARS,18-64,F,WHITE,White,HISPANIC OR LATINO,Y,Placebo,Pbo,Placebo,Pbo,Placebo,Placebo,2014-01-02,2014-01-02T00:00:00Z,H,2014-07-02,2014-07-02T23:59:59Z,H,COMPLETED,2014-07-02,,2014-01-02,2014-07-02,182,,,,,2014-01-30,29,Week 4,4,AFTER STANDING FOR 3 MINUTES,817,Systolic Blood Pressure (mmHg),SYSBP,9,Vital Sign,2,132,,,131,,,1,0.7633587786259541,,,,,,125,SYSBP,Systolic Blood Pressure,STANDING,132,mmHg,132,132,mmHg,,,,5,WEEK 4,28,2014-01-30,29,AFTER STANDING FOR 3 MINUTES,817,PT3M,PATIENT STANDING
159,CDISCPILOT01,01-701-1015,1015,701,USA,VS,2014-01-02,2014-07-02,2014-01-02,2014-07-02,2014-07-02T11:45,,,,,,,,,,,,159,NA,2013-12-26,-7,63,YEARS,18-64,F,WHITE,White,HISPANIC OR LATINO,Y,Placebo,Pbo,Placebo,Pbo,Placebo,Placebo,2014-01-02,2014-01-02T00:00:00Z,H,2014-07-02,2014-07-02T23:59:59Z,H,COMPLETED,2014-07-02,,2014-01-02,2014-07-02,182,,,,,2014-02-01,31,,,AFTER LYING DOWN FOR 5 MINUTES,815,Systolic Blood Pressure (mmHg),SYSBP,9,Vital Sign,2,138,,,131,,,,,,,,,,126,SYSBP,Systolic Blood Pressure,SUPINE,138,mmHg,138,138,mmHg,,,,6,AMBUL ECG REMOVAL,30,2014-02-01,31,AFTER LYING DOWN FOR 5 MINUTES,815,PT5M,PATIENT SUPINE
160,CDISCPILOT01,01-701-1015,1015,701,USA,VS,2014-01-02,2014-07-02,2014-01-02,2014-07-02,2014-07-02T11:45,,,,,,,,,,,,160,NA,2013-12-26,-7,63,YEARS,18-64,F,WHITE,White,HISPANIC OR LATINO,Y,Placebo,Pbo,Placebo,Pbo,Placebo,Placebo,2014-01-02,2014-01-02T00:00:00Z,H,2014-07-02,2014-07-02T23:59:59Z,H,COMPLETED,2014-07-02,,2014-01-02,2014-07-02,182,,,,,2014-02-01,31,,,AFTER STANDING FOR 1 MINUTE,816,Systolic Blood Pressure (mmHg),SYSBP,9,Vital Sign,2,131,,,131,,,,,,,,,,127,SYSBP,Systolic Blood Pressure,STANDING,131,mmHg,131,131,mmHg,,,,6,AMBUL ECG REMOVAL,30,2014-02-01,31,AFTER STANDING FOR 1 MINUTE,816,PT1M,PATIENT STANDING
161,CDISCPILOT01,01-701-1015,1015,701,USA,VS,2014-01-02,2014-07-02,2014-01-02,2014-07-02,2014-07-02T11:45,,,,,,,,,,,,161,NA,2013-12-26,-7,63,YEARS,18-64,F,WHITE,White,HISPANIC OR LATINO,Y,Placebo,Pbo,Placebo,Pbo,Placebo,Placebo,2014-01-02,2014-01-02T00:00:00Z,H,2014-07-02,2014-07-02T23:59:59Z,H,COMPLETED,2014-07-02,,2014-01-02,2014-07-02,182,,,,,2014-02-01,31,,,AFTER STANDING FOR 3 MINUTES,817,Systolic Blood Pressure (mmHg),SYSBP,9,Vital Sign,2,123,,,131,,,,,,,,,,128,SYSBP,Systolic Blood Pressure,STANDING,123,mmHg,123,123,mmHg,,,,6,AMBUL ECG REMOVAL,30,2014-02-01,31,AFTER STANDING FOR 3 MINUTES,817,PT3M,PATIENT STANDING
162,CDISCPILOT01,01-701-1015,1015,701,USA,VS,2014-01-02,2014-07-02,2014-01-02,2014-07-02,2014-07-02T11:45,,,,,,,,,,,,162,NA,2013-12-26,-7,63,YEARS,18-64,F,WHITE,White,HISPANIC OR LATINO,Y,Placebo,Pbo,Placebo,Pbo,Placebo,Placebo,2014-01-02,2014-01-02T00:00:00Z,H,2014-07-02,2014-07-02T23:59:59Z,H,COMPLETED,2014-07-02,,2014-01-02,2014-07-02,182,,,,,2014-02-12,42,Week 6,6,AFTER LYING DOWN FOR 5 MINUTES,815,Systolic Blood Pressure (mmHg),SYSBP,9,Vital Sign,2,148,,,131,,,17,12.977099236641221,,,,,,129,SYSBP,Systolic Blood Pressure,SUPINE,148,mmHg,148,148,mmHg,,,,7,WEEK 6,42,2014-02-12,42,AFTER LYING DOWN FOR 5 MINUTES,815,PT5M,PATIENT SUPINE
163,CDISCPILOT01,01-701-1015,1015,701,USA,VS,2014-01-02,2014-07-02,2014-01-02,2014-07-02,2014-07-02T11:45,,,,,,,,,,,,163,NA,2013-12-26,-7,63,YEARS,18-64,F,WHITE,White,HISPANIC OR LATINO,Y,Placebo,Pbo,Placebo,Pbo,Placebo,Placebo,2014-01-02,2014-01-02T00:00:00Z,H,2014-07-02,2014-07-02T23:59:59Z,H,COMPLETED,2014-07-02,,2014-01-02,2014-07-02,182,,,,,2014-02-12,42,Week 6,6,AFTER STANDING FOR 1 MINUTE,816,Systolic Blood Pressure (mmHg),SYSBP,9,Vital Sign,2,137,,,131,,,6,4.580152671755725,,,,,,130,SYSBP,Systolic Blood Pressure,STANDING,137,mmHg,137,137,mmHg,,,,7,WEEK 6,42,2014-02-12,42,AFTER STANDING FOR 1 MINUTE,816,PT1M,PATIENT STANDING
164,CDISCPILOT01,01-701-1015,1015,701,USA,VS,2014-01-02,2014-07-02,2014-01-02,2014-07-02,2014-07-02T11:45,,,,,,,,,,,,164,NA,2013-12-26,-7,63,YEARS,18-64,F,WHITE,White,HISPANIC OR LATINO,Y,Placebo,Pbo,Placebo,Pbo,Placebo,Placebo,2014-01-02,2014-01-02T00:00:00Z,H,2014-07-02,2014-07-02T23:59:59Z,H,COMPLETED,2014-07-02,,2014-01-02,2014-07-02,182,,,,,2014-02-12,42,Week 6,6,AFTER STANDING FOR 3 MINUTES,817,Systolic Blood Pressure (mmHg),SYSBP,9,Vital Sign,2,138,,,131,,,7,5.343511450381679,,,,,,131,SYSBP,Systolic Blood Pressure,STANDING,138,mmHg,138,138,mmHg,,,,7,WEEK 6,42,2014-02-12,42,AFTER STANDING FOR 3 MINUTES,817,PT3M,PATIENT STANDING
165,CDISCPILOT01,01-701-1015,1015,701,USA,VS,2014-01-02,2014-07-02,2014-01-02,2014-07-02,2014-07-02T11:45,,,,,,,,,,,,165,NA,2013-12-26,-7,63,YEARS,18-64,F,WHITE,White,HISPANIC OR LATINO,Y,Placebo,Pbo,Placebo,Pbo,Placebo,Placebo,2014-01-02,2014-01-02T00:00:00Z,H,2014-07-02,2014-07-02T23:59:59Z,H,COMPLETED,2014-07-02,,2014-01-02,2014-07-02,182,,,,,2014-03-05,63,Week 8,8,AFTER LYING DOWN FOR 5 MINUTES,815,Systolic Blood Pressure (mmHg),SYSBP,9,Vital Sign,2,138,,,131,,,7,5.343511450381679,,,,,,132,SYSBP,Systolic Blood Pressure,SUPINE,138,mmHg,138,138,mmHg,,,,8,WEEK 8,56,2014-03-05,63,AFTER LYING DOWN FOR 5 MINUTES,815,PT5M,PATIENT SUPINE
166,CDISCPILOT01,01-701-1015,1015,701,USA,VS,2014-01-02,2014-07-02,2014-01-02,2014-07-02,2014-07-02T11:45,,,,,,,,,,,,166,NA,2013-12-26,-7,63,YEARS,18-64,F,WHITE,White,HISPANIC OR LATINO,Y,Placebo,Pbo,Placebo,Pbo,Placebo,Placebo,2014-01-02,2014-01-02T00:00:00Z,H,2014-07-02,2014-07-02T23:59:59Z,H,COMPLETED,2014-07-02,,2014-01-02,2014-07-02,182,,,,,2014-03-05,63,Week 8,8,AFTER STANDING FOR 1 MINUTE,816,Systolic Blood Pressure (mmHg),SYSBP,9,Vital Sign,2,146,,,131,,,15,11.450381679389313,,,,,,133,SYSBP,Systolic Blood Pressure,STANDING,146,mmHg,146,146,mmHg,,,,8,WEEK 8,56,2014-03-05,63,AFTER STANDING FOR 1 MINUTE,816,PT1M,PATIENT STANDING
167,CDISCPILOT01,01-701-1015,1015,701,USA,VS,2014-01-02,2014-07-02,2014-01-02,2014-07-02,2014-07-02T11:45,,,,,,,,,,,,167,NA,2013-12-26,-7,63,YEARS,18-64,F,WHITE,White,HISPANIC OR LATINO,Y,Placebo,Pbo,Placebo,Pbo,Placebo,Placebo,2014-01-02,2014-01-02T00:00:00Z,H,2014-07-02,2014-07-02T23:59:59Z,H,COMPLETED,2014-07-02,,2014-01-02,2014-07-02,182,,,,,2014-03-05,63,Week 8,8,AFTER STANDING FOR 3 MINUTES,817,Systolic Blood Pressure (mmHg),SYSBP,9,Vital Sign,2,140,,,131,,,9,6.870229007633588,,,,,,134,SYSBP,Systolic Blood Pressure,STANDING,140,mmHg,140,140,mmHg,,,,8,WEEK 8,56,2014-03-05,63,AFTER STANDING FOR 3 MINUTES,817,PT3M,PATIENT STANDING
168,CDISCPILOT01,01-701-1015,1015,701,USA,VS,2014-01-02,2014-07-02,2014-01-02,2014-07-02,2014-07-02T11:45,,,,,,,,,,,,168,NA,2013-12-26,-7,63,YEARS,18-64,F,WHITE,White,HISPANIC OR LATINO,Y,Placebo,Pbo,Placebo,Pbo,Placebo,Placebo,2014-01-02,2014-01-02T00:00:00Z,H,2014-07-02,2014-07-02T23:59:59Z,H,COMPLETED,2014-07-02,,2014-01-02,2014-07-02,182,,,,,2014-03-26,84,Week 12,12,AFTER LYING DOWN FOR 5 MINUTES,815,Systolic Blood Pressure (mmHg),SYSBP,9,Vital Sign,2,139,,,131,,,8,6.106870229007633,,,,,,135,SYSBP,Systolic Blood Pressure,SUPINE,139,mmHg,139,139,mmHg,,,,9,WEEK 12,84,2014-03-26,84,AFTER LYING DOWN FOR 5 MINUTES,815,PT5M,PATIENT SUPINE
169,CDISCPILOT01,01-701-1015,1015,701,USA,VS,2014-01-02,2014-07-02,2014-01-02,2014-07-02,2014-07-02T11:45,,,,,,,,,,,,169,NA,2013-12-26,-7,63,YEARS,18-64,F,WHITE,White,HISPANIC OR LATINO,Y,Placebo,Pbo,Placebo,Pbo,Placebo,Placebo,2014-01-02,2014-01-02T00:00:00Z,H,2014-07-02,2014-07-02T23:59:59Z,H,COMPLETED,2014-07-02,,2014-01-02,2014-07-02,182,,,,,2014-03-26,84,Week 12,12,AFTER STANDING FOR 1 MINUTE,816,Systolic Blood Pressure (mmHg),SYSBP,9,Vital Sign,2,146,,,131,,,15,11.450381679389313,,,,,,136,SYSBP,Systolic Blood Pressure,STANDING,146,mmHg,146,146,mmHg,,,,9,WEEK 12,84,2014-03-26,84,AFTER STANDING FOR 1 MINUTE,816,PT1M,PATIENT STANDING
170,CDISCPILOT01,01-701-1015,1015,701,USA,VS,2014-01-02,2014-07-02,2014-01-02,2014-07-02,2014-07-02T11:45,,,,,,,,,,,,170,NA,2013-12-26,-7,63,YEARS,18-64,F,WHITE,White,HISPANIC OR LATINO,Y,Placebo,Pbo,Placebo,Pbo,Placebo,Placebo,2014-01-02,2014-01-02T00:00:00Z,H,2014-07-02,2014-07-02T23:59:59Z,H,COMPLETED,2014-07-02,,2014-01-02,2014-07-02,182,,,,,2014-03-26,84,Week 12,12,AFTER STANDING FOR 3 MINUTES,817,Systolic Blood Pressure (mmHg),SYSBP,9,Vital Sign,2,138,,,131,,,7,5.343511450381679,,,,,,137,SYSBP,Systolic Blood Pressure,STANDING,138,mmHg,138,138,mmHg,,,,9,WEEK 12,84,2014-03-26,84,AFTER STANDING FOR 3 MINUTES,817,PT3M,PATIENT STANDING
171,CDISCPILOT01,01-701-1015,1015,701,USA,VS,2014-01-02,2014-07-02,2014-01-02,2014-07-02,2014-07-02T11:45,,,,,,,,,,,,171,NA,2013-12-26,-7,63,YEARS,18-64,F,WHITE,White,HISPANIC OR LATINO,Y,Placebo,Pbo,Placebo,Pbo,Placebo,Placebo,2014-01-02,2014-01-02T00:00:00Z,H,2014-07-02,2014-07-02T23:59:59Z,H,COMPLETED,2014-07-02,,2014-01-02,2014-07-02,182,,,,,2014-05-07,126,Week 16,16,AFTER LYING DOWN FOR 5 MINUTES,815,Systolic Blood Pressure (mmHg),SYSBP,9,Vital Sign,2,163,,,131,,,32,24.427480916030532,,,,,,138,SYSBP,Systolic Blood Pressure,SUPINE,163,mmHg,163,163,mmHg,,,,10,WEEK 16,112,2014-05-07,126,AFTER LYING DOWN FOR 5 MINUTES,815,PT5M,PATIENT SUPINE
172,CDISCPILOT01,01-701-1015,1015,701,USA,VS,2014-01-02,2014-07-02,2014-01-02,2014-07-02,2014-07-02T11:45,,,,,,,,,,,,172,NA,2013-12-26,-7,63,YEARS,18-64,F,WHITE,White,HISPANIC OR LATINO,Y,Placebo,Pbo,Placebo,Pbo,Placebo,Placebo,2014-01-02,2014-01-02T00:00:00Z,H,2014-07-02,2014-07-02T23:59:59Z,H,COMPLETED,2014-07-02,,2014-01-02,2014-07-02,182,,,,,2014-05-07,126,Week 16,16,AFTER STANDING FOR 1 MINUTE,816,Systolic Blood Pressure (mmHg),SYSBP,9,Vital Sign,2,145,,,131,,,14,10.687022900763358,,,,,,139,SYSBP,Systolic Blood Pressure,STANDING,145,mmHg,145,145,mmHg,,,,10,WEEK 16,112,2014-05-07,126,AFTER STANDING FOR 1 MINUTE,816,PT1M,PATIENT STANDING
173,CDISCPILOT01,01-701-1015,1015,701,USA,VS,2014-01-02,2014-07-02,2014-01-02,2014-07-02,2014-07-02T11:45,,,,,,,,,,,,173,NA,2013-12-26,-7,63,YEARS,18-64,F,WHITE,White,HISPANIC OR LATINO,Y,Placebo,Pbo,Placebo,Pbo,Placebo,Placebo,2014-01-02,2014-01-02T00:00:00Z,H,2014-07-02,2014-07-02T23:59:59Z,H,COMPLETED,2014-07-02,,2014-01-02,2014-07-02,182,,,,,2014-05-07,126,Week 16,16,AFTER STANDING FOR 3 MINUTES,817,Systolic Blood Pressure (mmHg),SYSBP,9,Vital Sign,2,152,,,131,,,21,16.030534351145036,,,,,,140,SYSBP,Systolic Blood Pressure,STANDING,152,mmHg,152,152,mmHg,,,,10,WEEK 16,112,2014-05-07,126,AFTER STANDING FOR 3 MINUTES,817,PT3M,PATIENT STANDING
174,CDISCPILOT01,01-701-1015,1015,701,USA,VS,2014-01-02,2014-07-02,2014-01-02,2014-07-02,2014-07-02T11:45,,,,,,,,,,,,174,NA,2013-12-26,-7,63,YEARS,18-64,F,WHITE,White,HISPANIC OR LATINO,Y,Placebo,Pbo,Placebo,Pbo,Placebo,Placebo,2014-01-02,2014-01-02T00:00:00Z,H,2014-07-02,2014-07-02T23:59:59Z,H,COMPLETED,2014-07-02,,2014-01-02,2014-07-02,182,,,,,2014-05-21,140,Week 20,20,AFTER LYING DOWN FOR 5 MINUTES,815,Systolic Blood Pressure (mmHg),SYSBP,9,Vital Sign,2,137,,,131,,,6,4.580152671755725,,,,,,141,SYSBP,Systolic Blood Pressure,SUPINE,137,mmHg,137,137,mmHg,,,,11,WEEK 20,140,2014-05-21,140,AFTER LYING DOWN FOR 5 MINUTES,815,PT5M,PATIENT SUPINE
175,CDISCPILOT01,01-701-1015,1015,701,USA,VS,2014-01-02,2014-07-02,2014-01-02,2014-07-02,2014-07-02T11:45,,,,,,,,,,,,175,NA,2013-12-26,-7,63,YEARS,18-64,F,WHITE,White,HISPANIC OR LATINO,Y,Placebo,Pbo,Placebo,Pbo,Placebo,Placebo,2014-01-02,2014-01-02T00:00:00Z,H,2014-07-02,2014-07-02T23:59:59Z,H,COMPLETED,2014-07-02,,2014-01-02,2014-07-02,182,,,,,2014-05-21,140,Week 20,20,AFTER STANDING FOR 1 MINUTE,816,Systolic Blood Pressure (mmHg),SYSBP,9,Vital Sign,2,139,,,131,,,8,6.106870229007633,,,,,,142,SYSBP,Systolic Blood Pressure,STANDING,139,mmHg,139,139,mmHg,,,,11,WEEK 20,140,2014-05-21,140,AFTER STANDING FOR 1 MINUTE,816,PT1M,PATIENT STANDING
176,CDISCPILOT01,01-701-1015,1015,701,USA,VS,2014-01-02,2014-07-02,2014-01-02,2014-07-02,2014-07-02T11:45,,,,,,,,,,,,176,NA,2013-12-26,-7,63,YEARS,18-64,F,WHITE,White,HISPANIC OR LATINO,Y,Placebo,Pbo,Placebo,Pbo,Placebo,Placebo,2014-01-02,2014-01-02T00:00:00Z,H,2014-07-02,2014-07-02T23:59:59Z,H,COMPLETED,2014-07-02,,2014-01-02,2014-07-02,182,,,,,2014-05-21,140,Week 20,20,AFTER STANDING FOR 3 MINUTES,817,Systolic Blood Pressure (mmHg),SYSBP,9,Vital Sign,2,136,,,131,,,5,3.816793893129771,,,,,,143,SYSBP,Systolic Blood Pressure,STANDING,136,mmHg,136,136,mmHg,,,,11,WEEK 20,140,2014-05-21,140,AFTER STANDING FOR 3 MINUTES,817,PT3M,PATIENT STANDING
177,CDISCPILOT01,01-701-1015,1015,701,USA,VS,2014-01-02,2014-07-02,2014-01-02,2014-07-02,2014-07-02T11:45,,,,,,,,,,,,177,NA,2013-12-26,-7,63,YEARS,18-64,F,WHITE,White,HISPANIC OR LATINO,Y,Placebo,Pbo,Placebo,Pbo,Placebo,Placebo,2014-01-02,2014-01-02T00:00:00Z,H,2014-07-02,2014-07-02T23:59:59Z,H,COMPLETED,2014-07-02,,2014-01-02,2014-07-02,182,,,,,2014-06-18,168,Week 24,24,AFTER LYING DOWN FOR 5 MINUTES,815,Systolic Blood Pressure (mmHg),SYSBP,9,Vital Sign,2,129,,,131,,,-2,-1.5267175572519083,,,,,,144,SYSBP,Systolic Blood Pressure,SUPINE,129,mmHg,129,129,mmHg,,,,12,WEEK 24,168,2014-06-18,168,AFTER LYING DOWN FOR 5 MINUTES,815,PT5M,PATIENT SUPINE
178,CDISCPILOT01,01-701-1015,1015,701,USA,VS,2014-01-02,2014-07-02,2014-01-02,2014-07-02,2014-07-02T11:45,,,,,,,,,,,,178,NA,2013-12-26,-7,63,YEARS,18-64,F,WHITE,White,HISPANIC OR LATINO,Y,Placebo,Pbo,Placebo,Pbo,Placebo,Placebo,2014-01-02,2014-01-02T00:00:00Z,H,2014-07-02,2014-07-02T23:59:59Z,H,COMPLETED,2014-07-02,,2014-01-02,2014-07-02,182,,,,,2014-06-18,168,Week 24,24,AFTER STANDING FOR 1 MINUTE,816,Systolic Blood Pressure (mmHg),SYSBP,9,Vital Sign,2,131,,,131,,,0,0,,,,,,145,SYSBP,Systolic Blood Pressure,STANDING,131,mmHg,131,131,mmHg,,,,12,WEEK 24,168,2014-06-18,168,AFTER STANDING FOR 1 MINUTE,816,PT1M,PATIENT STANDING
179,CDISCPILOT01,01-701-1015,1015,701,USA,VS,2014-01-02,2014-07-02,2014-01-02,2014-07-02,2014-07-02T11:45,,,,,,,,,,,,179,NA,2013-12-26,-7,63,YEARS,18-64,F,WHITE,White,HISPANIC OR LATINO,Y,Placebo,Pbo,Placebo,Pbo,Placebo,Placebo,2014-01-02,2014-01-02T00:00:00Z,H,2014-07-02,2014-07-02T23:59:59Z,H,COMPLETED,2014-07-02,,2014-01-02,2014-07-02,182,,,,,2014-06-18,168,Week 24,24,AFTER STANDING FOR 3 MINUTES,817,Systolic Blood Pressure (mmHg),SYSBP,9,Vital Sign,2,137,,,131,,,6,4.580152671755725,,,,,,146,SYSBP,Systolic Blood Pressure,STANDING,137,mmHg,137,137,mmHg,,,,12,WEEK 24,168,2014-06-18,168,AFTER STANDING FOR 3 MINUTES,817,PT3M,PATIENT STANDING
180,CDISCPILOT01,01-701-1015,1015,701,USA,VS,2014-01-02,2014-07-02,2014-01-02,2014-07-02,2014-07-02T11:45,,,,,,,,,,,,180,NA,2013-12-26,-7,63,YEARS,18-64,F,WHITE,White,HISPANIC OR LATINO,Y,Placebo,Pbo,Placebo,Pbo,Placebo,Placebo,2014-01-02,2014-01-02T00:00:00Z,H,2014-07-02,2014-07-02T23:59:59Z,H,COMPLETED,2014-07-02,,2014-01-02,2014-07-02,182,,,,,2014-07-02,182,Week 26,26,AFTER LYING DOWN FOR 5 MINUTES,815,Systolic Blood Pressure (mmHg),SYSBP,9,Vital Sign,2,127,,,131,,,-4,-3.0534351145038165,,,,,,147,SYSBP,Systolic Blood Pressure,SUPINE,127,mmHg,127,127,mmHg,,,,13,WEEK 26,182,2014-07-02,182,AFTER LYING DOWN FOR 5 MINUTES,815,PT5M,PATIENT SUPINE
181,CDISCPILOT01,01-701-1015,1015,701,USA,VS,2014-01-02,2014-07-02,2014-01-02,2014-07-02,2014-07-02T11:45,,,,,,,,,,,,181,NA,2013-12-26,-7,63,YEARS,18-64,F,WHITE,White,HISPANIC OR LATINO,Y,Placebo,Pbo,Placebo,Pbo,Placebo,Placebo,2014-01-02,2014-01-02T00:00:00Z,H,2014-07-02,2014-07-02T23:59:59Z,H,COMPLETED,2014-07-02,,2014-01-02,2014-07-02,182,,,,,2014-07-02,182,Week 26,26,AFTER STANDING FOR 1 MINUTE,816,Systolic Blood Pressure (mmHg),SYSBP,9,Vital Sign,2,128,,,131,,,-3,-2.2900763358778624,,,,,,148,SYSBP,Systolic Blood Pressure,STANDING,128,mmHg,128,128,mmHg,,,,13,WEEK 26,182,2014-07-02,182,AFTER STANDING FOR 1 MINUTE,816,PT1M,PATIENT STANDING
182,CDISCPILOT01,01-701-1015,1015,701,USA,VS,2014-01-02,2014-07-02,2014-01-02,2014-07-02,2014-07-02T11:45,,,,,,,,,,,,182,NA,2013-12-26,-7,63,YEARS,18-64,F,WHITE,White,HISPANIC OR LATINO,Y,Placebo,Pbo,Placebo,Pbo,Placebo,Placebo,2014-01-02,2014-01-02T00:00:00Z,H,2014-07-02,2014-07-02T23:59:59Z,H,COMPLETED,2014-07-02,,2014-01-02,2014-07-02,182,,,,,2014-07-02,182,Week 26,26,AFTER STANDING FOR 3 MINUTES,817,Systolic Blood Pressure (mmHg),SYSBP,9,Vital Sign,2,129,,,131,,,-2,-1.5267175572519083,,,,,,149,SYSBP,Systolic Blood Pressure,STANDING,129,mmHg,129,129,mmHg,,,,13,WEEK 26,182,2014-07-02,182,AFTER STANDING FOR 3 MINUTES,817,PT3M,PATIENT STANDING
183,CDISCPILOT01,01-701-1015,1015,701,USA,VS,2014-01-02,2014-07-02,2014-01-02,2014-07-02,2014-07-02T11:45,,,,,,,,,,,,183,NA,2013-12-26,-7,63,YEARS,18-64,F,WHITE,White,HISPANIC OR LATINO,Y,Placebo,Pbo,Placebo,Pbo,Placebo,Placebo,2014-01-02,2014-01-02T00:00:00Z,H,2014-07-02,2014-07-02T23:59:59Z,H,COMPLETED,2014-07-02,,2014-01-02,2014-07-02,182,,,,,2013-12-26,-7,,,,,Temperature (C),TEMP,10,Vital Sign,2,36.06,,,36.22,,,,,,,,,,150,TEMP,Temperature,,36.06,F,36.06,36.06,F,,ORAL CAVITY,,1,SCREENING 1,-7,2013-12-26,-7,,,,
184,CDISCPILOT01,01-701-1015,1015,701,USA,VS,2014-01-02,2014-07-02,2014-01-02,2014-07-02,2014-07-02T11:45,,,,,,,,,,,,184,NA,2013-12-26,-7,63,YEARS,18-64,F,WHITE,White,HISPANIC OR LATINO,Y,Placebo,Pbo,Placebo,Pbo,Placebo,Placebo,2014-01-02,2014-01-02T00:00:00Z,H,2014-07-02,2014-07-02T23:59:59Z,H,COMPLETED,2014-07-02,,2014-01-02,2014-07-02,182,,,,,2013-12-31,-2,,,,,Temperature (C),TEMP,10,Vital Sign,2,36.11,,,36.22,,,,,,,,,,151,TEMP,Temperature,,36.11,F,36.11,36.11,F,,ORAL CAVITY,,2,SCREENING 2,-1,2013-12-31,-2,,,,
185,CDISCPILOT01,01-701-1015,1015,701,USA,VS,2014-01-02,2014-07-02,2014-01-02,2014-07-02,2014-07-02T11:45,,,,,,,,,,,,185,NA,2013-12-26,-7,63,YEARS,18-64,F,WHITE,White,HISPANIC OR LATINO,Y,Placebo,Pbo,Placebo,Pbo,Placebo,Placebo,2014-01-02,2014-01-02T00:00:00Z,H,2014-07-02,2014-07-02T23:59:59Z,H,COMPLETED,2014-07-02,,2014-01-02,2014-07-02,182,,,,,2014-01-02,1,Baseline,0,,,Temperature (C),TEMP,10,Vital Sign,2,36.22,,,36.22,,,,,,,,,Y,152,TEMP,Temperature,,36.22,F,36.22,36.22,F,,ORAL CAVITY,Y,3,BASELINE,1,2014-01-02,1,,,,
186,CDISCPILOT01,01-701-1015,1015,701,USA,VS,2014-01-02,2014-07-02,2014-01-02,2014-07-02,2014-07-02T11:45,,,,,,,,,,,,186,NA,2013-12-26,-7,63,YEARS,18-64,F,WHITE,White,HISPANIC OR LATINO,Y,Placebo,Pbo,Placebo,Pbo,Placebo,Placebo,2014-01-02,2014-01-02T00:00:00Z,H,2014-07-02,2014-07-02T23:59:59Z,H,COMPLETED,2014-07-02,,2014-01-02,2014-07-02,182,,,,,2014-01-14,13,,,,,Temperature (C),TEMP,10,Vital Sign,2,35.89,,,36.22,,,,,,,,,,153,TEMP,Temperature,,35.89,F,35.89,35.89,F,,ORAL CAVITY,,3.5,AMBUL ECG PLACEMENT,13,2014-01-14,13,,,,
187,CDISCPILOT01,01-701-1015,1015,701,USA,VS,2014-01-02,2014-07-02,2014-01-02,2014-07-02,2014-07-02T11:45,,,,,,,,,,,,187,NA,2013-12-26,-7,63,YEARS,18-64,F,WHITE,White,HISPANIC OR LATINO,Y,Placebo,Pbo,Placebo,Pbo,Placebo,Placebo,2014-01-02,2014-01-02T00:00:00Z,H,2014-07-02,2014-07-02T23:59:59Z,H,COMPLETED,2014-07-02,,2014-01-02,2014-07-02,182,,,,,2014-01-16,15,Week 2,2,,,Temperature (C),TEMP,10,Vital Sign,2,36.5,,,36.22,,,0.28000000000000114,0.7730535615681975,,,,,,154,TEMP,Temperature,,36.5,F,36.5,36.5,F,,ORAL CAVITY,,4,WEEK 2,14,2014-01-16,15,,,,
188,CDISCPILOT01,01-701-1015,1015,701,USA,VS,2014-01-02,2014-07-02,2014-01-02,2014-07-02,2014-07-02T11:45,,,,,,,,,,,,188,NA,2013-12-26,-7,63,YEARS,18-64,F,WHITE,White,HISPANIC OR LATINO,Y,Placebo,Pbo,Placebo,Pbo,Placebo,Placebo,2014-01-02,2014-01-02T00:00:00Z,H,2014-07-02,2014-07-02T23:59:59Z,H,COMPLETED,2014-07-02,,2014-01-02,2014-07-02,182,,,,,2014-01-30,29,Week 4,4,,,Temperature (C),TEMP,10,Vital Sign,2,36.11,,,36.22,,,-0.10999999999999943,-0.30369961347321767,,,,,,155,TEMP,Temperature,,36.11,F,36.11,36.11,F,,ORAL CAVITY,,5,WEEK 4,28,2014-01-30,29,,,,
189,CDISCPILOT01,01-701-1015,1015,701,USA,VS,2014-01-02,2014-07-02,2014-01-02,2014-07-02,2014-07-02T11:45,,,,,,,,,,,,189,NA,2013-12-26,-7,63,YEARS,18-64,F,WHITE,White,HISPANIC OR LATINO,Y,Placebo,Pbo,Placebo,Pbo,Placebo,Placebo,2014-01-02,2014-01-02T00:00:00Z,H,2014-07-02,2014-07-02T23:59:59Z,H,COMPLETED,2014-07-02,,2014-01-02,2014-07-02,182,,,,,2014-02-01,31,,,,,Temperature (C),TEMP,10,Vital Sign,2,36.39,,,36.22,,,,,,,,,,156,TEMP,Temperature,,36.39,F,36.39,36.39,F,,ORAL CAVITY,,6,AMBUL ECG REMOVAL,30,2014-02-01,31,,,,
190,CDISCPILOT01,01-701-1015,1015,701,USA,VS,2014-01-02,2014-07-02,2014-01-02,2014-07-02,2014-07-02T11:45,,,,,,,,,,,,190,NA,2013-12-26,-7,63,YEARS,18-64,F,WHITE,White,HISPANIC OR LATINO,Y,Placebo,Pbo,Placebo,Pbo,Placebo,Placebo,2014-01-02,2014-01-02T00:00:00Z,H,2014-07-02,2014-07-02T23:59:59Z,H,COMPLETED,2014-07-02,,2014-01-02,2014-07-02,182,,,,,2014-02-12,42,Week 6,6,,,Temperature (C),TEMP,10,Vital Sign,2,36.33,,,36.22,,,0.10999999999999943,0.30369961347321767,,,,,,157,TEMP,Temperature,,36.33,F,36.33,36.33,F,,ORAL CAVITY,,7,WEEK 6,42,2014-02-12,42,,,,
191,CDISCPILOT01,01-701-1015,1015,701,USA,VS,2014-01-02,2014-07-02,2014-01-02,2014-07-02,2014-07-02T11:45,,,,,,,,,,,,191,NA,2013-12-26,-7,63,YEARS,18-64,F,WHITE,White,HISPANIC OR LATINO,Y,Placebo,Pbo,Placebo,Pbo,Placebo,Placebo,2014-01-02,2014-01-02T00:00:00Z,H,2014-07-02,2014-07-02T23:59:59Z,H,COMPLETED,2014-07-02,,2014-01-02,2014-07-02,182,,,,,2014-03-05,63,Week 8,8,,,Temperature (C),TEMP,10,Vital Sign,2,36.67,,,36.22,,,0.45000000000000284,1.2424075096631773,,,,,,158,TEMP,Temperature,,36.67,F,36.67,36.67,F,,ORAL CAVITY,,8,WEEK 8,56,2014-03-05,63,,,,
192,CDISCPILOT01,01-701-1015,1015,701,USA,VS,2014-01-02,2014-07-02,2014-01-02,2014-07-02,2014-07-02T11:45,,,,,,,,,,,,192,NA,2013-12-26,-7,63,YEARS,18-64,F,WHITE,White,HISPANIC OR LATINO,Y,Placebo,Pbo,Placebo,Pbo,Placebo,Placebo,2014-01-02,2014-01-02T00:00:00Z,H,2014-07-02,2014-07-02T23:59:59Z,H,COMPLETED,2014-07-02,,2014-01-02,2014-07-02,182,,,,,2014-03-26,84,Week 12,12,,,Temperature (C),TEMP,10,Vital Sign,2,36.33,,,36.22,,,0.10999999999999943,0.30369961347321767,,,,,,159,TEMP,Temperature,,36.33,F,36.33,36.33,F,,ORAL CAVITY,,9,WEEK 12,84,2014-03-26,84,,,,
193,CDISCPILOT01,01-701-1015,1015,701,USA,VS,2014-01-02,2014-07-02,2014-01-02,2014-07-02,2014-07-02T11:45,,,,,,,,,,,,193,NA,2013-12-26,-7,63,YEARS,18-64,F,WHITE,White,HISPANIC OR LATINO,Y,Placebo,Pbo,Placebo,Pbo,Placebo,Placebo,2014-01-02,2014-01-02T00:00:00Z,H,2014-07-02,2014-07-02T23:59:59Z,H,COMPLETED,2014-07-02,,2014-01-02,2014-07-02,182,,,,,2014-05-07,126,Week 16,16,,,Temperature (C),TEMP,10,Vital Sign,2,36.61,,,36.22,,,0.39000000000000057,1.0767531750414152,,,,,,160,TEMP,Temperature,,36.61,F,36.61,36.61,F,,ORAL CAVITY,,10,WEEK 16,112,2014-05-07,126,,,,
194,CDISCPILOT01,01-701-1015,1015,701,USA,VS,2014-01-02,2014-07-02,2014-01-02,2014-07-02,2014-07-02T11:45,,,,,,,,,,,,194,NA,2013-12-26,-7,63,YEARS,18-64,F,WHITE,White,HISPANIC OR LATINO,Y,Placebo,Pbo,Placebo,Pbo,Placebo,Placebo,2014-01-02,2014-01-02T00:00:00Z,H,2014-07-02,2014-07-02T23:59:59Z,H,COMPLETED,2014-07-02,,2014-01-02,2014-07-02,182,,,,,2014-05-21,140,Week 20,20,,,Temperature (C),TEMP,10,Vital Sign,2,36.33,,,36.22,,,0.10999999999999943,0.30369961347321767,,,,,,161,TEMP,Temperature,,36.33,F,36.33,36.33,F,,ORAL CAVITY,,11,WEEK 20,140,2014-05-21,140,,,,
195,CDISCPILOT01,01-701-1015,1015,701,USA,VS,2014-01-02,2014-07-02,2014-01-02,2014-07-02,2014-07-02T11:45,,,,,,,,,,,,195,NA,2013-12-26,-7,63,YEARS,18-64,F,WHITE,White,HISPANIC OR LATINO,Y,Placebo,Pbo,Placebo,Pbo,Placebo,Placebo,2014-01-02,2014-01-02T00:00:00Z,H,2014-07-02,2014-07-02T23:59:59Z,H,COMPLETED,2014-07-02,,2014-01-02,2014-07-02,182,,,,,2014-06-18,168,Week 24,24,,,Temperature (C),TEMP,10,Vital Sign,2,36.5,,,36.22,,,0.28000000000000114,0.7730535615681975,,,,,,162,TEMP,Temperature,,36.5,F,36.5,36.5,F,,ORAL CAVITY,,12,WEEK 24,168,2014-06-18,168,,,,
196,CDISCPILOT01,01-701-1015,1015,701,USA,VS,2014-01-02,2014-07-02,2014-01-02,2014-07-02,2014-07-02T11:45,,,,,,,,,,,,196,NA,2013-12-26,-7,63,YEARS,18-64,F,WHITE,White,HISPANIC OR LATINO,Y,Placebo,Pbo,Placebo,Pbo,Placebo,Placebo,2014-01-02,2014-01-02T00:00:00Z,H,2014-07-02,2014-07-02T23:59:59Z,H,COMPLETED,2014-07-02,,2014-01-02,2014-07-02,182,,,,,2014-07-02,182,Week 26,26,,,Temperature (C),TEMP,10,Vital Sign,2,36.22,,,36.22,,,0,0,,,,,,163,TEMP,Temperature,,36.22,F,36.22,36.22,F,,ORAL CAVITY,,13,WEEK 26,182,2014-07-02,182,,,,
197,CDISCPILOT01,01-701-1023,1023,701,USA,VS,2012-08-05,2012-09-02,2012-08-05,2012-09-01,2013-02-18,,2013-02-18,,,,,,,,,,1,NA,2012-07-22,-14,64,YEARS,18-64,M,WHITE,White,HISPANIC OR LATINO,Y,Placebo,Pbo,Placebo,Pbo,Placebo,Placebo,2012-08-05,2012-08-05T00:00:00Z,H,2012-09-01,2012-09-01T23:59:59Z,H,DISCONTINUED,2012-09-02,,2012-08-05,2012-09-02,28,,,,,2012-07-22,-14,Baseline,0,,,Height (cm),HEIGHT,1,Anthropometric measurement,1,169,,,169,,,,,,,,,Y,211,HEIGHT,Height,,169,cm,169,169,cm,,,,1,SCREENING 1,-7,2012-07-22,-14,,,,
198,CDISCPILOT01,01-701-1023,1023,701,USA,VS,2012-08-05,2012-09-02,2012-08-05,2012-09-01,2013-02-18,,2013-02-18,,,,,,,,,,2,NA,2012-07-22,-14,64,YEARS,18-64,M,WHITE,White,HISPANIC OR LATINO,Y,Placebo,Pbo,Placebo,Pbo,Placebo,Placebo,2012-08-05,2012-08-05T00:00:00Z,H,2012-09-01,2012-09-01T23:59:59Z,H,DISCONTINUED,2012-09-02,,2012-08-05,2012-09-02,28,,,,,2012-07-22,-14,,,,,Weight (kg),WEIGHT,2,Anthropometric measurement,1,110.11,,,110.02,,,,,,,,,,265,WEIGHT,Weight,,110.11,kg,110.11,110.11,kg,,,,1,SCREENING 1,-7,2012-07-22,-14,,,,
199,CDISCPILOT01,01-701-1023,1023,701,USA,VS,2012-08-05,2012-09-02,2012-08-05,2012-09-01,2013-02-18,,2013-02-18,,,,,,,,,,3,NA,2012-07-22,-14,64,YEARS,18-64,M,WHITE,White,HISPANIC OR LATINO,Y,Placebo,Pbo,Placebo,Pbo,Placebo,Placebo,2012-08-05,2012-08-05T00:00:00Z,H,2012-09-01,2012-09-01T23:59:59Z,H,DISCONTINUED,2012-09-02,,2012-08-05,2012-09-02,28,,,,,2012-08-05,1,Baseline,0,,,Weight (kg),WEIGHT,2,Anthropometric measurement,1,110.02,,,110.02,,,,,,,,,Y,266,WEIGHT,Weight,,110.02,kg,110.02,110.02,kg,,,Y,3,BASELINE,1,2012-08-05,1,,,,
200,CDISCPILOT01,01-701-1023,1023,701,USA,VS,2012-08-05,2012-09-02,2012-08-05,2012-09-01,2013-02-18,,2013-02-18,,,,,,,,,,4,NA,2012-07-22,-14,64,YEARS,18-64,M,WHITE,White,HISPANIC OR LATINO,Y,Placebo,Pbo,Placebo,Pbo,Placebo,Placebo,2012-08-05,2012-08-05T00:00:00Z,H,2012-09-01,2012-09-01T23:59:59Z,H,DISCONTINUED,2012-09-02,,2012-08-05,2012-09-02,28,,,,,2012-08-27,23,Week 2,2,,,Weight (kg),WEIGHT,2,Anthropometric measurement,1,111.31,,,110.02,,,1.2900000000000063,1.1725140883475789,Achievement of >= 5% weight reduction from baseline,N,Achievement of >= 10% weight reduction from baseline,N,,267,WEIGHT,Weight,,111.31,kg,111.31,111.31,kg,,,,4,WEEK 2,14,2012-08-27,23,,,,
201,CDISCPILOT01,01-701-1023,1023,701,USA,VS,2012-08-05,2012-09-02,2012-08-05,2012-09-01,2013-02-18,,2013-02-18,,,,,,,,,,5,NA,2012-07-22,-14,64,YEARS,18-64,M,WHITE,White,HISPANIC OR LATINO,Y,Placebo,Pbo,Placebo,Pbo,Placebo,Placebo,2012-08-05,2012-08-05T00:00:00Z,H,2012-09-01,2012-09-01T23:59:59Z,H,DISCONTINUED,2012-09-02,,2012-08-05,2012-09-02,28,,,,,2012-09-02,29,Week 4,4,,,Weight (kg),WEIGHT,2,Anthropometric measurement,1,112.21,,,110.02,,,2.1899999999999977,1.9905471732412268,Achievement of >= 5% weight reduction from baseline,N,Achievement of >= 10% weight reduction from baseline,N,,268,WEIGHT,Weight,,112.21,kg,112.21,112.21,kg,,,,5,WEEK 4,28,2012-09-02,29,,,,
202,CDISCPILOT01,01-701-1023,1023,701,USA,,2012-08-05,2012-09-02,2012-08-05,2012-09-01,2013-02-18,,2013-02-18,,,,,,,,,,6,NA,2012-07-22,-14,64,YEARS,18-64,M,WHITE,White,HISPANIC OR LATINO,Y,Placebo,Pbo,Placebo,Pbo,Placebo,Placebo,2012-08-05,2012-08-05T00:00:00Z,H,2012-09-01,2012-09-01T23:59:59Z,H,DISCONTINUED,2012-09-02,,2012-08-05,2012-09-02,28,,,,,2012-07-22,-14,,,,,Body Mass Index (kg/m2),BMI,3,Anthropometric measurement,1,38.55257168866636,Obesity class II,5,38.52106018696824,Obesity class II,5,,,,,,,,,,,,,,,,,,,,,,,,,,,,
203,CDISCPILOT01,01-701-1023,1023,701,USA,,2012-08-05,2012-09-02,2012-08-05,2012-09-01,2013-02-18,,2013-02-18,,,,,,,,,,7,NA,2012-07-22,-14,64,YEARS,18-64,M,WHITE,White,HISPANIC OR LATINO,Y,Placebo,Pbo,Placebo,Pbo,Placebo,Placebo,2012-08-05,2012-08-05T00:00:00Z,H,2012-09-01,2012-09-01T23:59:59Z,H,DISCONTINUED,2012-09-02,,2012-08-05,2012-09-02,28,,,,,2012-08-05,1,Baseline,0,,,Body Mass Index (kg/m2),BMI,3,Anthropometric measurement,1,38.52106018696824,Obesity class II,5,38.52106018696824,Obesity class II,5,,,,,,,Y,,,,,,,,,,,,,,,,,,,,,
204,CDISCPILOT01,01-701-1023,1023,701,USA,,2012-08-05,2012-09-02,2012-08-05,2012-09-01,2013-02-18,,2013-02-18,,,,,,,,,,8,NA,2012-07-22,-14,64,YEARS,18-64,M,WHITE,White,HISPANIC OR LATINO,Y,Placebo,Pbo,Placebo,Pbo,Placebo,Placebo,2012-08-05,2012-08-05T00:00:00Z,H,2012-09-01,2012-09-01T23:59:59Z,H,DISCONTINUED,2012-09-02,,2012-08-05,2012-09-02,28,,,,,2012-08-27,23,Week 2,2,,,Body Mass Index (kg/m2),BMI,3,Anthropometric measurement,1,38.972725044641294,Obesity class II,5,38.52106018696824,Obesity class II,5,0.45166485767305176,1.172514088347576,,,,,,,,,,,,,,,,,,,,,,,,,,
205,CDISCPILOT01,01-701-1023,1023,701,USA,,2012-08-05,2012-09-02,2012-08-05,2012-09-01,2013-02-18,,2013-02-18,,,,,,,,,,9,NA,2012-07-22,-14,64,YEARS,18-64,M,WHITE,White,HISPANIC OR LATINO,Y,Placebo,Pbo,Placebo,Pbo,Placebo,Placebo,2012-08-05,2012-08-05T00:00:00Z,H,2012-09-01,2012-09-01T23:59:59Z,H,DISCONTINUED,2012-09-02,,2012-08-05,2012-09-02,28,,,,,2012-09-02,29,Week 4,4,,,Body Mass Index (kg/m2),BMI,3,Anthropometric measurement,1,39.28784006162249,Obesity class II,5,38.52106018696824,Obesity class II,5,0.7667798746542474,1.9905471732412254,,,,,,,,,,,,,,,,,,,,,,,,,,
206,CDISCPILOT01,01-701-1023,1023,701,USA,VS,2012-08-05,2012-09-02,2012-08-05,2012-09-01,2013-02-18,,2013-02-18,,,,,,,,,,10,NA,2012-07-22,-14,64,YEARS,18-64,M,WHITE,White,HISPANIC OR LATINO,Y,Placebo,Pbo,Placebo,Pbo,Placebo,Placebo,2012-08-05,2012-08-05T00:00:00Z,H,2012-09-01,2012-09-01T23:59:59Z,H,DISCONTINUED,2012-09-02,,2012-08-05,2012-09-02,28,,,,,2012-07-22,-14,,,,,Hip Circumference (cm),HIPCIR,4,Anthropometric measurement,1,110,,,110,,,,,,,,,,212,HIPCIR,Hip Circumference,,110,cm,110,110,cm,,,,1,SCREENING 1,-7,2012-07-22,-14,,,,
207,CDISCPILOT01,01-701-1023,1023,701,USA,VS,2012-08-05,2012-09-02,2012-08-05,2012-09-01,2013-02-18,,2013-02-18,,,,,,,,,,11,NA,2012-07-22,-14,64,YEARS,18-64,M,WHITE,White,HISPANIC OR LATINO,Y,Placebo,Pbo,Placebo,Pbo,Placebo,Placebo,2012-08-05,2012-08-05T00:00:00Z,H,2012-09-01,2012-09-01T23:59:59Z,H,DISCONTINUED,2012-09-02,,2012-08-05,2012-09-02,28,,,,,2012-08-05,1,Baseline,0,,,Hip Circumference (cm),HIPCIR,4,Anthropometric measurement,1,110,,,110,,,,,,,,,Y,213,HIPCIR,Hip Circumference,,110,cm,110,110,cm,,,Y,3,BASELINE,1,2012-08-05,1,,,,
208,CDISCPILOT01,01-701-1023,1023,701,USA,VS,2012-08-05,2012-09-02,2012-08-05,2012-09-01,2013-02-18,,2013-02-18,,,,,,,,,,12,NA,2012-07-22,-14,64,YEARS,18-64,M,WHITE,White,HISPANIC OR LATINO,Y,Placebo,Pbo,Placebo,Pbo,Placebo,Placebo,2012-08-05,2012-08-05T00:00:00Z,H,2012-09-01,2012-09-01T23:59:59Z,H,DISCONTINUED,2012-09-02,,2012-08-05,2012-09-02,28,,,,,2012-08-27,23,Week 2,2,,,Hip Circumference (cm),HIPCIR,4,Anthropometric measurement,1,111.4,,,110,,,1.4000000000000057,1.272727272727278,,,,,,214,HIPCIR,Hip Circumference,,111.4,cm,111.4,111.4,cm,,,,4,WEEK 2,14,2012-08-27,23,,,,
209,CDISCPILOT01,01-701-1023,1023,701,USA,VS,2012-08-05,2012-09-02,2012-08-05,2012-09-01,2013-02-18,,2013-02-18,,,,,,,,,,13,NA,2012-07-22,-14,64,YEARS,18-64,M,WHITE,White,HISPANIC OR LATINO,Y,Placebo,Pbo,Placebo,Pbo,Placebo,Placebo,2012-08-05,2012-08-05T00:00:00Z,H,2012-09-01,2012-09-01T23:59:59Z,H,DISCONTINUED,2012-09-02,,2012-08-05,2012-09-02,28,,,,,2012-09-02,29,Week 4,4,,,Hip Circumference (cm),HIPCIR,4,Anthropometric measurement,1,112,,,110,,,2,1.8181818181818181,,,,,,215,HIPCIR,Hip Circumference,,112,cm,112,112,cm,,,,5,WEEK 4,28,2012-09-02,29,,,,
210,CDISCPILOT01,01-701-1023,1023,701,USA,VS,2012-08-05,2012-09-02,2012-08-05,2012-09-01,2013-02-18,,2013-02-18,,,,,,,,,,14,NA,2012-07-22,-14,64,YEARS,18-64,M,WHITE,White,HISPANIC OR LATINO,Y,Placebo,Pbo,Placebo,Pbo,Placebo,Placebo,2012-08-05,2012-08-05T00:00:00Z,H,2012-09-01,2012-09-01T23:59:59Z,H,DISCONTINUED,2012-09-02,,2012-08-05,2012-09-02,28,,,,,2012-07-22,-14,,,,,Waist Circumference (cm),WSTCIR,5,Anthropometric measurement,1,106,,,107,,,,,,,,,,269,WSTCIR,Waist Circumference,,106,cm,106,106,cm,,,,1,SCREENING 1,-7,2012-07-22,-14,,,,
211,CDISCPILOT01,01-701-1023,1023,701,USA,VS,2012-08-05,2012-09-02,2012-08-05,2012-09-01,2013-02-18,,2013-02-18,,,,,,,,,,15,NA,2012-07-22,-14,64,YEARS,18-64,M,WHITE,White,HISPANIC OR LATINO,Y,Placebo,Pbo,Placebo,Pbo,Placebo,Placebo,2012-08-05,2012-08-05T00:00:00Z,H,2012-09-01,2012-09-01T23:59:59Z,H,DISCONTINUED,2012-09-02,,2012-08-05,2012-09-02,28,,,,,2012-08-05,1,Baseline,0,,,Waist Circumference (cm),WSTCIR,5,Anthropometric measurement,1,107,,,107,,,,,,,,,Y,270,WSTCIR,Waist Circumference,,107,cm,107,107,cm,,,Y,3,BASELINE,1,2012-08-05,1,,,,
212,CDISCPILOT01,01-701-1023,1023,701,USA,VS,2012-08-05,2012-09-02,2012-08-05,2012-09-01,2013-02-18,,2013-02-18,,,,,,,,,,16,NA,2012-07-22,-14,64,YEARS,18-64,M,WHITE,White,HISPANIC OR LATINO,Y,Placebo,Pbo,Placebo,Pbo,Placebo,Placebo,2012-08-05,2012-08-05T00:00:00Z,H,2012-09-01,2012-09-01T23:59:59Z,H,DISCONTINUED,2012-09-02,,2012-08-05,2012-09-02,28,,,,,2012-08-27,23,Week 2,2,,,Waist Circumference (cm),WSTCIR,5,Anthropometric measurement,1,107.8,,,107,,,0.7999999999999972,0.7476635514018665,,,,,,271,WSTCIR,Waist Circumference,,107.8,cm,107.8,107.8,cm,,,,4,WEEK 2,14,2012-08-27,23,,,,
213,CDISCPILOT01,01-701-1023,1023,701,USA,VS,2012-08-05,2012-09-02,2012-08-05,2012-09-01,2013-02-18,,2013-02-18,,,,,,,,,,17,NA,2012-07-22,-14,64,YEARS,18-64,M,WHITE,White,HISPANIC OR LATINO,Y,Placebo,Pbo,Placebo,Pbo,Placebo,Placebo,2012-08-05,2012-08-05T00:00:00Z,H,2012-09-01,2012-09-01T23:59:59Z,H,DISCONTINUED,2012-09-02,,2012-08-05,2012-09-02,28,,,,,2012-09-02,29,Week 4,4,,,Waist Circumference (cm),WSTCIR,5,Anthropometric measurement,1,109,,,107,,,2,1.8691588785046727,,,,,,272,WSTCIR,Waist Circumference,,109,cm,109,109,cm,,,,5,WEEK 4,28,2012-09-02,29,,,,
214,CDISCPILOT01,01-701-1023,1023,701,USA,,2012-08-05,2012-09-02,2012-08-05,2012-09-01,2013-02-18,,2013-02-18,,,,,,,,,,18,NA,2012-07-22,-14,64,YEARS,18-64,M,WHITE,White,HISPANIC OR LATINO,Y,Placebo,Pbo,Placebo,Pbo,Placebo,Placebo,2012-08-05,2012-08-05T00:00:00Z,H,2012-09-01,2012-09-01T23:59:59Z,H,DISCONTINUED,2012-09-02,,2012-08-05,2012-09-02,28,,,,,2012-07-22,-14,,,,,Waist to Hip Ratio,WAISTHIP,6,Anthropometric measurement,1,0.9636363636363636,,,0.9727272727272728,,,,,,,,,,,,,,,,,,,,,,,,,,,,,,
215,CDISCPILOT01,01-701-1023,1023,701,USA,,2012-08-05,2012-09-02,2012-08-05,2012-09-01,2013-02-18,,2013-02-18,,,,,,,,,,19,NA,2012-07-22,-14,64,YEARS,18-64,M,WHITE,White,HISPANIC OR LATINO,Y,Placebo,Pbo,Placebo,Pbo,Placebo,Placebo,2012-08-05,2012-08-05T00:00:00Z,H,2012-09-01,2012-09-01T23:59:59Z,H,DISCONTINUED,2012-09-02,,2012-08-05,2012-09-02,28,,,,,2012-08-05,1,Baseline,0,,,Waist to Hip Ratio,WAISTHIP,6,Anthropometric measurement,1,0.9727272727272728,,,0.9727272727272728,,,,,,,,,Y,,,,,,,,,,,,,,,,,,,,,
216,CDISCPILOT01,01-701-1023,1023,701,USA,,2012-08-05,2012-09-02,2012-08-05,2012-09-01,2013-02-18,,2013-02-18,,,,,,,,,,20,NA,2012-07-22,-14,64,YEARS,18-64,M,WHITE,White,HISPANIC OR LATINO,Y,Placebo,Pbo,Placebo,Pbo,Placebo,Placebo,2012-08-05,2012-08-05T00:00:00Z,H,2012-09-01,2012-09-01T23:59:59Z,H,DISCONTINUED,2012-09-02,,2012-08-05,2012-09-02,28,,,,,2012-08-27,23,Week 2,2,,,Waist to Hip Ratio,WAISTHIP,6,Anthropometric measurement,1,0.9676840215439856,,,0.9727272727272728,,,-0.00504325118328719,-0.5184650749173746,,,,,,,,,,,,,,,,,,,,,,,,,,
217,CDISCPILOT01,01-701-1023,1023,701,USA,,2012-08-05,2012-09-02,2012-08-05,2012-09-01,2013-02-18,,2013-02-18,,,,,,,,,,21,NA,2012-07-22,-14,64,YEARS,18-64,M,WHITE,White,HISPANIC OR LATINO,Y,Placebo,Pbo,Placebo,Pbo,Placebo,Placebo,2012-08-05,2012-08-05T00:00:00Z,H,2012-09-01,2012-09-01T23:59:59Z,H,DISCONTINUED,2012-09-02,,2012-08-05,2012-09-02,28,,,,,2012-09-02,29,Week 4,4,,,Waist to Hip Ratio,WAISTHIP,6,Anthropometric measurement,1,0.9732142857142857,,,0.9727272727272728,,,4.870129870129247e-4,0.05006675567422591,,,,,,,,,,,,,,,,,,,,,,,,,,
218,CDISCPILOT01,01-701-1023,1023,701,USA,VS,2012-08-05,2012-09-02,2012-08-05,2012-09-01,2013-02-18,,2013-02-18,,,,,,,,,,22,NA,2012-07-22,-14,64,YEARS,18-64,M,WHITE,White,HISPANIC OR LATINO,Y,Placebo,Pbo,Placebo,Pbo,Placebo,Placebo,2012-08-05,2012-08-05T00:00:00Z,H,2012-09-01,2012-09-01T23:59:59Z,H,DISCONTINUED,2012-09-02,,2012-08-05,2012-09-02,28,,,,,2012-07-22,-14,,,AFTER LYING DOWN FOR 5 MINUTES,815,Diastolic Blood Pressure (mmHg),DIABP,7,Vital Sign,2,86,,,88,,,,,,,,,,190,DIABP,Diastolic Blood Pressure,SUPINE,86,mmHg,86,86,mmHg,,,,1,SCREENING 1,-7,2012-07-22,-14,AFTER LYING DOWN FOR 5 MINUTES,815,PT5M,PATIENT SUPINE
219,CDISCPILOT01,01-701-1023,1023,701,USA,VS,2012-08-05,2012-09-02,2012-08-05,2012-09-01,2013-02-18,,2013-02-18,,,,,,,,,,23,NA,2012-07-22,-14,64,YEARS,18-64,M,WHITE,White,HISPANIC OR LATINO,Y,Placebo,Pbo,Placebo,Pbo,Placebo,Placebo,2012-08-05,2012-08-05T00:00:00Z,H,2012-09-01,2012-09-01T23:59:59Z,H,DISCONTINUED,2012-09-02,,2012-08-05,2012-09-02,28,,,,,2012-07-22,-14,,,AFTER STANDING FOR 1 MINUTE,816,Diastolic Blood Pressure (mmHg),DIABP,7,Vital Sign,2,89,,,88,,,,,,,,,,191,DIABP,Diastolic Blood Pressure,STANDING,89,mmHg,89,89,mmHg,,,,1,SCREENING 1,-7,2012-07-22,-14,AFTER STANDING FOR 1 MINUTE,816,PT1M,PATIENT STANDING
220,CDISCPILOT01,01-701-1023,1023,701,USA,VS,2012-08-05,2012-09-02,2012-08-05,2012-09-01,2013-02-18,,2013-02-18,,,,,,,,,,24,NA,2012-07-22,-14,64,YEARS,18-64,M,WHITE,White,HISPANIC OR LATINO,Y,Placebo,Pbo,Placebo,Pbo,Placebo,Placebo,2012-08-05,2012-08-05T00:00:00Z,H,2012-09-01,2012-09-01T23:59:59Z,H,DISCONTINUED,2012-09-02,,2012-08-05,2012-09-02,28,,,,,2012-07-22,-14,,,AFTER STANDING FOR 3 MINUTES,817,Diastolic Blood Pressure (mmHg),DIABP,7,Vital Sign,2,90,,,88,,,,,,,,,,192,DIABP,Diastolic Blood Pressure,STANDING,90,mmHg,90,90,mmHg,,,,1,SCREENING 1,-7,2012-07-22,-14,AFTER STANDING FOR 3 MINUTES,817,PT3M,PATIENT STANDING
221,CDISCPILOT01,01-701-1023,1023,701,USA,VS,2012-08-05,2012-09-02,2012-08-05,2012-09-01,2013-02-18,,2013-02-18,,,,,,,,,,25,NA,2012-07-22,-14,64,YEARS,18-64,M,WHITE,White,HISPANIC OR LATINO,Y,Placebo,Pbo,Placebo,Pbo,Placebo,Placebo,2012-08-05,2012-08-05T00:00:00Z,H,2012-09-01,2012-09-01T23:59:59Z,H,DISCONTINUED,2012-09-02,,2012-08-05,2012-09-02,28,,,,,2012-08-03,-2,,,AFTER LYING DOWN FOR 5 MINUTES,815,Diastolic Blood Pressure (mmHg),DIABP,7,Vital Sign,2,77,,,88,,,,,,,,,,193,DIABP,Diastolic Blood Pressure,SUPINE,77,mmHg,77,77,mmHg,,,,2,SCREENING 2,-1,2012-08-03,-2,AFTER LYING DOWN FOR 5 MINUTES,815,PT5M,PATIENT SUPINE
222,CDISCPILOT01,01-701-1023,1023,701,USA,VS,2012-08-05,2012-09-02,2012-08-05,2012-09-01,2013-02-18,,2013-02-18,,,,,,,,,,26,NA,2012-07-22,-14,64,YEARS,18-64,M,WHITE,White,HISPANIC OR LATINO,Y,Placebo,Pbo,Placebo,Pbo,Placebo,Placebo,2012-08-05,2012-08-05T00:00:00Z,H,2012-09-01,2012-09-01T23:59:59Z,H,DISCONTINUED,2012-09-02,,2012-08-05,2012-09-02,28,,,,,2012-08-03,-2,,,AFTER STANDING FOR 1 MINUTE,816,Diastolic Blood Pressure (mmHg),DIABP,7,Vital Sign,2,79,,,88,,,,,,,,,,194,DIABP,Diastolic Blood Pressure,STANDING,79,mmHg,79,79,mmHg,,,,2,SCREENING 2,-1,2012-08-03,-2,AFTER STANDING FOR 1 MINUTE,816,PT1M,PATIENT STANDING
223,CDISCPILOT01,01-701-1023,1023,701,USA,VS,2012-08-05,2012-09-02,2012-08-05,2012-09-01,2013-02-18,,2013-02-18,,,,,,,,,,27,NA,2012-07-22,-14,64,YEARS,18-64,M,WHITE,White,HISPANIC OR LATINO,Y,Placebo,Pbo,Placebo,Pbo,Placebo,Placebo,2012-08-05,2012-08-05T00:00:00Z,H,2012-09-01,2012-09-01T23:59:59Z,H,DISCONTINUED,2012-09-02,,2012-08-05,2012-09-02,28,,,,,2012-08-03,-2,,,AFTER STANDING FOR 3 MINUTES,817,Diastolic Blood Pressure (mmHg),DIABP,7,Vital Sign,2,85,,,88,,,,,,,,,,195,DIABP,Diastolic Blood Pressure,STANDING,85,mmHg,85,85,mmHg,,,,2,SCREENING 2,-1,2012-08-03,-2,AFTER STANDING FOR 3 MINUTES,817,PT3M,PATIENT STANDING
224,CDISCPILOT01,01-701-1023,1023,701,USA,VS,2012-08-05,2012-09-02,2012-08-05,2012-09-01,2013-02-18,,2013-02-18,,,,,,,,,,28,NA,2012-07-22,-14,64,YEARS,18-64,M,WHITE,White,HISPANIC OR LATINO,Y,Placebo,Pbo,Placebo,Pbo,Placebo,Placebo,2012-08-05,2012-08-05T00:00:00Z,H,2012-09-01,2012-09-01T23:59:59Z,H,DISCONTINUED,2012-09-02,,2012-08-05,2012-09-02,28,,,,,2012-08-05,1,Baseline,0,AFTER LYING DOWN FOR 5 MINUTES,815,Diastolic Blood Pressure (mmHg),DIABP,7,Vital Sign,2,84,,,88,,,,,,,,,,196,DIABP,Diastolic Blood Pressure,SUPINE,84,mmHg,84,84,mmHg,,,Y,3,BASELINE,1,2012-08-05,1,AFTER LYING DOWN FOR 5 MINUTES,815,PT5M,PATIENT SUPINE
225,CDISCPILOT01,01-701-1023,1023,701,USA,VS,2012-08-05,2012-09-02,2012-08-05,2012-09-01,2013-02-18,,2013-02-18,,,,,,,,,,29,NA,2012-07-22,-14,64,YEARS,18-64,M,WHITE,White,HISPANIC OR LATINO,Y,Placebo,Pbo,Placebo,Pbo,Placebo,Placebo,2012-08-05,2012-08-05T00:00:00Z,H,2012-09-01,2012-09-01T23:59:59Z,H,DISCONTINUED,2012-09-02,,2012-08-05,2012-09-02,28,,,,,2012-08-05,1,Baseline,0,AFTER STANDING FOR 1 MINUTE,816,Diastolic Blood Pressure (mmHg),DIABP,7,Vital Sign,2,86,,,88,,,,,,,,,,197,DIABP,Diastolic Blood Pressure,STANDING,86,mmHg,86,86,mmHg,,,Y,3,BASELINE,1,2012-08-05,1,AFTER STANDING FOR 1 MINUTE,816,PT1M,PATIENT STANDING
226,CDISCPILOT01,01-701-1023,1023,701,USA,VS,2012-08-05,2012-09-02,2012-08-05,2012-09-01,2013-02-18,,2013-02-18,,,,,,,,,,30,NA,2012-07-22,-14,64,YEARS,18-64,M,WHITE,White,HISPANIC OR LATINO,Y,Placebo,Pbo,Placebo,Pbo,Placebo,Placebo,2012-08-05,2012-08-05T00:00:00Z,H,2012-09-01,2012-09-01T23:59:59Z,H,DISCONTINUED,2012-09-02,,2012-08-05,2012-09-02,28,,,,,2012-08-05,1,Baseline,0,AFTER STANDING FOR 3 MINUTES,817,Diastolic Blood Pressure (mmHg),DIABP,7,Vital Sign,2,88,,,88,,,,,,,,,Y,198,DIABP,Diastolic Blood Pressure,STANDING,88,mmHg,88,88,mmHg,,,Y,3,BASELINE,1,2012-08-05,1,AFTER STANDING FOR 3 MINUTES,817,PT3M,PATIENT STANDING
227,CDISCPILOT01,01-701-1023,1023,701,USA,VS,2012-08-05,2012-09-02,2012-08-05,2012-09-01,2013-02-18,,2013-02-18,,,,,,,,,,31,NA,2012-07-22,-14,64,YEARS,18-64,M,WHITE,White,HISPANIC OR LATINO,Y,Placebo,Pbo,Placebo,Pbo,Placebo,Placebo,2012-08-05,2012-08-05T00:00:00Z,H,2012-09-01,2012-09-01T23:59:59Z,H,DISCONTINUED,2012-09-02,,2012-08-05,2012-09-02,28,,,,,2012-08-26,22,,,AFTER LYING DOWN FOR 5 MINUTES,815,Diastolic Blood Pressure (mmHg),DIABP,7,Vital Sign,2,82,,,88,,,,,,,,,,199,DIABP,Diastolic Blood Pressure,SUPINE,82,mmHg,82,82,mmHg,,,,3.5,AMBUL ECG PLACEMENT,13,2012-08-26,22,AFTER LYING DOWN FOR 5 MINUTES,815,PT5M,PATIENT SUPINE
228,CDISCPILOT01,01-701-1023,1023,701,USA,VS,2012-08-05,2012-09-02,2012-08-05,2012-09-01,2013-02-18,,2013-02-18,,,,,,,,,,32,NA,2012-07-22,-14,64,YEARS,18-64,M,WHITE,White,HISPANIC OR LATINO,Y,Placebo,Pbo,Placebo,Pbo,Placebo,Placebo,2012-08-05,2012-08-05T00:00:00Z,H,2012-09-01,2012-09-01T23:59:59Z,H,DISCONTINUED,2012-09-02,,2012-08-05,2012-09-02,28,,,,,2012-08-26,22,,,AFTER STANDING FOR 1 MINUTE,816,Diastolic Blood Pressure (mmHg),DIABP,7,Vital Sign,2,88,,,88,,,,,,,,,,200,DIABP,Diastolic Blood Pressure,STANDING,88,mmHg,88,88,mmHg,,,,3.5,AMBUL ECG PLACEMENT,13,2012-08-26,22,AFTER STANDING FOR 1 MINUTE,816,PT1M,PATIENT STANDING
229,CDISCPILOT01,01-701-1023,1023,701,USA,VS,2012-08-05,2012-09-02,2012-08-05,2012-09-01,2013-02-18,,2013-02-18,,,,,,,,,,33,NA,2012-07-22,-14,64,YEARS,18-64,M,WHITE,White,HISPANIC OR LATINO,Y,Placebo,Pbo,Placebo,Pbo,Placebo,Placebo,2012-08-05,2012-08-05T00:00:00Z,H,2012-09-01,2012-09-01T23:59:59Z,H,DISCONTINUED,2012-09-02,,2012-08-05,2012-09-02,28,,,,,2012-08-26,22,,,AFTER STANDING FOR 3 MINUTES,817,Diastolic Blood Pressure (mmHg),DIABP,7,Vital Sign,2,89,,,88,,,,,,,,,,201,DIABP,Diastolic Blood Pressure,STANDING,89,mmHg,89,89,mmHg,,,,3.5,AMBUL ECG PLACEMENT,13,2012-08-26,22,AFTER STANDING FOR 3 MINUTES,817,PT3M,PATIENT STANDING
230,CDISCPILOT01,01-701-1023,1023,701,USA,VS,2012-08-05,2012-09-02,2012-08-05,2012-09-01,2013-02-18,,2013-02-18,,,,,,,,,,34,NA,2012-07-22,-14,64,YEARS,18-64,M,WHITE,White,HISPANIC OR LATINO,Y,Placebo,Pbo,Placebo,Pbo,Placebo,Placebo,2012-08-05,2012-08-05T00:00:00Z,H,2012-09-01,2012-09-01T23:59:59Z,H,DISCONTINUED,2012-09-02,,2012-08-05,2012-09-02,28,,,,,2012-08-27,23,Week 2,2,AFTER LYING DOWN FOR 5 MINUTES,815,Diastolic Blood Pressure (mmHg),DIABP,7,Vital Sign,2,88,,,88,,,0,0,,,,,,202,DIABP,Diastolic Blood Pressure,SUPINE,88,mmHg,88,88,mmHg,,,,4,WEEK 2,14,2012-08-27,23,AFTER LYING DOWN FOR 5 MINUTES,815,PT5M,PATIENT SUPINE
231,CDISCPILOT01,01-701-1023,1023,701,USA,VS,2012-08-05,2012-09-02,2012-08-05,2012-09-01,2013-02-18,,2013-02-18,,,,,,,,,,35,NA,2012-07-22,-14,64,YEARS,18-64,M,WHITE,White,HISPANIC OR LATINO,Y,Placebo,Pbo,Placebo,Pbo,Placebo,Placebo,2012-08-05,2012-08-05T00:00:00Z,H,2012-09-01,2012-09-01T23:59:59Z,H,DISCONTINUED,2012-09-02,,2012-08-05,2012-09-02,28,,,,,2012-08-27,23,Week 2,2,AFTER STANDING FOR 1 MINUTE,816,Diastolic Blood Pressure (mmHg),DIABP,7,Vital Sign,2,86,,,88,,,-2,-2.272727272727273,,,,,,203,DIABP,Diastolic Blood Pressure,STANDING,86,mmHg,86,86,mmHg,,,,4,WEEK 2,14,2012-08-27,23,AFTER STANDING FOR 1 MINUTE,816,PT1M,PATIENT STANDING
232,CDISCPILOT01,01-701-1023,1023,701,USA,VS,2012-08-05,2012-09-02,2012-08-05,2012-09-01,2013-02-18,,2013-02-18,,,,,,,,,,36,NA,2012-07-22,-14,64,YEARS,18-64,M,WHITE,White,HISPANIC OR LATINO,Y,Placebo,Pbo,Placebo,Pbo,Placebo,Placebo,2012-08-05,2012-08-05T00:00:00Z,H,2012-09-01,2012-09-01T23:59:59Z,H,DISCONTINUED,2012-09-02,,2012-08-05,2012-09-02,28,,,,,2012-08-27,23,Week 2,2,AFTER STANDING FOR 3 MINUTES,817,Diastolic Blood Pressure (mmHg),DIABP,7,Vital Sign,2,90,,,88,,,2,2.272727272727273,,,,,,204,DIABP,Diastolic Blood Pressure,STANDING,90,mmHg,90,90,mmHg,,,,4,WEEK 2,14,2012-08-27,23,AFTER STANDING FOR 3 MINUTES,817,PT3M,PATIENT STANDING
233,CDISCPILOT01,01-701-1023,1023,701,USA,VS,2012-08-05,2012-09-02,2012-08-05,2012-09-01,2013-02-18,,2013-02-18,,,,,,,,,,37,NA,2012-07-22,-14,64,YEARS,18-64,M,WHITE,White,HISPANIC OR LATINO,Y,Placebo,Pbo,Placebo,Pbo,Placebo,Placebo,2012-08-05,2012-08-05T00:00:00Z,H,2012-09-01,2012-09-01T23:59:59Z,H,DISCONTINUED,2012-09-02,,2012-08-05,2012-09-02,28,,,,,2012-09-02,29,Week 4,4,AFTER LYING DOWN FOR 5 MINUTES,815,Diastolic Blood Pressure (mmHg),DIABP,7,Vital Sign,2,86,,,88,,,-2,-2.272727272727273,,,,,,205,DIABP,Diastolic Blood Pressure,SUPINE,86,mmHg,86,86,mmHg,,,,5,WEEK 4,28,2012-09-02,29,AFTER LYING DOWN FOR 5 MINUTES,815,PT5M,PATIENT SUPINE
234,CDISCPILOT01,01-701-1023,1023,701,USA,VS,2012-08-05,2012-09-02,2012-08-05,2012-09-01,2013-02-18,,2013-02-18,,,,,,,,,,38,NA,2012-07-22,-14,64,YEARS,18-64,M,WHITE,White,HISPANIC OR LATINO,Y,Placebo,Pbo,Placebo,Pbo,Placebo,Placebo,2012-08-05,2012-08-05T00:00:00Z,H,2012-09-01,2012-09-01T23:59:59Z,H,DISCONTINUED,2012-09-02,,2012-08-05,2012-09-02,28,,,,,2012-09-02,29,Week 4,4,AFTER STANDING FOR 1 MINUTE,816,Diastolic Blood Pressure (mmHg),DIABP,7,Vital Sign,2,88,,,88,,,0,0,,,,,,206,DIABP,Diastolic Blood Pressure,STANDING,88,mmHg,88,88,mmHg,,,,5,WEEK 4,28,2012-09-02,29,AFTER STANDING FOR 1 MINUTE,816,PT1M,PATIENT STANDING
235,CDISCPILOT01,01-701-1023,1023,701,USA,VS,2012-08-05,2012-09-02,2012-08-05,2012-09-01,2013-02-18,,2013-02-18,,,,,,,,,,39,NA,2012-07-22,-14,64,YEARS,18-64,M,WHITE,White,HISPANIC OR LATINO,Y,Placebo,Pbo,Placebo,Pbo,Placebo,Placebo,2012-08-05,2012-08-05T00:00:00Z,H,2012-09-01,2012-09-01T23:59:59Z,H,DISCONTINUED,2012-09-02,,2012-08-05,2012-09-02,28,,,,,2012-09-02,29,Week 4,4,AFTER STANDING FOR 3 MINUTES,817,Diastolic Blood Pressure (mmHg),DIABP,7,Vital Sign,2,92,,,88,,,4,4.545454545454546,,,,,,207,DIABP,Diastolic Blood Pressure,STANDING,92,mmHg,92,92,mmHg,,,,5,WEEK 4,28,2012-09-02,29,AFTER STANDING FOR 3 MINUTES,817,PT3M,PATIENT STANDING
236,CDISCPILOT01,01-701-1023,1023,701,USA,VS,2012-08-05,2012-09-02,2012-08-05,2012-09-01,2013-02-18,,2013-02-18,,,,,,,,,,40,NA,2012-07-22,-14,64,YEARS,18-64,M,WHITE,White,HISPANIC OR LATINO,Y,Placebo,Pbo,Placebo,Pbo,Placebo,Placebo,2012-08-05,2012-08-05T00:00:00Z,H,2012-09-01,2012-09-01T23:59:59Z,H,DISCONTINUED,2012-09-02,,2012-08-05,2012-09-02,28,,,,,2013-02-18,198,,,AFTER LYING DOWN FOR 5 MINUTES,815,Diastolic Blood Pressure (mmHg),DIABP,7,Vital Sign,2,89,,,88,,,,,,,,,,208,DIABP,Diastolic Blood Pressure,SUPINE,89,mmHg,89,89,mmHg,,,,201,RETRIEVAL,168,2013-02-18,198,AFTER LYING DOWN FOR 5 MINUTES,815,PT5M,PATIENT SUPINE
237,CDISCPILOT01,01-701-1023,1023,701,USA,VS,2012-08-05,2012-09-02,2012-08-05,2012-09-01,2013-02-18,,2013-02-18,,,,,,,,,,41,NA,2012-07-22,-14,64,YEARS,18-64,M,WHITE,White,HISPANIC OR LATINO,Y,Placebo,Pbo,Placebo,Pbo,Placebo,Placebo,2012-08-05,2012-08-05T00:00:00Z,H,2012-09-01,2012-09-01T23:59:59Z,H,DISCONTINUED,2012-09-02,,2012-08-05,2012-09-02,28,,,,,2013-02-18,198,,,AFTER STANDING FOR 1 MINUTE,816,Diastolic Blood Pressure (mmHg),DIABP,7,Vital Sign,2,86,,,88,,,,,,,,,,209,DIABP,Diastolic Blood Pressure,STANDING,86,mmHg,86,86,mmHg,,,,201,RETRIEVAL,168,2013-02-18,198,AFTER STANDING FOR 1 MINUTE,816,PT1M,PATIENT STANDING
238,CDISCPILOT01,01-701-1023,1023,701,USA,VS,2012-08-05,2012-09-02,2012-08-05,2012-09-01,2013-02-18,,2013-02-18,,,,,,,,,,42,NA,2012-07-22,-14,64,YEARS,18-64,M,WHITE,White,HISPANIC OR LATINO,Y,Placebo,Pbo,Placebo,Pbo,Placebo,Placebo,2012-08-05,2012-08-05T00:00:00Z,H,2012-09-01,2012-09-01T23:59:59Z,H,DISCONTINUED,2012-09-02,,2012-08-05,2012-09-02,28,,,,,2013-02-18,198,,,AFTER STANDING FOR 3 MINUTES,817,Diastolic Blood Pressure (mmHg),DIABP,7,Vital Sign,2,84,,,88,,,,,,,,,,210,DIABP,Diastolic Blood Pressure,STANDING,84,mmHg,84,84,mmHg,,,,201,RETRIEVAL,168,2013-02-18,198,AFTER STANDING FOR 3 MINUTES,817,PT3M,PATIENT STANDING
239,CDISCPILOT01,01-701-1023,1023,701,USA,VS,2012-08-05,2012-09-02,2012-08-05,2012-09-01,2013-02-18,,2013-02-18,,,,,,,,,,43,NA,2012-07-22,-14,64,YEARS,18-64,M,WHITE,White,HISPANIC OR LATINO,Y,Placebo,Pbo,Placebo,Pbo,Placebo,Placebo,2012-08-05,2012-08-05T00:00:00Z,H,2012-09-01,2012-09-01T23:59:59Z,H,DISCONTINUED,2012-09-02,,2012-08-05,2012-09-02,28,,,,,2012-07-22,-14,,,AFTER LYING DOWN FOR 5 MINUTES,815,Pulse Rate (beats/min),PULSE,8,Vital Sign,2,65,,,76,,,,,,,,,,216,PULSE,Pulse Rate,SUPINE,65,BEATS/MIN,65,65,BEATS/MIN,,,,1,SCREENING 1,-7,2012-07-22,-14,AFTER LYING DOWN FOR 5 MINUTES,815,PT5M,PATIENT SUPINE
240,CDISCPILOT01,01-701-1023,1023,701,USA,VS,2012-08-05,2012-09-02,2012-08-05,2012-09-01,2013-02-18,,2013-02-18,,,,,,,,,,44,NA,2012-07-22,-14,64,YEARS,18-64,M,WHITE,White,HISPANIC OR LATINO,Y,Placebo,Pbo,Placebo,Pbo,Placebo,Placebo,2012-08-05,2012-08-05T00:00:00Z,H,2012-09-01,2012-09-01T23:59:59Z,H,DISCONTINUED,2012-09-02,,2012-08-05,2012-09-02,28,,,,,2012-07-22,-14,,,AFTER STANDING FOR 1 MINUTE,816,Pulse Rate (beats/min),PULSE,8,Vital Sign,2,78,,,76,,,,,,,,,,217,PULSE,Pulse Rate,STANDING,78,BEATS/MIN,78,78,BEATS/MIN,,,,1,SCREENING 1,-7,2012-07-22,-14,AFTER STANDING FOR 1 MINUTE,816,PT1M,PATIENT STANDING
241,CDISCPILOT01,01-701-1023,1023,701,USA,VS,2012-08-05,2012-09-02,2012-08-05,2012-09-01,2013-02-18,,2013-02-18,,,,,,,,,,45,NA,2012-07-22,-14,64,YEARS,18-64,M,WHITE,White,HISPANIC OR LATINO,Y,Placebo,Pbo,Placebo,Pbo,Placebo,Placebo,2012-08-05,2012-08-05T00:00:00Z,H,2012-09-01,2012-09-01T23:59:59Z,H,DISCONTINUED,2012-09-02,,2012-08-05,2012-09-02,28,,,,,2012-07-22,-14,,,AFTER STANDING FOR 3 MINUTES,817,Pulse Rate (beats/min),PULSE,8,Vital Sign,2,74,,,76,,,,,,,,,,218,PULSE,Pulse Rate,STANDING,74,BEATS/MIN,74,74,BEATS/MIN,,,,1,SCREENING 1,-7,2012-07-22,-14,AFTER STANDING FOR 3 MINUTES,817,PT3M,PATIENT STANDING
242,CDISCPILOT01,01-701-1023,1023,701,USA,VS,2012-08-05,2012-09-02,2012-08-05,2012-09-01,2013-02-18,,2013-02-18,,,,,,,,,,46,NA,2012-07-22,-14,64,YEARS,18-64,M,WHITE,White,HISPANIC OR LATINO,Y,Placebo,Pbo,Placebo,Pbo,Placebo,Placebo,2012-08-05,2012-08-05T00:00:00Z,H,2012-09-01,2012-09-01T23:59:59Z,H,DISCONTINUED,2012-09-02,,2012-08-05,2012-09-02,28,,,,,2012-08-03,-2,,,AFTER LYING DOWN FOR 5 MINUTES,815,Pulse Rate (beats/min),PULSE,8,Vital Sign,2,79,,,76,,,,,,,,,,219,PULSE,Pulse Rate,SUPINE,79,BEATS/MIN,79,79,BEATS/MIN,,,,2,SCREENING 2,-1,2012-08-03,-2,AFTER LYING DOWN FOR 5 MINUTES,815,PT5M,PATIENT SUPINE
243,CDISCPILOT01,01-701-1023,1023,701,USA,VS,2012-08-05,2012-09-02,2012-08-05,2012-09-01,2013-02-18,,2013-02-18,,,,,,,,,,47,NA,2012-07-22,-14,64,YEARS,18-64,M,WHITE,White,HISPANIC OR LATINO,Y,Placebo,Pbo,Placebo,Pbo,Placebo,Placebo,2012-08-05,2012-08-05T00:00:00Z,H,2012-09-01,2012-09-01T23:59:59Z,H,DISCONTINUED,2012-09-02,,2012-08-05,2012-09-02,28,,,,,2012-08-03,-2,,,AFTER STANDING FOR 1 MINUTE,816,Pulse Rate (beats/min),PULSE,8,Vital Sign,2,91,,,76,,,,,,,,,,220,PULSE,Pulse Rate,STANDING,91,BEATS/MIN,91,91,BEATS/MIN,,,,2,SCREENING 2,-1,2012-08-03,-2,AFTER STANDING FOR 1 MINUTE,816,PT1M,PATIENT STANDING
244,CDISCPILOT01,01-701-1023,1023,701,USA,VS,2012-08-05,2012-09-02,2012-08-05,2012-09-01,2013-02-18,,2013-02-18,,,,,,,,,,48,NA,2012-07-22,-14,64,YEARS,18-64,M,WHITE,White,HISPANIC OR LATINO,Y,Placebo,Pbo,Placebo,Pbo,Placebo,Placebo,2012-08-05,2012-08-05T00:00:00Z,H,2012-09-01,2012-09-01T23:59:59Z,H,DISCONTINUED,2012-09-02,,2012-08-05,2012-09-02,28,,,,,2012-08-03,-2,,,AFTER STANDING FOR 3 MINUTES,817,Pulse Rate (beats/min),PULSE,8,Vital Sign,2,92,,,76,,,,,,,,,,221,PULSE,Pulse Rate,STANDING,92,BEATS/MIN,92,92,BEATS/MIN,,,,2,SCREENING 2,-1,2012-08-03,-2,AFTER STANDING FOR 3 MINUTES,817,PT3M,PATIENT STANDING
245,CDISCPILOT01,01-701-1023,1023,701,USA,VS,2012-08-05,2012-09-02,2012-08-05,2012-09-01,2013-02-18,,2013-02-18,,,,,,,,,,49,NA,2012-07-22,-14,64,YEARS,18-64,M,WHITE,White,HISPANIC OR LATINO,Y,Placebo,Pbo,Placebo,Pbo,Placebo,Placebo,2012-08-05,2012-08-05T00:00:00Z,H,2012-09-01,2012-09-01T23:59:59Z,H,DISCONTINUED,2012-09-02,,2012-08-05,2012-09-02,28,,,,,2012-08-05,1,Baseline,0,AFTER LYING DOWN FOR 5 MINUTES,815,Pulse Rate (beats/min),PULSE,8,Vital Sign,2,68,,,76,,,,,,,,,,222,PULSE,Pulse Rate,SUPINE,68,BEATS/MIN,68,68,BEATS/MIN,,,Y,3,BASELINE,1,2012-08-05,1,AFTER LYING DOWN FOR 5 MINUTES,815,PT5M,PATIENT SUPINE
246,CDISCPILOT01,01-701-1023,1023,701,USA,VS,2012-08-05,2012-09-02,2012-08-05,2012-09-01,2013-02-18,,2013-02-18,,,,,,,,,,50,NA,2012-07-22,-14,64,YEARS,18-64,M,WHITE,White,HISPANIC OR LATINO,Y,Placebo,Pbo,Placebo,Pbo,Placebo,Placebo,2012-08-05,2012-08-05T00:00:00Z,H,2012-09-01,2012-09-01T23:59:59Z,H,DISCONTINUED,2012-09-02,,2012-08-05,2012-09-02,28,,,,,2012-08-05,1,Baseline,0,AFTER STANDING FOR 1 MINUTE,816,Pulse Rate (beats/min),PULSE,8,Vital Sign,2,80,,,76,,,,,,,,,,223,PULSE,Pulse Rate,STANDING,80,BEATS/MIN,80,80,BEATS/MIN,,,Y,3,BASELINE,1,2012-08-05,1,AFTER STANDING FOR 1 MINUTE,816,PT1M,PATIENT STANDING
247,CDISCPILOT01,01-701-1023,1023,701,USA,VS,2012-08-05,2012-09-02,2012-08-05,2012-09-01,2013-02-18,,2013-02-18,,,,,,,,,,51,NA,2012-07-22,-14,64,YEARS,18-64,M,WHITE,White,HISPANIC OR LATINO,Y,Placebo,Pbo,Placebo,Pbo,Placebo,Placebo,2012-08-05,2012-08-05T00:00:00Z,H,2012-09-01,2012-09-01T23:59:59Z,H,DISCONTINUED,2012-09-02,,2012-08-05,2012-09-02,28,,,,,2012-08-05,1,Baseline,0,AFTER STANDING FOR 3 MINUTES,817,Pulse Rate (beats/min),PULSE,8,Vital Sign,2,76,,,76,,,,,,,,,Y,224,PULSE,Pulse Rate,STANDING,76,BEATS/MIN,76,76,BEATS/MIN,,,Y,3,BASELINE,1,2012-08-05,1,AFTER STANDING FOR 3 MINUTES,817,PT3M,PATIENT STANDING
248,CDISCPILOT01,01-701-1023,1023,701,USA,VS,2012-08-05,2012-09-02,2012-08-05,2012-09-01,2013-02-18,,2013-02-18,,,,,,,,,,52,NA,2012-07-22,-14,64,YEARS,18-64,M,WHITE,White,HISPANIC OR LATINO,Y,Placebo,Pbo,Placebo,Pbo,Placebo,Placebo,2012-08-05,2012-08-05T00:00:00Z,H,2012-09-01,2012-09-01T23:59:59Z,H,DISCONTINUED,2012-09-02,,2012-08-05,2012-09-02,28,,,,,2012-08-26,22,,,AFTER LYING DOWN FOR 5 MINUTES,815,Pulse Rate (beats/min),PULSE,8,Vital Sign,2,71,,,76,,,,,,,,,,225,PULSE,Pulse Rate,SUPINE,71,BEATS/MIN,71,71,BEATS/MIN,,,,3.5,AMBUL ECG PLACEMENT,13,2012-08-26,22,AFTER LYING DOWN FOR 5 MINUTES,815,PT5M,PATIENT SUPINE
249,CDISCPILOT01,01-701-1023,1023,701,USA,VS,2012-08-05,2012-09-02,2012-08-05,2012-09-01,2013-02-18,,2013-02-18,,,,,,,,,,53,NA,2012-07-22,-14,64,YEARS,18-64,M,WHITE,White,HISPANIC OR LATINO,Y,Placebo,Pbo,Placebo,Pbo,Placebo,Placebo,2012-08-05,2012-08-05T00:00:00Z,H,2012-09-01,2012-09-01T23:59:59Z,H,DISCONTINUED,2012-09-02,,2012-08-05,2012-09-02,28,,,,,2012-08-26,22,,,AFTER STANDING FOR 1 MINUTE,816,Pulse Rate (beats/min),PULSE,8,Vital Sign,2,79,,,76,,,,,,,,,,226,PULSE,Pulse Rate,STANDING,79,BEATS/MIN,79,79,BEATS/MIN,,,,3.5,AMBUL ECG PLACEMENT,13,2012-08-26,22,AFTER STANDING FOR 1 MINUTE,816,PT1M,PATIENT STANDING
250,CDISCPILOT01,01-701-1023,1023,701,USA,VS,2012-08-05,2012-09-02,2012-08-05,2012-09-01,2013-02-18,,2013-02-18,,,,,,,,,,54,NA,2012-07-22,-14,64,YEARS,18-64,M,WHITE,White,HISPANIC OR LATINO,Y,Placebo,Pbo,Placebo,Pbo,Placebo,Placebo,2012-08-05,2012-08-05T00:00:00Z,H,2012-09-01,2012-09-01T23:59:59Z,H,DISCONTINUED,2012-09-02,,2012-08-05,2012-09-02,28,,,,,2012-08-26,22,,,AFTER STANDING FOR 3 MINUTES,817,Pulse Rate (beats/min),PULSE,8,Vital Sign,2,77,,,76,,,,,,,,,,227,PULSE,Pulse Rate,STANDING,77,BEATS/MIN,77,77,BEATS/MIN,,,,3.5,AMBUL ECG PLACEMENT,13,2012-08-26,22,AFTER STANDING FOR 3 MINUTES,817,PT3M,PATIENT STANDING
251,CDISCPILOT01,01-701-1023,1023,701,USA,VS,2012-08-05,2012-09-02,2012-08-05,2012-09-01,2013-02-18,,2013-02-18,,,,,,,,,,55,NA,2012-07-22,-14,64,YEARS,18-64,M,WHITE,White,HISPANIC OR LATINO,Y,Placebo,Pbo,Placebo,Pbo,Placebo,Placebo,2012-08-05,2012-08-05T00:00:00Z,H,2012-09-01,2012-09-01T23:59:59Z,H,DISCONTINUED,2012-09-02,,2012-08-05,2012-09-02,28,,,,,2012-08-27,23,Week 2,2,AFTER LYING DOWN FOR 5 MINUTES,815,Pulse Rate (beats/min),PULSE,8,Vital Sign,2,84,,,76,,,8,10.526315789473683,,,,,,228,PULSE,Pulse Rate,SUPINE,84,BEATS/MIN,84,84,BEATS/MIN,,,,4,WEEK 2,14,2012-08-27,23,AFTER LYING DOWN FOR 5 MINUTES,815,PT5M,PATIENT SUPINE
252,CDISCPILOT01,01-701-1023,1023,701,USA,VS,2012-08-05,2012-09-02,2012-08-05,2012-09-01,2013-02-18,,2013-02-18,,,,,,,,,,56,NA,2012-07-22,-14,64,YEARS,18-64,M,WHITE,White,HISPANIC OR LATINO,Y,Placebo,Pbo,Placebo,Pbo,Placebo,Placebo,2012-08-05,2012-08-05T00:00:00Z,H,2012-09-01,2012-09-01T23:59:59Z,H,DISCONTINUED,2012-09-02,,2012-08-05,2012-09-02,28,,,,,2012-08-27,23,Week 2,2,AFTER STANDING FOR 1 MINUTE,816,Pulse Rate (beats/min),PULSE,8,Vital Sign,2,92,,,76,,,16,21.052631578947366,,,,,,229,PULSE,Pulse Rate,STANDING,92,BEATS/MIN,92,92,BEATS/MIN,,,,4,WEEK 2,14,2012-08-27,23,AFTER STANDING FOR 1 MINUTE,816,PT1M,PATIENT STANDING
253,CDISCPILOT01,01-701-1023,1023,701,USA,VS,2012-08-05,2012-09-02,2012-08-05,2012-09-01,2013-02-18,,2013-02-18,,,,,,,,,,57,NA,2012-07-22,-14,64,YEARS,18-64,M,WHITE,White,HISPANIC OR LATINO,Y,Placebo,Pbo,Placebo,Pbo,Placebo,Placebo,2012-08-05,2012-08-05T00:00:00Z,H,2012-09-01,2012-09-01T23:59:59Z,H,DISCONTINUED,2012-09-02,,2012-08-05,2012-09-02,28,,,,,2012-08-27,23,Week 2,2,AFTER STANDING FOR 3 MINUTES,817,Pulse Rate (beats/min),PULSE,8,Vital Sign,2,94,,,76,,,18,23.684210526315788,,,,,,230,PULSE,Pulse Rate,STANDING,94,BEATS/MIN,94,94,BEATS/MIN,,,,4,WEEK 2,14,2012-08-27,23,AFTER STANDING FOR 3 MINUTES,817,PT3M,PATIENT STANDING
254,CDISCPILOT01,01-701-1023,1023,701,USA,VS,2012-08-05,2012-09-02,2012-08-05,2012-09-01,2013-02-18,,2013-02-18,,,,,,,,,,58,NA,2012-07-22,-14,64,YEARS,18-64,M,WHITE,White,HISPANIC OR LATINO,Y,Placebo,Pbo,Placebo,Pbo,Placebo,Placebo,2012-08-05,2012-08-05T00:00:00Z,H,2012-09-01,2012-09-01T23:59:59Z,H,DISCONTINUED,2012-09-02,,2012-08-05,2012-09-02,28,,,,,2012-09-02,29,Week 4,4,AFTER LYING DOWN FOR 5 MINUTES,815,Pulse Rate (beats/min),PULSE,8,Vital Sign,2,64,,,76,,,-12,-15.789473684210526,,,,,,231,PULSE,Pulse Rate,SUPINE,64,BEATS/MIN,64,64,BEATS/MIN,,,,5,WEEK 4,28,2012-09-02,29,AFTER LYING DOWN FOR 5 MINUTES,815,PT5M,PATIENT SUPINE
255,CDISCPILOT01,01-701-1023,1023,701,USA,VS,2012-08-05,2012-09-02,2012-08-05,2012-09-01,2013-02-18,,2013-02-18,,,,,,,,,,59,NA,2012-07-22,-14,64,YEARS,18-64,M,WHITE,White,HISPANIC OR LATINO,Y,Placebo,Pbo,Placebo,Pbo,Placebo,Placebo,2012-08-05,2012-08-05T00:00:00Z,H,2012-09-01,2012-09-01T23:59:59Z,H,DISCONTINUED,2012-09-02,,2012-08-05,2012-09-02,28,,,,,2012-09-02,29,Week 4,4,AFTER STANDING FOR 1 MINUTE,816,Pulse Rate (beats/min),PULSE,8,Vital Sign,2,76,,,76,,,0,0,,,,,,232,PULSE,Pulse Rate,STANDING,76,BEATS/MIN,76,76,BEATS/MIN,,,,5,WEEK 4,28,2012-09-02,29,AFTER STANDING FOR 1 MINUTE,816,PT1M,PATIENT STANDING
256,CDISCPILOT01,01-701-1023,1023,701,USA,VS,2012-08-05,2012-09-02,2012-08-05,2012-09-01,2013-02-18,,2013-02-18,,,,,,,,,,60,NA,2012-07-22,-14,64,YEARS,18-64,M,WHITE,White,HISPANIC OR LATINO,Y,Placebo,Pbo,Placebo,Pbo,Placebo,Placebo,2012-08-05,2012-08-05T00:00:00Z,H,2012-09-01,2012-09-01T23:59:59Z,H,DISCONTINUED,2012-09-02,,2012-08-05,2012-09-02,28,,,,,2012-09-02,29,Week 4,4,AFTER STANDING FOR 3 MINUTES,817,Pulse Rate (beats/min),PULSE,8,Vital Sign,2,70,,,76,,,-6,-7.894736842105263,,,,,,233,PULSE,Pulse Rate,STANDING,70,BEATS/MIN,70,70,BEATS/MIN,,,,5,WEEK 4,28,2012-09-02,29,AFTER STANDING FOR 3 MINUTES,817,PT3M,PATIENT STANDING
257,CDISCPILOT01,01-701-1023,1023,701,USA,VS,2012-08-05,2012-09-02,2012-08-05,2012-09-01,2013-02-18,,2013-02-18,,,,,,,,,,61,NA,2012-07-22,-14,64,YEARS,18-64,M,WHITE,White,HISPANIC OR LATINO,Y,Placebo,Pbo,Placebo,Pbo,Placebo,Placebo,2012-08-05,2012-08-05T00:00:00Z,H,2012-09-01,2012-09-01T23:59:59Z,H,DISCONTINUED,2012-09-02,,2012-08-05,2012-09-02,28,,,,,2013-02-18,198,,,AFTER LYING DOWN FOR 5 MINUTES,815,Pulse Rate (beats/min),PULSE,8,Vital Sign,2,72,,,76,,,,,,,,,,234,PULSE,Pulse Rate,SUPINE,72,BEATS/MIN,72,72,BEATS/MIN,,,,201,RETRIEVAL,168,2013-02-18,198,AFTER LYING DOWN FOR 5 MINUTES,815,PT5M,PATIENT SUPINE
258,CDISCPILOT01,01-701-1023,1023,701,USA,VS,2012-08-05,2012-09-02,2012-08-05,2012-09-01,2013-02-18,,2013-02-18,,,,,,,,,,62,NA,2012-07-22,-14,64,YEARS,18-64,M,WHITE,White,HISPANIC OR LATINO,Y,Placebo,Pbo,Placebo,Pbo,Placebo,Placebo,2012-08-05,2012-08-05T00:00:00Z,H,2012-09-01,2012-09-01T23:59:59Z,H,DISCONTINUED,2012-09-02,,2012-08-05,2012-09-02,28,,,,,2013-02-18,198,,,AFTER STANDING FOR 1 MINUTE,816,Pulse Rate (beats/min),PULSE,8,Vital Sign,2,84,,,76,,,,,,,,,,235,PULSE,Pulse Rate,STANDING,84,BEATS/MIN,84,84,BEATS/MIN,,,,201,RETRIEVAL,168,2013-02-18,198,AFTER STANDING FOR 1 MINUTE,816,PT1M,PATIENT STANDING
259,CDISCPILOT01,01-701-1023,1023,701,USA,VS,2012-08-05,2012-09-02,2012-08-05,2012-09-01,2013-02-18,,2013-02-18,,,,,,,,,,63,NA,2012-07-22,-14,64,YEARS,18-64,M,WHITE,White,HISPANIC OR LATINO,Y,Placebo,Pbo,Placebo,Pbo,Placebo,Placebo,2012-08-05,2012-08-05T00:00:00Z,H,2012-09-01,2012-09-01T23:59:59Z,H,DISCONTINUED,2012-09-02,,2012-08-05,2012-09-02,28,,,,,2013-02-18,198,,,AFTER STANDING FOR 3 MINUTES,817,Pulse Rate (beats/min),PULSE,8,Vital Sign,2,76,,,76,,,,,,,,,,236,PULSE,Pulse Rate,STANDING,76,BEATS/MIN,76,76,BEATS/MIN,,,,201,RETRIEVAL,168,2013-02-18,198,AFTER STANDING FOR 3 MINUTES,817,PT3M,PATIENT STANDING
260,CDISCPILOT01,01-701-1023,1023,701,USA,VS,2012-08-05,2012-09-02,2012-08-05,2012-09-01,2013-02-18,,2013-02-18,,,,,,,,,,64,NA,2012-07-22,-14,64,YEARS,18-64,M,WHITE,White,HISPANIC OR LATINO,Y,Placebo,Pbo,Placebo,Pbo,Placebo,Placebo,2012-08-05,2012-08-05T00:00:00Z,H,2012-09-01,2012-09-01T23:59:59Z,H,DISCONTINUED,2012-09-02,,2012-08-05,2012-09-02,28,,,,,2012-07-22,-14,,,AFTER LYING DOWN FOR 5 MINUTES,815,Systolic Blood Pressure (mmHg),SYSBP,9,Vital Sign,2,130,,,132,,,,,,,,,,237,SYSBP,Systolic Blood Pressure,SUPINE,130,mmHg,130,130,mmHg,,,,1,SCREENING 1,-7,2012-07-22,-14,AFTER LYING DOWN FOR 5 MINUTES,815,PT5M,PATIENT SUPINE
261,CDISCPILOT01,01-701-1023,1023,701,USA,VS,2012-08-05,2012-09-02,2012-08-05,2012-09-01,2013-02-18,,2013-02-18,,,,,,,,,,65,NA,2012-07-22,-14,64,YEARS,18-64,M,WHITE,White,HISPANIC OR LATINO,Y,Placebo,Pbo,Placebo,Pbo,Placebo,Placebo,2012-08-05,2012-08-05T00:00:00Z,H,2012-09-01,2012-09-01T23:59:59Z,H,DISCONTINUED,2012-09-02,,2012-08-05,2012-09-02,28,,,,,2012-07-22,-14,,,AFTER STANDING FOR 1 MINUTE,816,Systolic Blood Pressure (mmHg),SYSBP,9,Vital Sign,2,132,,,132,,,,,,,,,,238,SYSBP,Systolic Blood Pressure,STANDING,132,mmHg,132,132,mmHg,,,,1,SCREENING 1,-7,2012-07-22,-14,AFTER STANDING FOR 1 MINUTE,816,PT1M,PATIENT STANDING
262,CDISCPILOT01,01-701-1023,1023,701,USA,VS,2012-08-05,2012-09-02,2012-08-05,2012-09-01,2013-02-18,,2013-02-18,,,,,,,,,,66,NA,2012-07-22,-14,64,YEARS,18-64,M,WHITE,White,HISPANIC OR LATINO,Y,Placebo,Pbo,Placebo,Pbo,Placebo,Placebo,2012-08-05,2012-08-05T00:00:00Z,H,2012-09-01,2012-09-01T23:59:59Z,H,DISCONTINUED,2012-09-02,,2012-08-05,2012-09-02,28,,,,,2012-07-22,-14,,,AFTER STANDING FOR 3 MINUTES,817,Systolic Blood Pressure (mmHg),SYSBP,9,Vital Sign,2,140,,,132,,,,,,,,,,239,SYSBP,Systolic Blood Pressure,STANDING,140,mmHg,140,140,mmHg,,,,1,SCREENING 1,-7,2012-07-22,-14,AFTER STANDING FOR 3 MINUTES,817,PT3M,PATIENT STANDING
263,CDISCPILOT01,01-701-1023,1023,701,USA,VS,2012-08-05,2012-09-02,2012-08-05,2012-09-01,2013-02-18,,2013-02-18,,,,,,,,,,67,NA,2012-07-22,-14,64,YEARS,18-64,M,WHITE,White,HISPANIC OR LATINO,Y,Placebo,Pbo,Placebo,Pbo,Placebo,Placebo,2012-08-05,2012-08-05T00:00:00Z,H,2012-09-01,2012-09-01T23:59:59Z,H,DISCONTINUED,2012-09-02,,2012-08-05,2012-09-02,28,,,,,2012-08-03,-2,,,AFTER LYING DOWN FOR 5 MINUTES,815,Systolic Blood Pressure (mmHg),SYSBP,9,Vital Sign,2,131,,,132,,,,,,,,,,240,SYSBP,Systolic Blood Pressure,SUPINE,131,mmHg,131,131,mmHg,,,,2,SCREENING 2,-1,2012-08-03,-2,AFTER LYING DOWN FOR 5 MINUTES,815,PT5M,PATIENT SUPINE
264,CDISCPILOT01,01-701-1023,1023,701,USA,VS,2012-08-05,2012-09-02,2012-08-05,2012-09-01,2013-02-18,,2013-02-18,,,,,,,,,,68,NA,2012-07-22,-14,64,YEARS,18-64,M,WHITE,White,HISPANIC OR LATINO,Y,Placebo,Pbo,Placebo,Pbo,Placebo,Placebo,2012-08-05,2012-08-05T00:00:00Z,H,2012-09-01,2012-09-01T23:59:59Z,H,DISCONTINUED,2012-09-02,,2012-08-05,2012-09-02,28,,,,,2012-08-03,-2,,,AFTER STANDING FOR 1 MINUTE,816,Systolic Blood Pressure (mmHg),SYSBP,9,Vital Sign,2,129,,,132,,,,,,,,,,241,SYSBP,Systolic Blood Pressure,STANDING,129,mmHg,129,129,mmHg,,,,2,SCREENING 2,-1,2012-08-03,-2,AFTER STANDING FOR 1 MINUTE,816,PT1M,PATIENT STANDING
265,CDISCPILOT01,01-701-1023,1023,701,USA,VS,2012-08-05,2012-09-02,2012-08-05,2012-09-01,2013-02-18,,2013-02-18,,,,,,,,,,69,NA,2012-07-22,-14,64,YEARS,18-64,M,WHITE,White,HISPANIC OR LATINO,Y,Placebo,Pbo,Placebo,Pbo,Placebo,Placebo,2012-08-05,2012-08-05T00:00:00Z,H,2012-09-01,2012-09-01T23:59:59Z,H,DISCONTINUED,2012-09-02,,2012-08-05,2012-09-02,28,,,,,2012-08-03,-2,,,AFTER STANDING FOR 3 MINUTES,817,Systolic Blood Pressure (mmHg),SYSBP,9,Vital Sign,2,138,,,132,,,,,,,,,,242,SYSBP,Systolic Blood Pressure,STANDING,138,mmHg,138,138,mmHg,,,,2,SCREENING 2,-1,2012-08-03,-2,AFTER STANDING FOR 3 MINUTES,817,PT3M,PATIENT STANDING
266,CDISCPILOT01,01-701-1023,1023,701,USA,VS,2012-08-05,2012-09-02,2012-08-05,2012-09-01,2013-02-18,,2013-02-18,,,,,,,,,,70,NA,2012-07-22,-14,64,YEARS,18-64,M,WHITE,White,HISPANIC OR LATINO,Y,Placebo,Pbo,Placebo,Pbo,Placebo,Placebo,2012-08-05,2012-08-05T00:00:00Z,H,2012-09-01,2012-09-01T23:59:59Z,H,DISCONTINUED,2012-09-02,,2012-08-05,2012-09-02,28,,,,,2012-08-05,1,Baseline,0,AFTER LYING DOWN FOR 5 MINUTES,815,Systolic Blood Pressure (mmHg),SYSBP,9,Vital Sign,2,130,,,132,,,,,,,,,,243,SYSBP,Systolic Blood Pressure,SUPINE,130,mmHg,130,130,mmHg,,,Y,3,BASELINE,1,2012-08-05,1,AFTER LYING DOWN FOR 5 MINUTES,815,PT5M,PATIENT SUPINE
267,CDISCPILOT01,01-701-1023,1023,701,USA,VS,2012-08-05,2012-09-02,2012-08-05,2012-09-01,2013-02-18,,2013-02-18,,,,,,,,,,71,NA,2012-07-22,-14,64,YEARS,18-64,M,WHITE,White,HISPANIC OR LATINO,Y,Placebo,Pbo,Placebo,Pbo,Placebo,Placebo,2012-08-05,2012-08-05T00:00:00Z,H,2012-09-01,2012-09-01T23:59:59Z,H,DISCONTINUED,2012-09-02,,2012-08-05,2012-09-02,28,,,,,2012-08-05,1,Baseline,0,AFTER STANDING FOR 1 MINUTE,816,Systolic Blood Pressure (mmHg),SYSBP,9,Vital Sign,2,132,,,132,,,,,,,,,,244,SYSBP,Systolic Blood Pressure,STANDING,132,mmHg,132,132,mmHg,,,Y,3,BASELINE,1,2012-08-05,1,AFTER STANDING FOR 1 MINUTE,816,PT1M,PATIENT STANDING
268,CDISCPILOT01,01-701-1023,1023,701,USA,VS,2012-08-05,2012-09-02,2012-08-05,2012-09-01,2013-02-18,,2013-02-18,,,,,,,,,,72,NA,2012-07-22,-14,64,YEARS,18-64,M,WHITE,White,HISPANIC OR LATINO,Y,Placebo,Pbo,Placebo,Pbo,Placebo,Placebo,2012-08-05,2012-08-05T00:00:00Z,H,2012-09-01,2012-09-01T23:59:59Z,H,DISCONTINUED,2012-09-02,,2012-08-05,2012-09-02,28,,,,,2012-08-05,1,Baseline,0,AFTER STANDING FOR 3 MINUTES,817,Systolic Blood Pressure (mmHg),SYSBP,9,Vital Sign,2,132,,,132,,,,,,,,,Y,245,SYSBP,Systolic Blood Pressure,STANDING,132,mmHg,132,132,mmHg,,,Y,3,BASELINE,1,2012-08-05,1,AFTER STANDING FOR 3 MINUTES,817,PT3M,PATIENT STANDING
269,CDISCPILOT01,01-701-1023,1023,701,USA,VS,2012-08-05,2012-09-02,2012-08-05,2012-09-01,2013-02-18,,2013-02-18,,,,,,,,,,73,NA,2012-07-22,-14,64,YEARS,18-64,M,WHITE,White,HISPANIC OR LATINO,Y,Placebo,Pbo,Placebo,Pbo,Placebo,Placebo,2012-08-05,2012-08-05T00:00:00Z,H,2012-09-01,2012-09-01T23:59:59Z,H,DISCONTINUED,2012-09-02,,2012-08-05,2012-09-02,28,,,,,2012-08-26,22,,,AFTER LYING DOWN FOR 5 MINUTES,815,Systolic Blood Pressure (mmHg),SYSBP,9,Vital Sign,2,133,,,132,,,,,,,,,,246,SYSBP,Systolic Blood Pressure,SUPINE,133,mmHg,133,133,mmHg,,,,3.5,AMBUL ECG PLACEMENT,13,2012-08-26,22,AFTER LYING DOWN FOR 5 MINUTES,815,PT5M,PATIENT SUPINE
270,CDISCPILOT01,01-701-1023,1023,701,USA,VS,2012-08-05,2012-09-02,2012-08-05,2012-09-01,2013-02-18,,2013-02-18,,,,,,,,,,74,NA,2012-07-22,-14,64,YEARS,18-64,M,WHITE,White,HISPANIC OR LATINO,Y,Placebo,Pbo,Placebo,Pbo,Placebo,Placebo,2012-08-05,2012-08-05T00:00:00Z,H,2012-09-01,2012-09-01T23:59:59Z,H,DISCONTINUED,2012-09-02,,2012-08-05,2012-09-02,28,,,,,2012-08-26,22,,,AFTER STANDING FOR 1 MINUTE,816,Systolic Blood Pressure (mmHg),SYSBP,9,Vital Sign,2,130,,,132,,,,,,,,,,247,SYSBP,Systolic Blood Pressure,STANDING,130,mmHg,130,130,mmHg,,,,3.5,AMBUL ECG PLACEMENT,13,2012-08-26,22,AFTER STANDING FOR 1 MINUTE,816,PT1M,PATIENT STANDING
271,CDISCPILOT01,01-701-1023,1023,701,USA,VS,2012-08-05,2012-09-02,2012-08-05,2012-09-01,2013-02-18,,2013-02-18,,,,,,,,,,75,NA,2012-07-22,-14,64,YEARS,18-64,M,WHITE,White,HISPANIC OR LATINO,Y,Placebo,Pbo,Placebo,Pbo,Placebo,Placebo,2012-08-05,2012-08-05T00:00:00Z,H,2012-09-01,2012-09-01T23:59:59Z,H,DISCONTINUED,2012-09-02,,2012-08-05,2012-09-02,28,,,,,2012-08-26,22,,,AFTER STANDING FOR 3 MINUTES,817,Systolic Blood Pressure (mmHg),SYSBP,9,Vital Sign,2,138,,,132,,,,,,,,,,248,SYSBP,Systolic Blood Pressure,STANDING,138,mmHg,138,138,mmHg,,,,3.5,AMBUL ECG PLACEMENT,13,2012-08-26,22,AFTER STANDING FOR 3 MINUTES,817,PT3M,PATIENT STANDING
272,CDISCPILOT01,01-701-1023,1023,701,USA,VS,2012-08-05,2012-09-02,2012-08-05,2012-09-01,2013-02-18,,2013-02-18,,,,,,,,,,76,NA,2012-07-22,-14,64,YEARS,18-64,M,WHITE,White,HISPANIC OR LATINO,Y,Placebo,Pbo,Placebo,Pbo,Placebo,Placebo,2012-08-05,2012-08-05T00:00:00Z,H,2012-09-01,2012-09-01T23:59:59Z,H,DISCONTINUED,2012-09-02,,2012-08-05,2012-09-02,28,,,,,2012-08-27,23,Week 2,2,AFTER LYING DOWN FOR 5 MINUTES,815,Systolic Blood Pressure (mmHg),SYSBP,9,Vital Sign,2,122,,,132,,,-10,-7.575757575757576,,,,,,249,SYSBP,Systolic Blood Pressure,SUPINE,122,mmHg,122,122,mmHg,,,,4,WEEK 2,14,2012-08-27,23,AFTER LYING DOWN FOR 5 MINUTES,815,PT5M,PATIENT SUPINE
273,CDISCPILOT01,01-701-1023,1023,701,USA,VS,2012-08-05,2012-09-02,2012-08-05,2012-09-01,2013-02-18,,2013-02-18,,,,,,,,,,77,NA,2012-07-22,-14,64,YEARS,18-64,M,WHITE,White,HISPANIC OR LATINO,Y,Placebo,Pbo,Placebo,Pbo,Placebo,Placebo,2012-08-05,2012-08-05T00:00:00Z,H,2012-09-01,2012-09-01T23:59:59Z,H,DISCONTINUED,2012-09-02,,2012-08-05,2012-09-02,28,,,,,2012-08-27,23,Week 2,2,AFTER STANDING FOR 1 MINUTE,816,Systolic Blood Pressure (mmHg),SYSBP,9,Vital Sign,2,130,,,132,,,-2,-1.5151515151515151,,,,,,250,SYSBP,Systolic Blood Pressure,STANDING,130,mmHg,130,130,mmHg,,,,4,WEEK 2,14,2012-08-27,23,AFTER STANDING FOR 1 MINUTE,816,PT1M,PATIENT STANDING
274,CDISCPILOT01,01-701-1023,1023,701,USA,VS,2012-08-05,2012-09-02,2012-08-05,2012-09-01,2013-02-18,,2013-02-18,,,,,,,,,,78,NA,2012-07-22,-14,64,YEARS,18-64,M,WHITE,White,HISPANIC OR LATINO,Y,Placebo,Pbo,Placebo,Pbo,Placebo,Placebo,2012-08-05,2012-08-05T00:00:00Z,H,2012-09-01,2012-09-01T23:59:59Z,H,DISCONTINUED,2012-09-02,,2012-08-05,2012-09-02,28,,,,,2012-08-27,23,Week 2,2,AFTER STANDING FOR 3 MINUTES,817,Systolic Blood Pressure (mmHg),SYSBP,9,Vital Sign,2,138,,,132,,,6,4.545454545454546,,,,,,251,SYSBP,Systolic Blood Pressure,STANDING,138,mmHg,138,138,mmHg,,,,4,WEEK 2,14,2012-08-27,23,AFTER STANDING FOR 3 MINUTES,817,PT3M,PATIENT STANDING
275,CDISCPILOT01,01-701-1023,1023,701,USA,VS,2012-08-05,2012-09-02,2012-08-05,2012-09-01,2013-02-18,,2013-02-18,,,,,,,,,,79,NA,2012-07-22,-14,64,YEARS,18-64,M,WHITE,White,HISPANIC OR LATINO,Y,Placebo,Pbo,Placebo,Pbo,Placebo,Placebo,2012-08-05,2012-08-05T00:00:00Z,H,2012-09-01,2012-09-01T23:59:59Z,H,DISCONTINUED,2012-09-02,,2012-08-05,2012-09-02,28,,,,,2012-09-02,29,Week 4,4,AFTER LYING DOWN FOR 5 MINUTES,815,Systolic Blood Pressure (mmHg),SYSBP,9,Vital Sign,2,130,,,132,,,-2,-1.5151515151515151,,,,,,252,SYSBP,Systolic Blood Pressure,SUPINE,130,mmHg,130,130,mmHg,,,,5,WEEK 4,28,2012-09-02,29,AFTER LYING DOWN FOR 5 MINUTES,815,PT5M,PATIENT SUPINE
276,CDISCPILOT01,01-701-1023,1023,701,USA,VS,2012-08-05,2012-09-02,2012-08-05,2012-09-01,2013-02-18,,2013-02-18,,,,,,,,,,80,NA,2012-07-22,-14,64,YEARS,18-64,M,WHITE,White,HISPANIC OR LATINO,Y,Placebo,Pbo,Placebo,Pbo,Placebo,Placebo,2012-08-05,2012-08-05T00:00:00Z,H,2012-09-01,2012-09-01T23:59:59Z,H,DISCONTINUED,2012-09-02,,2012-08-05,2012-09-02,28,,,,,2012-09-02,29,Week 4,4,AFTER STANDING FOR 1 MINUTE,816,Systolic Blood Pressure (mmHg),SYSBP,9,Vital Sign,2,134,,,132,,,2,1.5151515151515151,,,,,,253,SYSBP,Systolic Blood Pressure,STANDING,134,mmHg,134,134,mmHg,,,,5,WEEK 4,28,2012-09-02,29,AFTER STANDING FOR 1 MINUTE,816,PT1M,PATIENT STANDING
277,CDISCPILOT01,01-701-1023,1023,701,USA,VS,2012-08-05,2012-09-02,2012-08-05,2012-09-01,2013-02-18,,2013-02-18,,,,,,,,,,81,NA,2012-07-22,-14,64,YEARS,18-64,M,WHITE,White,HISPANIC OR LATINO,Y,Placebo,Pbo,Placebo,Pbo,Placebo,Placebo,2012-08-05,2012-08-05T00:00:00Z,H,2012-09-01,2012-09-01T23:59:59Z,H,DISCONTINUED,2012-09-02,,2012-08-05,2012-09-02,28,,,,,2012-09-02,29,Week 4,4,AFTER STANDING FOR 3 MINUTES,817,Systolic Blood Pressure (mmHg),SYSBP,9,Vital Sign,2,136,,,132,,,4,3.0303030303030303,,,,,,254,SYSBP,Systolic Blood Pressure,STANDING,136,mmHg,136,136,mmHg,,,,5,WEEK 4,28,2012-09-02,29,AFTER STANDING FOR 3 MINUTES,817,PT3M,PATIENT STANDING
278,CDISCPILOT01,01-701-1023,1023,701,USA,VS,2012-08-05,2012-09-02,2012-08-05,2012-09-01,2013-02-18,,2013-02-18,,,,,,,,,,82,NA,2012-07-22,-14,64,YEARS,18-64,M,WHITE,White,HISPANIC OR LATINO,Y,Placebo,Pbo,Placebo,Pbo,Placebo,Placebo,2012-08-05,2012-08-05T00:00:00Z,H,2012-09-01,2012-09-01T23:59:59Z,H,DISCONTINUED,2012-09-02,,2012-08-05,2012-09-02,28,,,,,2013-02-18,198,,,AFTER LYING DOWN FOR 5 MINUTES,815,Systolic Blood Pressure (mmHg),SYSBP,9,Vital Sign,2,125,,,132,,,,,,,,,,255,SYSBP,Systolic Blood Pressure,SUPINE,125,mmHg,125,125,mmHg,,,,201,RETRIEVAL,168,2013-02-18,198,AFTER LYING DOWN FOR 5 MINUTES,815,PT5M,PATIENT SUPINE
279,CDISCPILOT01,01-701-1023,1023,701,USA,VS,2012-08-05,2012-09-02,2012-08-05,2012-09-01,2013-02-18,,2013-02-18,,,,,,,,,,83,NA,2012-07-22,-14,64,YEARS,18-64,M,WHITE,White,HISPANIC OR LATINO,Y,Placebo,Pbo,Placebo,Pbo,Placebo,Placebo,2012-08-05,2012-08-05T00:00:00Z,H,2012-09-01,2012-09-01T23:59:59Z,H,DISCONTINUED,2012-09-02,,2012-08-05,2012-09-02,28,,,,,2013-02-18,198,,,AFTER STANDING FOR 1 MINUTE,816,Systolic Blood Pressure (mmHg),SYSBP,9,Vital Sign,2,110,,,132,,,,,,,,,,256,SYSBP,Systolic Blood Pressure,STANDING,110,mmHg,110,110,mmHg,,,,201,RETRIEVAL,168,2013-02-18,198,AFTER STANDING FOR 1 MINUTE,816,PT1M,PATIENT STANDING
280,CDISCPILOT01,01-701-1023,1023,701,USA,VS,2012-08-05,2012-09-02,2012-08-05,2012-09-01,2013-02-18,,2013-02-18,,,,,,,,,,84,NA,2012-07-22,-14,64,YEARS,18-64,M,WHITE,White,HISPANIC OR LATINO,Y,Placebo,Pbo,Placebo,Pbo,Placebo,Placebo,2012-08-05,2012-08-05T00:00:00Z,H,2012-09-01,2012-09-01T23:59:59Z,H,DISCONTINUED,2012-09-02,,2012-08-05,2012-09-02,28,,,,,2013-02-18,198,,,AFTER STANDING FOR 3 MINUTES,817,Systolic Blood Pressure (mmHg),SYSBP,9,Vital Sign,2,130,,,132,,,,,,,,,,257,SYSBP,Systolic Blood Pressure,STANDING,130,mmHg,130,130,mmHg,,,,201,RETRIEVAL,168,2013-02-18,198,AFTER STANDING FOR 3 MINUTES,817,PT3M,PATIENT STANDING
281,CDISCPILOT01,01-701-1023,1023,701,USA,VS,2012-08-05,2012-09-02,2012-08-05,2012-09-01,2013-02-18,,2013-02-18,,,,,,,,,,85,NA,2012-07-22,-14,64,YEARS,18-64,M,WHITE,White,HISPANIC OR LATINO,Y,Placebo,Pbo,Placebo,Pbo,Placebo,Placebo,2012-08-05,2012-08-05T00:00:00Z,H,2012-09-01,2012-09-01T23:59:59Z,H,DISCONTINUED,2012-09-02,,2012-08-05,2012-09-02,28,,,,,2012-07-22,-14,,,,,Temperature (C),TEMP,10,Vital Sign,2,36.56,,,36.28,,,,,,,,,,258,TEMP,Temperature,,36.56,F,36.56,36.56,F,,ORAL CAVITY,,1,SCREENING 1,-7,2012-07-22,-14,,,,
282,CDISCPILOT01,01-701-1023,1023,701,USA,VS,2012-08-05,2012-09-02,2012-08-05,2012-09-01,2013-02-18,,2013-02-18,,,,,,,,,,86,NA,2012-07-22,-14,64,YEARS,18-64,M,WHITE,White,HISPANIC OR LATINO,Y,Placebo,Pbo,Placebo,Pbo,Placebo,Placebo,2012-08-05,2012-08-05T00:00:00Z,H,2012-09-01,2012-09-01T23:59:59Z,H,DISCONTINUED,2012-09-02,,2012-08-05,2012-09-02,28,,,,,2012-08-03,-2,,,,,Temperature (C),TEMP,10,Vital Sign,2,36.56,,,36.28,,,,,,,,,,259,TEMP,Temperature,,36.56,F,36.56,36.56,F,,ORAL CAVITY,,2,SCREENING 2,-1,2012-08-03,-2,,,,
283,CDISCPILOT01,01-701-1023,1023,701,USA,VS,2012-08-05,2012-09-02,2012-08-05,2012-09-01,2013-02-18,,2013-02-18,,,,,,,,,,87,NA,2012-07-22,-14,64,YEARS,18-64,M,WHITE,White,HISPANIC OR LATINO,Y,Placebo,Pbo,Placebo,Pbo,Placebo,Placebo,2012-08-05,2012-08-05T00:00:00Z,H,2012-09-01,2012-09-01T23:59:59Z,H,DISCONTINUED,2012-09-02,,2012-08-05,2012-09-02,28,,,,,2012-08-05,1,Baseline,0,,,Temperature (C),TEMP,10,Vital Sign,2,36.28,,,36.28,,,,,,,,,Y,260,TEMP,Temperature,,36.28,F,36.28,36.28,F,,ORAL CAVITY,Y,3,BASELINE,1,2012-08-05,1,,,,
284,CDISCPILOT01,01-701-1023,1023,701,USA,VS,2012-08-05,2012-09-02,2012-08-05,2012-09-01,2013-02-18,,2013-02-18,,,,,,,,,,88,NA,2012-07-22,-14,64,YEARS,18-64,M,WHITE,White,HISPANIC OR LATINO,Y,Placebo,Pbo,Placebo,Pbo,Placebo,Placebo,2012-08-05,2012-08-05T00:00:00Z,H,2012-09-01,2012-09-01T23:59:59Z,H,DISCONTINUED,2012-09-02,,2012-08-05,2012-09-02,28,,,,,2012-08-26,22,,,,,Temperature (C),TEMP,10,Vital Sign,2,36.44,,,36.28,,,,,,,,,,261,TEMP,Temperature,,36.44,F,36.44,36.44,F,,ORAL CAVITY,,3.5,AMBUL ECG PLACEMENT,13,2012-08-26,22,,,,
285,CDISCPILOT01,01-701-1023,1023,701,USA,VS,2012-08-05,2012-09-02,2012-08-05,2012-09-01,2013-02-18,,2013-02-18,,,,,,,,,,89,NA,2012-07-22,-14,64,YEARS,18-64,M,WHITE,White,HISPANIC OR LATINO,Y,Placebo,Pbo,Placebo,Pbo,Placebo,Placebo,2012-08-05,2012-08-05T00:00:00Z,H,2012-09-01,2012-09-01T23:59:59Z,H,DISCONTINUED,2012-09-02,,2012-08-05,2012-09-02,28,,,,,2012-08-27,23,Week 2,2,,,Temperature (C),TEMP,10,Vital Sign,2,36.94,,,36.28,,,0.6599999999999966,1.8191841234840036,,,,,,262,TEMP,Temperature,,36.94,F,36.94,36.94,F,,ORAL CAVITY,,4,WEEK 2,14,2012-08-27,23,,,,
286,CDISCPILOT01,01-701-1023,1023,701,USA,VS,2012-08-05,2012-09-02,2012-08-05,2012-09-01,2013-02-18,,2013-02-18,,,,,,,,,,90,NA,2012-07-22,-14,64,YEARS,18-64,M,WHITE,White,HISPANIC OR LATINO,Y,Placebo,Pbo,Placebo,Pbo,Placebo,Placebo,2012-08-05,2012-08-05T00:00:00Z,H,2012-09-01,2012-09-01T23:59:59Z,H,DISCONTINUED,2012-09-02,,2012-08-05,2012-09-02,28,,,,,2012-09-02,29,Week 4,4,,,Temperature (C),TEMP,10,Vital Sign,2,36.22,,,36.28,,,-0.060000000000002274,-0.1653803748621893,,,,,,263,TEMP,Temperature,,36.22,F,36.22,36.22,F,,ORAL CAVITY,,5,WEEK 4,28,2012-09-02,29,,,,
287,CDISCPILOT01,01-701-1023,1023,701,USA,VS,2012-08-05,2012-09-02,2012-08-05,2012-09-01,2013-02-18,,2013-02-18,,,,,,,,,,91,NA,2012-07-22,-14,64,YEARS,18-64,M,WHITE,White,HISPANIC OR LATINO,Y,Placebo,Pbo,Placebo,Pbo,Placebo,Placebo,2012-08-05,2012-08-05T00:00:00Z,H,2012-09-01,2012-09-01T23:59:59Z,H,DISCONTINUED,2012-09-02,,2012-08-05,2012-09-02,28,,,,,2013-02-18,198,,,,,Temperature (C),TEMP,10,Vital Sign,2,36.56,,,36.28,,,,,,,,,,264,TEMP,Temperature,,36.56,F,36.56,36.56,F,,ORAL CAVITY,,201,RETRIEVAL,168,2013-02-18,198,,,,
288,CDISCPILOT01,01-701-1028,1028,701,USA,VS,2013-07-19,2014-01-14,2013-07-19,2014-01-14,2014-01-14T11:10,,,,,,,,,,,,1,NA,2013-07-11,-8,71,YEARS,>64,M,WHITE,White,NOT HISPANIC OR LATINO,Y,Insulin,Ins,Insulin,Ins,Insulin,Insulin,2013-07-19,2013-07-19T00:00:00Z,H,2014-01-14,2014-01-14T23:59:59Z,H,COMPLETED,2014-01-14,,2013-07-19,2014-01-14,180,,,,,2013-07-11,-8,Baseline,0,,,Height (cm),HEIGHT,1,Anthropometric measurement,1,159,,,159,,,,,,,,,Y,326,HEIGHT,Height,,159,cm,159,159,cm,,,,1,SCREENING 1,-7,2013-07-11,-8,,,,
289,CDISCPILOT01,01-701-1028,1028,701,USA,VS,2013-07-19,2014-01-14,2013-07-19,2014-01-14,2014-01-14T11:10,,,,,,,,,,,,2,NA,2013-07-11,-8,71,YEARS,>64,M,WHITE,White,NOT HISPANIC OR LATINO,Y,Insulin,Ins,Insulin,Ins,Insulin,Insulin,2013-07-19,2013-07-19T00:00:00Z,H,2014-01-14,2014-01-14T23:59:59Z,H,COMPLETED,2014-01-14,,2013-07-19,2014-01-14,180,,,,,2013-07-11,-8,,,,,Weight (kg),WEIGHT,2,Anthropometric measurement,1,95.14,,,95.11,,,,,,,,,,436,WEIGHT,Weight,,95.14,kg,95.14,95.14,kg,,,,1,SCREENING 1,-7,2013-07-11,-8,,,,
290,CDISCPILOT01,01-701-1028,1028,701,USA,VS,2013-07-19,2014-01-14,2013-07-19,2014-01-14,2014-01-14T11:10,,,,,,,,,,,,3,NA,2013-07-11,-8,71,YEARS,>64,M,WHITE,White,NOT HISPANIC OR LATINO,Y,Insulin,Ins,Insulin,Ins,Insulin,Insulin,2013-07-19,2013-07-19T00:00:00Z,H,2014-01-14,2014-01-14T23:59:59Z,H,COMPLETED,2014-01-14,,2013-07-19,2014-01-14,180,,,,,2013-07-19,1,Baseline,0,,,Weight (kg),WEIGHT,2,Anthropometric measurement,1,95.11,,,95.11,,,,,,,,,Y,437,WEIGHT,Weight,,95.11,kg,95.11,95.11,kg,,,Y,3,BASELINE,1,2013-07-19,1,,,,
291,CDISCPILOT01,01-701-1028,1028,701,USA,VS,2013-07-19,2014-01-14,2013-07-19,2014-01-14,2014-01-14T11:10,,,,,,,,,,,,4,NA,2013-07-11,-8,71,YEARS,>64,M,WHITE,White,NOT HISPANIC OR LATINO,Y,Insulin,Ins,Insulin,Ins,Insulin,Insulin,2013-07-19,2013-07-19T00:00:00Z,H,2014-01-14,2014-01-14T23:59:59Z,H,COMPLETED,2014-01-14,,2013-07-19,2014-01-14,180,,,,,2013-08-01,14,Week 2,2,,,Weight (kg),WEIGHT,2,Anthropometric measurement,1,94.23,,,95.11,,,-0.8799999999999955,-0.9252444537903433,Achievement of >= 5% weight reduction from baseline,N,Achievement of >= 10% weight reduction from baseline,N,,438,WEIGHT,Weight,,94.23,kg,94.23,94.23,kg,,,,4,WEEK 2,14,2013-08-01,14,,,,
292,CDISCPILOT01,01-701-1028,1028,701,USA,VS,2013-07-19,2014-01-14,2013-07-19,2014-01-14,2014-01-14T11:10,,,,,,,,,,,,5,NA,2013-07-11,-8,71,YEARS,>64,M,WHITE,White,NOT HISPANIC OR LATINO,Y,Insulin,Ins,Insulin,Ins,Insulin,Insulin,2013-07-19,2013-07-19T00:00:00Z,H,2014-01-14,2014-01-14T23:59:59Z,H,COMPLETED,2014-01-14,,2013-07-19,2014-01-14,180,,,,,2013-08-14,27,Week 4,4,,,Weight (kg),WEIGHT,2,Anthropometric measurement,1,92.11,,,95.11,,,-3,-3.1542424561034594,Achievement of >= 5% weight reduction from baseline,N,Achievement of >= 10% weight reduction from baseline,N,,439,WEIGHT,Weight,,92.11,kg,92.11,92.11,kg,,,,5,WEEK 4,28,2013-08-14,27,,,,
293,CDISCPILOT01,01-701-1028,1028,701,USA,VS,2013-07-19,2014-01-14,2013-07-19,2014-01-14,2014-01-14T11:10,,,,,,,,,,,,6,NA,2013-07-11,-8,71,YEARS,>64,M,WHITE,White,NOT HISPANIC OR LATINO,Y,Insulin,Ins,Insulin,Ins,Insulin,Insulin,2013-07-19,2013-07-19T00:00:00Z,H,2014-01-14,2014-01-14T23:59:59Z,H,COMPLETED,2014-01-14,,2013-07-19,2014-01-14,180,,,,,2013-08-29,42,Week 6,6,,,Weight (kg),WEIGHT,2,Anthropometric measurement,1,91.55,,,95.11,,,-3.5600000000000023,-3.743034381242774,Achievement of >= 5% weight reduction from baseline,N,Achievement of >= 10% weight reduction from baseline,N,,440,WEIGHT,Weight,,91.55,kg,91.55,91.55,kg,,,,7,WEEK 6,42,2013-08-29,42,,,,
294,CDISCPILOT01,01-701-1028,1028,701,USA,VS,2013-07-19,2014-01-14,2013-07-19,2014-01-14,2014-01-14T11:10,,,,,,,,,,,,7,NA,2013-07-11,-8,71,YEARS,>64,M,WHITE,White,NOT HISPANIC OR LATINO,Y,Insulin,Ins,Insulin,Ins,Insulin,Insulin,2013-07-19,2013-07-19T00:00:00Z,H,2014-01-14,2014-01-14T23:59:59Z,H,COMPLETED,2014-01-14,,2013-07-19,2014-01-14,180,,,,,2013-09-10,54,Week 8,8,,,Weight (kg),WEIGHT,2,Anthropometric measurement,1,90.24,,,95.11,,,-4.8700000000000045,-5.120386920407953,Achievement of >= 5% weight reduction from baseline,Y,Achievement of >= 10% weight reduction from baseline,N,,441,WEIGHT,Weight,,90.24,kg,90.24,90.24,kg,,,,8,WEEK 8,56,2013-09-10,54,,,,
295,CDISCPILOT01,01-701-1028,1028,701,USA,VS,2013-07-19,2014-01-14,2013-07-19,2014-01-14,2014-01-14T11:10,,,,,,,,,,,,8,NA,2013-07-11,-8,71,YEARS,>64,M,WHITE,White,NOT HISPANIC OR LATINO,Y,Insulin,Ins,Insulin,Ins,Insulin,Insulin,2013-07-19,2013-07-19T00:00:00Z,H,2014-01-14,2014-01-14T23:59:59Z,H,COMPLETED,2014-01-14,,2013-07-19,2014-01-14,180,,,,,2013-10-09,83,Week 12,12,,,Weight (kg),WEIGHT,2,Anthropometric measurement,1,89.33,,,95.11,,,-5.780000000000001,-6.077173798759333,Achievement of >= 5% weight reduction from baseline,Y,Achievement of >= 10% weight reduction from baseline,N,,442,WEIGHT,Weight,,89.33,kg,89.33,89.33,kg,,,,9,WEEK 12,84,2013-10-09,83,,,,
296,CDISCPILOT01,01-701-1028,1028,701,USA,VS,2013-07-19,2014-01-14,2013-07-19,2014-01-14,2014-01-14T11:10,,,,,,,,,,,,9,NA,2013-07-11,-8,71,YEARS,>64,M,WHITE,White,NOT HISPANIC OR LATINO,Y,Insulin,Ins,Insulin,Ins,Insulin,Insulin,2013-07-19,2013-07-19T00:00:00Z,H,2014-01-14,2014-01-14T23:59:59Z,H,COMPLETED,2014-01-14,,2013-07-19,2014-01-14,180,,,,,2013-11-06,111,Week 16,16,,,Weight (kg),WEIGHT,2,Anthropometric measurement,1,88.82,,,95.11,,,-6.290000000000006,-6.613395016296926,Achievement of >= 5% weight reduction from baseline,Y,Achievement of >= 10% weight reduction from baseline,N,,443,WEIGHT,Weight,,88.82,kg,88.82,88.82,kg,,,,10,WEEK 16,112,2013-11-06,111,,,,
297,CDISCPILOT01,01-701-1028,1028,701,USA,VS,2013-07-19,2014-01-14,2013-07-19,2014-01-14,2014-01-14T11:10,,,,,,,,,,,,10,NA,2013-07-11,-8,71,YEARS,>64,M,WHITE,White,NOT HISPANIC OR LATINO,Y,Insulin,Ins,Insulin,Ins,Insulin,Insulin,2013-07-19,2013-07-19T00:00:00Z,H,2014-01-14,2014-01-14T23:59:59Z,H,COMPLETED,2014-01-14,,2013-07-19,2014-01-14,180,,,,,2013-12-04,139,Week 20,20,,,Weight (kg),WEIGHT,2,Anthropometric measurement,1,88.15,,,95.11,,,-6.959999999999994,-7.317842498160018,Achievement of >= 5% weight reduction from baseline,Y,Achievement of >= 10% weight reduction from baseline,N,,444,WEIGHT,Weight,,88.15,kg,88.15,88.15,kg,,,,11,WEEK 20,140,2013-12-04,139,,,,
298,CDISCPILOT01,01-701-1028,1028,701,USA,VS,2013-07-19,2014-01-14,2013-07-19,2014-01-14,2014-01-14T11:10,,,,,,,,,,,,11,NA,2013-07-11,-8,71,YEARS,>64,M,WHITE,White,NOT HISPANIC OR LATINO,Y,Insulin,Ins,Insulin,Ins,Insulin,Insulin,2013-07-19,2013-07-19T00:00:00Z,H,2014-01-14,2014-01-14T23:59:59Z,H,COMPLETED,2014-01-14,,2013-07-19,2014-01-14,180,,,,,2014-01-06,172,Week 24,24,,,Weight (kg),WEIGHT,2,Anthropometric measurement,1,87.06,,,95.11,,,-8.049999999999997,-8.463883923877614,Achievement of >= 5% weight reduction from baseline,Y,Achievement of >= 10% weight reduction from baseline,N,,445,WEIGHT,Weight,,87.06,kg,87.06,87.06,kg,,,,12,WEEK 24,168,2014-01-06,172,,,,
299,CDISCPILOT01,01-701-1028,1028,701,USA,VS,2013-07-19,2014-01-14,2013-07-19,2014-01-14,2014-01-14T11:10,,,,,,,,,,,,12,NA,2013-07-11,-8,71,YEARS,>64,M,WHITE,White,NOT HISPANIC OR LATINO,Y,Insulin,Ins,Insulin,Ins,Insulin,Insulin,2013-07-19,2013-07-19T00:00:00Z,H,2014-01-14,2014-01-14T23:59:59Z,H,COMPLETED,2014-01-14,,2013-07-19,2014-01-14,180,,,,,2014-01-14,180,Week 26,26,,,Weight (kg),WEIGHT,2,Anthropometric measurement,1,86.12,,,95.11,,,-8.989999999999995,-9.452213226790027,Achievement of >= 5% weight reduction from baseline,Y,Achievement of >= 10% weight reduction from baseline,N,,446,WEIGHT,Weight,,86.12,kg,86.12,86.12,kg,,,,13,WEEK 26,182,2014-01-14,180,,,,
300,CDISCPILOT01,01-701-1028,1028,701,USA,,2013-07-19,2014-01-14,2013-07-19,2014-01-14,2014-01-14T11:10,,,,,,,,,,,,13,NA,2013-07-11,-8,71,YEARS,>64,M,WHITE,White,NOT HISPANIC OR LATINO,Y,Insulin,Ins,Insulin,Ins,Insulin,Insulin,2013-07-19,2013-07-19T00:00:00Z,H,2014-01-14,2014-01-14T23:59:59Z,H,COMPLETED,2014-01-14,,2013-07-19,2014-01-14,180,,,,,2013-07-11,-8,,,,,Body Mass Index (kg/m2),BMI,3,Anthropometric measurement,1,37.63300502353547,Obesity class II,5,37.62113840433528,Obesity class II,5,,,,,,,,,,,,,,,,,,,,,,,,,,,,
301,CDISCPILOT01,01-701-1028,1028,701,USA,,2013-07-19,2014-01-14,2013-07-19,2014-01-14,2014-01-14T11:10,,,,,,,,,,,,14,NA,2013-07-11,-8,71,YEARS,>64,M,WHITE,White,NOT HISPANIC OR LATINO,Y,Insulin,Ins,Insulin,Ins,Insulin,Insulin,2013-07-19,2013-07-19T00:00:00Z,H,2014-01-14,2014-01-14T23:59:59Z,H,COMPLETED,2014-01-14,,2013-07-19,2014-01-14,180,,,,,2013-07-19,1,Baseline,0,,,Body Mass Index (kg/m2),BMI,3,Anthropometric measurement,1,37.62113840433528,Obesity class II,5,37.62113840433528,Obesity class II,5,,,,,,,Y,,,,,,,,,,,,,,,,,,,,,
302,CDISCPILOT01,01-701-1028,1028,701,USA,,2013-07-19,2014-01-14,2013-07-19,2014-01-14,2014-01-14T11:10,,,,,,,,,,,,15,NA,2013-07-11,-8,71,YEARS,>64,M,WHITE,White,NOT HISPANIC OR LATINO,Y,Insulin,Ins,Insulin,Ins,Insulin,Insulin,2013-07-19,2013-07-19T00:00:00Z,H,2014-01-14,2014-01-14T23:59:59Z,H,COMPLETED,2014-01-14,,2013-07-19,2014-01-14,180,,,,,2013-08-01,14,Week 2,2,,,Body Mass Index (kg/m2),BMI,3,Anthropometric measurement,1,37.273050907796375,Obesity class II,5,37.62113840433528,Obesity class II,5,-0.34808749653890203,-0.925244453790346,,,,,,,,,,,,,,,,,,,,,,,,,,
303,CDISCPILOT01,01-701-1028,1028,701,USA,,2013-07-19,2014-01-14,2013-07-19,2014-01-14,2014-01-14T11:10,,,,,,,,,,,,16,NA,2013-07-11,-8,71,YEARS,>64,M,WHITE,White,NOT HISPANIC OR LATINO,Y,Insulin,Ins,Insulin,Ins,Insulin,Insulin,2013-07-19,2013-07-19T00:00:00Z,H,2014-01-14,2014-01-14T23:59:59Z,H,COMPLETED,2014-01-14,,2013-07-19,2014-01-14,180,,,,,2013-08-14,27,Week 4,4,,,Body Mass Index (kg/m2),BMI,3,Anthropometric measurement,1,36.434476484316285,Obesity class II,5,37.62113840433528,Obesity class II,5,-1.1866619200189916,-3.154242456103472,,,,,,,,,,,,,,,,,,,,,,,,,,
304,CDISCPILOT01,01-701-1028,1028,701,USA,,2013-07-19,2014-01-14,2013-07-19,2014-01-14,2014-01-14T11:10,,,,,,,,,,,,17,NA,2013-07-11,-8,71,YEARS,>64,M,WHITE,White,NOT HISPANIC OR LATINO,Y,Insulin,Ins,Insulin,Ins,Insulin,Insulin,2013-07-19,2013-07-19T00:00:00Z,H,2014-01-14,2014-01-14T23:59:59Z,H,COMPLETED,2014-01-14,,2013-07-19,2014-01-14,180,,,,,2013-08-29,42,Week 6,6,,,Body Mass Index (kg/m2),BMI,3,Anthropometric measurement,1,36.21296625924607,Obesity class II,5,37.62113840433528,Obesity class II,5,-1.4081721450892033,-3.7430343812427864,,,,,,,,,,,,,,,,,,,,,,,,,,
305,CDISCPILOT01,01-701-1028,1028,701,USA,,2013-07-19,2014-01-14,2013-07-19,2014-01-14,2014-01-14T11:10,,,,,,,,,,,,18,NA,2013-07-11,-8,71,YEARS,>64,M,WHITE,White,NOT HISPANIC OR LATINO,Y,Insulin,Ins,Insulin,Ins,Insulin,Insulin,2013-07-19,2013-07-19T00:00:00Z,H,2014-01-14,2014-01-14T23:59:59Z,H,COMPLETED,2014-01-14,,2013-07-19,2014-01-14,180,,,,,2013-09-10,54,Week 8,8,,,Body Mass Index (kg/m2),BMI,3,Anthropometric measurement,1,35.69479055417112,Obesity class II,5,37.62113840433528,Obesity class II,5,-1.9263478501641558,-5.120386920407951,,,,,,,,,,,,,,,,,,,,,,,,,,
306,CDISCPILOT01,01-701-1028,1028,701,USA,,2013-07-19,2014-01-14,2013-07-19,2014-01-14,2014-01-14T11:10,,,,,,,,,,,,19,NA,2013-07-11,-8,71,YEARS,>64,M,WHITE,White,NOT HISPANIC OR LATINO,Y,Insulin,Ins,Insulin,Ins,Insulin,Insulin,2013-07-19,2013-07-19T00:00:00Z,H,2014-01-14,2014-01-14T23:59:59Z,H,COMPLETED,2014-01-14,,2013-07-19,2014-01-14,180,,,,,2013-10-09,83,Week 12,12,,,Body Mass Index (kg/m2),BMI,3,Anthropometric measurement,1,35.33483643843203,Obesity class II,5,37.62113840433528,Obesity class II,5,-2.286301965903249,-6.077173798759334,,,,,,,,,,,,,,,,,,,,,,,,,,
307,CDISCPILOT01,01-701-1028,1028,701,USA,,2013-07-19,2014-01-14,2013-07-19,2014-01-14,2014-01-14T11:10,,,,,,,,,,,,20,NA,2013-07-11,-8,71,YEARS,>64,M,WHITE,White,NOT HISPANIC OR LATINO,Y,Insulin,Ins,Insulin,Ins,Insulin,Insulin,2013-07-19,2013-07-19T00:00:00Z,H,2014-01-14,2014-01-14T23:59:59Z,H,COMPLETED,2014-01-14,,2013-07-19,2014-01-14,180,,,,,2013-11-06,111,Week 16,16,,,Body Mass Index (kg/m2),BMI,3,Anthropometric measurement,1,35.133103912028794,Obesity class II,5,37.62113840433528,Obesity class II,5,-2.4880344923064825,-6.613395016296939,,,,,,,,,,,,,,,,,,,,,,,,,,
308,CDISCPILOT01,01-701-1028,1028,701,USA,,2013-07-19,2014-01-14,2013-07-19,2014-01-14,2014-01-14T11:10,,,,,,,,,,,,21,NA,2013-07-11,-8,71,YEARS,>64,M,WHITE,White,NOT HISPANIC OR LATINO,Y,Insulin,Ins,Insulin,Ins,Insulin,Insulin,2013-07-19,2013-07-19T00:00:00Z,H,2014-01-14,2014-01-14T23:59:59Z,H,COMPLETED,2014-01-14,,2013-07-19,2014-01-14,180,,,,,2013-12-04,139,Week 20,20,,,Body Mass Index (kg/m2),BMI,3,Anthropometric measurement,1,34.86808274989123,Obesity class I,4,37.62113840433528,Obesity class II,5,-2.753055654444047,-7.31784249816002,,,,,,,,,,,,,,,,,,,,,,,,,,
309,CDISCPILOT01,01-701-1028,1028,701,USA,,2013-07-19,2014-01-14,2013-07-19,2014-01-14,2014-01-14T11:10,,,,,,,,,,,,22,NA,2013-07-11,-8,71,YEARS,>64,M,WHITE,White,NOT HISPANIC OR LATINO,Y,Insulin,Ins,Insulin,Ins,Insulin,Insulin,2013-07-19,2013-07-19T00:00:00Z,H,2014-01-14,2014-01-14T23:59:59Z,H,COMPLETED,2014-01-14,,2013-07-19,2014-01-14,180,,,,,2014-01-06,172,Week 24,24,,,Body Mass Index (kg/m2),BMI,3,Anthropometric measurement,1,34.436928918951,Obesity class I,4,37.62113840433528,Obesity class II,5,-3.1842094853842795,-8.463883923877612,,,,,,,,,,,,,,,,,,,,,,,,,,
310,CDISCPILOT01,01-701-1028,1028,701,USA,,2013-07-19,2014-01-14,2013-07-19,2014-01-14,2014-01-14T11:10,,,,,,,,,,,,23,NA,2013-07-11,-8,71,YEARS,>64,M,WHITE,White,NOT HISPANIC OR LATINO,Y,Insulin,Ins,Insulin,Ins,Insulin,Insulin,2013-07-19,2013-07-19T00:00:00Z,H,2014-01-14,2014-01-14T23:59:59Z,H,COMPLETED,2014-01-14,,2013-07-19,2014-01-14,180,,,,,2014-01-14,180,Week 26,26,,,Body Mass Index (kg/m2),BMI,3,Anthropometric measurement,1,34.06510818401171,Obesity class I,4,37.62113840433528,Obesity class II,5,-3.5560302203235636,-9.452213226790033,,,,,,,,,,,,,,,,,,,,,,,,,,
311,CDISCPILOT01,01-701-1028,1028,701,USA,VS,2013-07-19,2014-01-14,2013-07-19,2014-01-14,2014-01-14T11:10,,,,,,,,,,,,24,NA,2013-07-11,-8,71,YEARS,>64,M,WHITE,White,NOT HISPANIC OR LATINO,Y,Insulin,Ins,Insulin,Ins,Insulin,Insulin,2013-07-19,2013-07-19T00:00:00Z,H,2014-01-14,2014-01-14T23:59:59Z,H,COMPLETED,2014-01-14,,2013-07-19,2014-01-14,180,,,,,2013-07-11,-8,,,,,Hip Circumference (cm),HIPCIR,4,Anthropometric measurement,1,111,,,111,,,,,,,,,,327,HIPCIR,Hip Circumference,,111,cm,111,111,cm,,,,1,SCREENING 1,-7,2013-07-11,-8,,,,
312,CDISCPILOT01,01-701-1028,1028,701,USA,VS,2013-07-19,2014-01-14,2013-07-19,2014-01-14,2014-01-14T11:10,,,,,,,,,,,,25,NA,2013-07-11,-8,71,YEARS,>64,M,WHITE,White,NOT HISPANIC OR LATINO,Y,Insulin,Ins,Insulin,Ins,Insulin,Insulin,2013-07-19,2013-07-19T00:00:00Z,H,2014-01-14,2014-01-14T23:59:59Z,H,COMPLETED,2014-01-14,,2013-07-19,2014-01-14,180,,,,,2013-07-19,1,Baseline,0,,,Hip Circumference (cm),HIPCIR,4,Anthropometric measurement,1,111,,,111,,,,,,,,,Y,328,HIPCIR,Hip Circumference,,111,cm,111,111,cm,,,Y,3,BASELINE,1,2013-07-19,1,,,,
313,CDISCPILOT01,01-701-1028,1028,701,USA,VS,2013-07-19,2014-01-14,2013-07-19,2014-01-14,2014-01-14T11:10,,,,,,,,,,,,26,NA,2013-07-11,-8,71,YEARS,>64,M,WHITE,White,NOT HISPANIC OR LATINO,Y,Insulin,Ins,Insulin,Ins,Insulin,Insulin,2013-07-19,2013-07-19T00:00:00Z,H,2014-01-14,2014-01-14T23:59:59Z,H,COMPLETED,2014-01-14,,2013-07-19,2014-01-14,180,,,,,2013-08-01,14,Week 2,2,,,Hip Circumference (cm),HIPCIR,4,Anthropometric measurement,1,110,,,111,,,-1,-0.9009009009009009,,,,,,329,HIPCIR,Hip Circumference,,110,cm,110,110,cm,,,,4,WEEK 2,14,2013-08-01,14,,,,
314,CDISCPILOT01,01-701-1028,1028,701,USA,VS,2013-07-19,2014-01-14,2013-07-19,2014-01-14,2014-01-14T11:10,,,,,,,,,,,,27,NA,2013-07-11,-8,71,YEARS,>64,M,WHITE,White,NOT HISPANIC OR LATINO,Y,Insulin,Ins,Insulin,Ins,Insulin,Insulin,2013-07-19,2013-07-19T00:00:00Z,H,2014-01-14,2014-01-14T23:59:59Z,H,COMPLETED,2014-01-14,,2013-07-19,2014-01-14,180,,,,,2013-08-14,27,Week 4,4,,,Hip Circumference (cm),HIPCIR,4,Anthropometric measurement,1,112,,,111,,,1,0.9009009009009009,,,,,,330,HIPCIR,Hip Circumference,,112,cm,112,112,cm,,,,5,WEEK 4,28,2013-08-14,27,,,,
315,CDISCPILOT01,01-701-1028,1028,701,USA,VS,2013-07-19,2014-01-14,2013-07-19,2014-01-14,2014-01-14T11:10,,,,,,,,,,,,28,NA,2013-07-11,-8,71,YEARS,>64,M,WHITE,White,NOT HISPANIC OR LATINO,Y,Insulin,Ins,Insulin,Ins,Insulin,Insulin,2013-07-19,2013-07-19T00:00:00Z,H,2014-01-14,2014-01-14T23:59:59Z,H,COMPLETED,2014-01-14,,2013-07-19,2014-01-14,180,,,,,2013-08-29,42,Week 6,6,,,Hip Circumference (cm),HIPCIR,4,Anthropometric measurement,1,109,,,111,,,-2,-1.8018018018018018,,,,,,331,HIPCIR,Hip Circumference,,109,cm,109,109,cm,,,,7,WEEK 6,42,2013-08-29,42,,,,
316,CDISCPILOT01,01-701-1028,1028,701,USA,VS,2013-07-19,2014-01-14,2013-07-19,2014-01-14,2014-01-14T11:10,,,,,,,,,,,,29,NA,2013-07-11,-8,71,YEARS,>64,M,WHITE,White,NOT HISPANIC OR LATINO,Y,Insulin,Ins,Insulin,Ins,Insulin,Insulin,2013-07-19,2013-07-19T00:00:00Z,H,2014-01-14,2014-01-14T23:59:59Z,H,COMPLETED,2014-01-14,,2013-07-19,2014-01-14,180,,,,,2013-09-10,54,Week 8,8,,,Hip Circumference (cm),HIPCIR,4,Anthropometric measurement,1,108,,,111,,,-3,-2.7027027027027026,,,,,,332,HIPCIR,Hip Circumference,,108,cm,108,108,cm,,,,8,WEEK 8,56,2013-09-10,54,,,,
317,CDISCPILOT01,01-701-1028,1028,701,USA,VS,2013-07-19,2014-01-14,2013-07-19,2014-01-14,2014-01-14T11:10,,,,,,,,,,,,30,NA,2013-07-11,-8,71,YEARS,>64,M,WHITE,White,NOT HISPANIC OR LATINO,Y,Insulin,Ins,Insulin,Ins,Insulin,Insulin,2013-07-19,2013-07-19T00:00:00Z,H,2014-01-14,2014-01-14T23:59:59Z,H,COMPLETED,2014-01-14,,2013-07-19,2014-01-14,180,,,,,2013-10-09,83,Week 12,12,,,Hip Circumference (cm),HIPCIR,4,Anthropometric measurement,1,107.5,,,111,,,-3.5,-3.153153153153153,,,,,,333,HIPCIR,Hip Circumference,,107.5,cm,107.5,107.5,cm,,,,9,WEEK 12,84,2013-10-09,83,,,,
318,CDISCPILOT01,01-701-1028,1028,701,USA,VS,2013-07-19,2014-01-14,2013-07-19,2014-01-14,2014-01-14T11:10,,,,,,,,,,,,31,NA,2013-07-11,-8,71,YEARS,>64,M,WHITE,White,NOT HISPANIC OR LATINO,Y,Insulin,Ins,Insulin,Ins,Insulin,Insulin,2013-07-19,2013-07-19T00:00:00Z,H,2014-01-14,2014-01-14T23:59:59Z,H,COMPLETED,2014-01-14,,2013-07-19,2014-01-14,180,,,,,2013-11-06,111,Week 16,16,,,Hip Circumference (cm),HIPCIR,4,Anthropometric measurement,1,106.2,,,111,,,-4.799999999999997,-4.324324324324322,,,,,,334,HIPCIR,Hip Circumference,,106.2,cm,106.2,106.2,cm,,,,10,WEEK 16,112,2013-11-06,111,,,,
319,CDISCPILOT01,01-701-1028,1028,701,USA,VS,2013-07-19,2014-01-14,2013-07-19,2014-01-14,2014-01-14T11:10,,,,,,,,,,,,32,NA,2013-07-11,-8,71,YEARS,>64,M,WHITE,White,NOT HISPANIC OR LATINO,Y,Insulin,Ins,Insulin,Ins,Insulin,Insulin,2013-07-19,2013-07-19T00:00:00Z,H,2014-01-14,2014-01-14T23:59:59Z,H,COMPLETED,2014-01-14,,2013-07-19,2014-01-14,180,,,,,2013-12-04,139,Week 20,20,,,Hip Circumference (cm),HIPCIR,4,Anthropometric measurement,1,104,,,111,,,-7,-6.306306306306306,,,,,,335,HIPCIR,Hip Circumference,,104,cm,104,104,cm,,,,11,WEEK 20,140,2013-12-04,139,,,,
320,CDISCPILOT01,01-701-1028,1028,701,USA,VS,2013-07-19,2014-01-14,2013-07-19,2014-01-14,2014-01-14T11:10,,,,,,,,,,,,33,NA,2013-07-11,-8,71,YEARS,>64,M,WHITE,White,NOT HISPANIC OR LATINO,Y,Insulin,Ins,Insulin,Ins,Insulin,Insulin,2013-07-19,2013-07-19T00:00:00Z,H,2014-01-14,2014-01-14T23:59:59Z,H,COMPLETED,2014-01-14,,2013-07-19,2014-01-14,180,,,,,2014-01-06,172,Week 24,24,,,Hip Circumference (cm),HIPCIR,4,Anthropometric measurement,1,103,,,111,,,-8,-7.207207207207207,,,,,,336,HIPCIR,Hip Circumference,,103,cm,103,103,cm,,,,12,WEEK 24,168,2014-01-06,172,,,,
321,CDISCPILOT01,01-701-1028,1028,701,USA,VS,2013-07-19,2014-01-14,2013-07-19,2014-01-14,2014-01-14T11:10,,,,,,,,,,,,34,NA,2013-07-11,-8,71,YEARS,>64,M,WHITE,White,NOT HISPANIC OR LATINO,Y,Insulin,Ins,Insulin,Ins,Insulin,Insulin,2013-07-19,2013-07-19T00:00:00Z,H,2014-01-14,2014-01-14T23:59:59Z,H,COMPLETED,2014-01-14,,2013-07-19,2014-01-14,180,,,,,2014-01-14,180,Week 26,26,,,Hip Circumference (cm),HIPCIR,4,Anthropometric measurement,1,102,,,111,,,-9,-8.108108108108109,,,,,,337,HIPCIR,Hip Circumference,,102,cm,102,102,cm,,,,13,WEEK 26,182,2014-01-14,180,,,,
322,CDISCPILOT01,01-701-1028,1028,701,USA,VS,2013-07-19,2014-01-14,2013-07-19,2014-01-14,2014-01-14T11:10,,,,,,,,,,,,35,NA,2013-07-11,-8,71,YEARS,>64,M,WHITE,White,NOT HISPANIC OR LATINO,Y,Insulin,Ins,Insulin,Ins,Insulin,Insulin,2013-07-19,2013-07-19T00:00:00Z,H,2014-01-14,2014-01-14T23:59:59Z,H,COMPLETED,2014-01-14,,2013-07-19,2014-01-14,180,,,,,2013-07-11,-8,,,,,Waist Circumference (cm),WSTCIR,5,Anthropometric measurement,1,105,,,105,,,,,,,,,,447,WSTCIR,Waist Circumference,,105,cm,105,105,cm,,,,1,SCREENING 1,-7,2013-07-11,-8,,,,
323,CDISCPILOT01,01-701-1028,1028,701,USA,VS,2013-07-19,2014-01-14,2013-07-19,2014-01-14,2014-01-14T11:10,,,,,,,,,,,,36,NA,2013-07-11,-8,71,YEARS,>64,M,WHITE,White,NOT HISPANIC OR LATINO,Y,Insulin,Ins,Insulin,Ins,Insulin,Insulin,2013-07-19,2013-07-19T00:00:00Z,H,2014-01-14,2014-01-14T23:59:59Z,H,COMPLETED,2014-01-14,,2013-07-19,2014-01-14,180,,,,,2013-07-19,1,Baseline,0,,,Waist Circumference (cm),WSTCIR,5,Anthropometric measurement,1,105,,,105,,,,,,,,,Y,448,WSTCIR,Waist Circumference,,105,cm,105,105,cm,,,Y,3,BASELINE,1,2013-07-19,1,,,,
324,CDISCPILOT01,01-701-1028,1028,701,USA,VS,2013-07-19,2014-01-14,2013-07-19,2014-01-14,2014-01-14T11:10,,,,,,,,,,,,37,NA,2013-07-11,-8,71,YEARS,>64,M,WHITE,White,NOT HISPANIC OR LATINO,Y,Insulin,Ins,Insulin,Ins,Insulin,Insulin,2013-07-19,2013-07-19T00:00:00Z,H,2014-01-14,2014-01-14T23:59:59Z,H,COMPLETED,2014-01-14,,2013-07-19,2014-01-14,180,,,,,2013-08-01,14,Week 2,2,,,Waist Circumference (cm),WSTCIR,5,Anthropometric measurement,1,104,,,105,,,-1,-0.9523809523809524,,,,,,449,WSTCIR,Waist Circumference,,104,cm,104,104,cm,,,,4,WEEK 2,14,2013-08-01,14,,,,
325,CDISCPILOT01,01-701-1028,1028,701,USA,VS,2013-07-19,2014-01-14,2013-07-19,2014-01-14,2014-01-14T11:10,,,,,,,,,,,,38,NA,2013-07-11,-8,71,YEARS,>64,M,WHITE,White,NOT HISPANIC OR LATINO,Y,Insulin,Ins,Insulin,Ins,Insulin,Insulin,2013-07-19,2013-07-19T00:00:00Z,H,2014-01-14,2014-01-14T23:59:59Z,H,COMPLETED,2014-01-14,,2013-07-19,2014-01-14,180,,,,,2013-08-14,27,Week 4,4,,,Waist Circumference (cm),WSTCIR,5,Anthropometric measurement,1,102,,,105,,,-3,-2.857142857142857,,,,,,450,WSTCIR,Waist Circumference,,102,cm,102,102,cm,,,,5,WEEK 4,28,2013-08-14,27,,,,
326,CDISCPILOT01,01-701-1028,1028,701,USA,VS,2013-07-19,2014-01-14,2013-07-19,2014-01-14,2014-01-14T11:10,,,,,,,,,,,,39,NA,2013-07-11,-8,71,YEARS,>64,M,WHITE,White,NOT HISPANIC OR LATINO,Y,Insulin,Ins,Insulin,Ins,Insulin,Insulin,2013-07-19,2013-07-19T00:00:00Z,H,2014-01-14,2014-01-14T23:59:59Z,H,COMPLETED,2014-01-14,,2013-07-19,2014-01-14,180,,,,,2013-08-29,42,Week 6,6,,,Waist Circumference (cm),WSTCIR,5,Anthropometric measurement,1,101,,,105,,,-4,-3.8095238095238098,,,,,,451,WSTCIR,Waist Circumference,,101,cm,101,101,cm,,,,7,WEEK 6,42,2013-08-29,42,,,,
327,CDISCPILOT01,01-701-1028,1028,701,USA,VS,2013-07-19,2014-01-14,2013-07-19,2014-01-14,2014-01-14T11:10,,,,,,,,,,,,40,NA,2013-07-11,-8,71,YEARS,>64,M,WHITE,White,NOT HISPANIC OR LATINO,Y,Insulin,Ins,Insulin,Ins,Insulin,Insulin,2013-07-19,2013-07-19T00:00:00Z,H,2014-01-14,2014-01-14T23:59:59Z,H,COMPLETED,2014-01-14,,2013-07-19,2014-01-14,180,,,,,2013-09-10,54,Week 8,8,,,Waist Circumference (cm),WSTCIR,5,Anthropometric measurement,1,100,,,105,,,-5,-4.761904761904762,,,,,,452,WSTCIR,Waist Circumference,,100,cm,100,100,cm,,,,8,WEEK 8,56,2013-09-10,54,,,,
328,CDISCPILOT01,01-701-1028,1028,701,USA,VS,2013-07-19,2014-01-14,2013-07-19,2014-01-14,2014-01-14T11:10,,,,,,,,,,,,41,NA,2013-07-11,-8,71,YEARS,>64,M,WHITE,White,NOT HISPANIC OR LATINO,Y,Insulin,Ins,Insulin,Ins,Insulin,Insulin,2013-07-19,2013-07-19T00:00:00Z,H,2014-01-14,2014-01-14T23:59:59Z,H,COMPLETED,2014-01-14,,2013-07-19,2014-01-14,180,,,,,2013-10-09,83,Week 12,12,,,Waist Circumference (cm),WSTCIR,5,Anthropometric measurement,1,99.4,,,105,,,-5.599999999999994,-5.333333333333328,,,,,,453,WSTCIR,Waist Circumference,,99.4,cm,99.4,99.4,cm,,,,9,WEEK 12,84,2013-10-09,83,,,,
329,CDISCPILOT01,01-701-1028,1028,701,USA,VS,2013-07-19,2014-01-14,2013-07-19,2014-01-14,2014-01-14T11:10,,,,,,,,,,,,42,NA,2013-07-11,-8,71,YEARS,>64,M,WHITE,White,NOT HISPANIC OR LATINO,Y,Insulin,Ins,Insulin,Ins,Insulin,Insulin,2013-07-19,2013-07-19T00:00:00Z,H,2014-01-14,2014-01-14T23:59:59Z,H,COMPLETED,2014-01-14,,2013-07-19,2014-01-14,180,,,,,2013-11-06,111,Week 16,16,,,Waist Circumference (cm),WSTCIR,5,Anthropometric measurement,1,99,,,105,,,-6,-5.714285714285714,,,,,,454,WSTCIR,Waist Circumference,,99,cm,99,99,cm,,,,10,WEEK 16,112,2013-11-06,111,,,,
330,CDISCPILOT01,01-701-1028,1028,701,USA,VS,2013-07-19,2014-01-14,2013-07-19,2014-01-14,2014-01-14T11:10,,,,,,,,,,,,43,NA,2013-07-11,-8,71,YEARS,>64,M,WHITE,White,NOT HISPANIC OR LATINO,Y,Insulin,Ins,Insulin,Ins,Insulin,Insulin,2013-07-19,2013-07-19T00:00:00Z,H,2014-01-14,2014-01-14T23:59:59Z,H,COMPLETED,2014-01-14,,2013-07-19,2014-01-14,180,,,,,2013-12-04,139,Week 20,20,,,Waist Circumference (cm),WSTCIR,5,Anthropometric measurement,1,97,,,105,,,-8,-7.6190476190476195,,,,,,455,WSTCIR,Waist Circumference,,97,cm,97,97,cm,,,,11,WEEK 20,140,2013-12-04,139,,,,
