rownames,STUDYID,USUBJID,SUBJID,SITEID,COUNTRY,DOMAIN,RFSTDTC,RFENDTC,RFXSTDTC,RFXENDTC,RFPENDTC,DTHDTC,DTHFL,ASEQ,BRTHDTC,BRTHDT,DMDTC,DMDY,AGE,AGEU,SEX,RACE,ETHNIC,ARM,ARMCD,ACTARM,ACTARMCD,TRT01P,TRT01A,TRTSDT,TRTSDTM,TRTSTMF,TRTEDT,TRTEDTM,TRTETMF,RFICDTC,TRTDURD,ADT,ADY,AVISIT,AVISITN,ATPT,ATPTN,PARAM,PARAMCD,PARAMN,AVAL,BASE,CHG,PCHG,ABLFL,ANL01FL,ONTRTFL,EPOCH,VSEVAL,VSSEQ,VSTESTCD,VSTEST,VSPOS,VSORRES,VSORRESU,VSSTRESC,VSSTRESN,VSSTRESU,VSSTAT,VSLOC,VSBLFL,VISITNUM,VISIT,VISITDY,VSDTC,VSDY,VSTPT,VSTPTNUM,VSELTM,VSTPTREF,AAGECUR,AAGECURU,HGTTMP,HGTTMPU
1,CDISCPILOT01,01-701-1015,1015,701,USA,VS,2014-01-02,2014-07-02,2014-01-02,2014-07-02,2014-07-02T11:45,,,1,2013-01-02,2013-01-02,2013-12-26,-7,1,YEARS,F,WHITE,HISPANIC OR LATINO,Placebo,Pbo,Placebo,Pbo,Placebo,Placebo,2014-01-02,2014-01-02T00:00:00Z,H,2014-07-02,2014-07-02T23:59:59Z,H,,182,2013-12-26,-7,Screening 1,-1,,,Body Mass Index(kg/m^2),BMI,3,16.577932871527807,16.615951591664576,,,,,,Epoch,,1,BMI,BMI,,16.5779328715278,kg/m2,16.5779328715278,16.577932871527807,kg/m2,,,,1,SCREENING 1,,2013-12-26,,,,,,359,DAYS,74.13,cm
2,CDISCPILOT01,01-701-1015,1015,701,USA,VS,2014-01-02,2014-07-02,2014-01-02,2014-07-02,2014-07-02T11:45,,,2,2013-01-02,2013-01-02,2013-12-26,-7,1,YEARS,F,WHITE,HISPANIC OR LATINO,Placebo,Pbo,Placebo,Pbo,Placebo,Placebo,2014-01-02,2014-01-02T00:00:00Z,H,2014-07-02,2014-07-02T23:59:59Z,H,,182,2014-01-02,1,Baseline,0,,,Body Mass Index(kg/m^2),BMI,3,16.615951591664576,16.615951591664576,,,Y,Y,,Epoch,,5,BMI,BMI,,16.6159515916646,kg/m2,16.6159515916646,16.615951591664576,kg/m2,,,,3,BASELINE,,2014-01-02,,,,,,366,DAYS,74.41,cm
3,CDISCPILOT01,01-701-1015,1015,701,USA,VS,2014-01-02,2014-07-02,2014-01-02,2014-07-02,2014-07-02T11:45,,,3,2013-01-02,2013-01-02,2013-12-26,-7,1,YEARS,F,WHITE,HISPANIC OR LATINO,Placebo,Pbo,Placebo,Pbo,Placebo,Placebo,2014-01-02,2014-01-02T00:00:00Z,H,2014-07-02,2014-07-02T23:59:59Z,H,,182,2014-01-16,15,Week 2,,,,Body Mass Index(kg/m^2),BMI,3,16.697768649584624,16.615951591664576,,,,,Y,Epoch,,9,BMI,BMI,,16.6977686495846,kg/m2,16.6977686495846,16.697768649584624,kg/m2,,,,4,WEEK 2,,2014-01-16,,,,,,380,DAYS,74.71,cm
4,CDISCPILOT01,01-701-1015,1015,701,USA,VS,2014-01-02,2014-07-02,2014-01-02,2014-07-02,2014-07-02T11:45,,,4,2013-01-02,2013-01-02,2013-12-26,-7,1,YEARS,F,WHITE,HISPANIC OR LATINO,Placebo,Pbo,Placebo,Pbo,Placebo,Placebo,2014-01-02,2014-01-02T00:00:00Z,H,2014-07-02,2014-07-02T23:59:59Z,H,,182,2014-01-30,29,Week 4,,,,Body Mass Index(kg/m^2),BMI,3,16.816195667471117,16.615951591664576,,,,,Y,Epoch,,13,BMI,BMI,,16.8161956674711,kg/m2,16.8161956674711,16.816195667471117,kg/m2,,,,5,WEEK 4,,2014-01-30,,,,,,394,DAYS,75.32,cm
5,CDISCPILOT01,01-701-1015,1015,701,USA,VS,2014-01-02,2014-07-02,2014-01-02,2014-07-02,2014-07-02T11:45,,,5,2013-01-02,2013-01-02,2013-12-26,-7,1,YEARS,F,WHITE,HISPANIC OR LATINO,Placebo,Pbo,Placebo,Pbo,Placebo,Placebo,2014-01-02,2014-01-02T00:00:00Z,H,2014-07-02,2014-07-02T23:59:59Z,H,,182,2014-02-12,42,Week 6,,,,Body Mass Index(kg/m^2),BMI,3,16.824607233446745,16.615951591664576,,,,,Y,Epoch,,17,BMI,BMI,,16.8246072334467,kg/m2,16.8246072334467,16.824607233446745,kg/m2,,,,7,WEEK 6,,2014-02-12,,,,,,407,DAYS,75.93,cm
6,CDISCPILOT01,01-701-1015,1015,701,USA,VS,2014-01-02,2014-07-02,2014-01-02,2014-07-02,2014-07-02T11:45,,,6,2013-01-02,2013-01-02,2013-12-26,-7,1,YEARS,F,WHITE,HISPANIC OR LATINO,Placebo,Pbo,Placebo,Pbo,Placebo,Placebo,2014-01-02,2014-01-02T00:00:00Z,H,2014-07-02,2014-07-02T23:59:59Z,H,,182,2014-03-05,63,Week 8,,,,Body Mass Index(kg/m^2),BMI,3,16.915963473535886,16.615951591664576,,,,,Y,Epoch,,21,BMI,BMI,,16.9159634735359,kg/m2,16.9159634735359,16.915963473535886,kg/m2,,,,8,WEEK 8,,2014-03-05,,,,,,428,DAYS,76.54,cm
7,CDISCPILOT01,01-701-1015,1015,701,USA,VS,2014-01-02,2014-07-02,2014-01-02,2014-07-02,2014-07-02T11:45,,,7,2013-01-02,2013-01-02,2013-12-26,-7,1,YEARS,F,WHITE,HISPANIC OR LATINO,Placebo,Pbo,Placebo,Pbo,Placebo,Placebo,2014-01-02,2014-01-02T00:00:00Z,H,2014-07-02,2014-07-02T23:59:59Z,H,,182,2014-03-26,84,Week 12,,,,Body Mass Index(kg/m^2),BMI,3,17.05185538755192,16.615951591664576,,,,,Y,Epoch,,25,BMI,BMI,,17.0518553875519,kg/m2,17.0518553875519,17.05185538755192,kg/m2,,,,9,WEEK 12,,2014-03-26,,,,,,449,DAYS,77.72,cm
8,CDISCPILOT01,01-701-1015,1015,701,USA,VS,2014-01-02,2014-07-02,2014-01-02,2014-07-02,2014-07-02T11:45,,,8,2013-01-02,2013-01-02,2013-12-26,-7,1,YEARS,F,WHITE,HISPANIC OR LATINO,Placebo,Pbo,Placebo,Pbo,Placebo,Placebo,2014-01-02,2014-01-02T00:00:00Z,H,2014-07-02,2014-07-02T23:59:59Z,H,,182,2014-05-07,126,Week 16,,,,Body Mass Index(kg/m^2),BMI,3,17.162063255964828,16.615951591664576,,,,,Y,Epoch,,29,BMI,BMI,,17.1620632559648,kg/m2,17.1620632559648,17.162063255964828,kg/m2,,,,10,WEEK 16,,2014-05-07,,,,,,491,DAYS,78.96,cm
9,CDISCPILOT01,01-701-1015,1015,701,USA,VS,2014-01-02,2014-07-02,2014-01-02,2014-07-02,2014-07-02T11:45,,,9,2013-01-02,2013-01-02,2013-12-26,-7,1,YEARS,F,WHITE,HISPANIC OR LATINO,Placebo,Pbo,Placebo,Pbo,Placebo,Placebo,2014-01-02,2014-01-02T00:00:00Z,H,2014-07-02,2014-07-02T23:59:59Z,H,,182,2014-05-21,140,Week 20,,,,Body Mass Index(kg/m^2),BMI,3,17.248751423488176,16.615951591664576,,,,,Y,Epoch,,33,BMI,BMI,,17.2487514234882,kg/m2,17.2487514234882,17.248751423488176,kg/m2,,,,11,WEEK 20,,2014-05-21,,,,,,505,DAYS,80.22,cm
10,CDISCPILOT01,01-701-1015,1015,701,USA,VS,2014-01-02,2014-07-02,2014-01-02,2014-07-02,2014-07-02T11:45,,,10,2013-01-02,2013-01-02,2013-12-26,-7,1,YEARS,F,WHITE,HISPANIC OR LATINO,Placebo,Pbo,Placebo,Pbo,Placebo,Placebo,2014-01-02,2014-01-02T00:00:00Z,H,2014-07-02,2014-07-02T23:59:59Z,H,,182,2014-06-18,168,Week 24,,,,Body Mass Index(kg/m^2),BMI,3,17.43367575978138,16.615951591664576,,,,,Y,Epoch,,37,BMI,BMI,,17.4336757597814,kg/m2,17.4336757597814,17.43367575978138,kg/m2,,,,12,WEEK 24,,2014-06-18,,,,,,533,DAYS,81.43,cm
11,CDISCPILOT01,01-701-1015,1015,701,USA,VS,2014-01-02,2014-07-02,2014-01-02,2014-07-02,2014-07-02T11:45,,,11,2013-01-02,2013-01-02,2013-12-26,-7,1,YEARS,F,WHITE,HISPANIC OR LATINO,Placebo,Pbo,Placebo,Pbo,Placebo,Placebo,2014-01-02,2014-01-02T00:00:00Z,H,2014-07-02,2014-07-02T23:59:59Z,H,,182,2014-07-02,182,Week 26,,,,Body Mass Index(kg/m^2),BMI,3,17.402493169447126,16.615951591664576,,,,,Y,Epoch,,41,BMI,BMI,,17.4024931694471,kg/m2,17.4024931694471,17.402493169447126,kg/m2,,,,13,WEEK 26,,2014-07-02,,,,,,547,DAYS,82.03,cm
12,CDISCPILOT01,01-701-1015,1015,701,USA,VS,2014-01-02,2014-07-02,2014-01-02,2014-07-02,2014-07-02T11:45,,,12,2013-01-02,2013-01-02,2013-12-26,-7,1,YEARS,F,WHITE,HISPANIC OR LATINO,Placebo,Pbo,Placebo,Pbo,Placebo,Placebo,2014-01-02,2014-01-02T00:00:00Z,H,2014-07-02,2014-07-02T23:59:59Z,H,,182,2013-12-26,-7,Screening 1,-1,,,BMI-for-age percentile,BMIPCTL,10,55.32483330442998,57.1583818023924,,,,,,Epoch,,1,BMI,BMI,,16.5779328715278,kg/m2,16.5779328715278,16.577932871527807,kg/m2,,,,1,SCREENING 1,,2013-12-26,,,,,,359,DAYS,74.13,cm
13,CDISCPILOT01,01-701-1015,1015,701,USA,VS,2014-01-02,2014-07-02,2014-01-02,2014-07-02,2014-07-02T11:45,,,13,2013-01-02,2013-01-02,2013-12-26,-7,1,YEARS,F,WHITE,HISPANIC OR LATINO,Placebo,Pbo,Placebo,Pbo,Placebo,Placebo,2014-01-02,2014-01-02T00:00:00Z,H,2014-07-02,2014-07-02T23:59:59Z,H,,182,2014-01-02,1,Baseline,0,,,BMI-for-age percentile,BMIPCTL,10,57.1583818023924,57.1583818023924,,,Y,Y,,Epoch,,5,BMI,BMI,,16.6159515916646,kg/m2,16.6159515916646,16.615951591664576,kg/m2,,,,3,BASELINE,,2014-01-02,,,,,,366,DAYS,74.41,cm
14,CDISCPILOT01,01-701-1015,1015,701,USA,VS,2014-01-02,2014-07-02,2014-01-02,2014-07-02,2014-07-02T11:45,,,14,2013-01-02,2013-01-02,2013-12-26,-7,1,YEARS,F,WHITE,HISPANIC OR LATINO,Placebo,Pbo,Placebo,Pbo,Placebo,Placebo,2014-01-02,2014-01-02T00:00:00Z,H,2014-07-02,2014-07-02T23:59:59Z,H,,182,2014-01-16,15,Week 2,,,,BMI-for-age percentile,BMIPCTL,10,60.898621616536154,57.1583818023924,,,,,Y,Epoch,,9,BMI,BMI,,16.6977686495846,kg/m2,16.6977686495846,16.697768649584624,kg/m2,,,,4,WEEK 2,,2014-01-16,,,,,,380,DAYS,74.71,cm
15,CDISCPILOT01,01-701-1015,1015,701,USA,VS,2014-01-02,2014-07-02,2014-01-02,2014-07-02,2014-07-02T11:45,,,15,2013-01-02,2013-01-02,2013-12-26,-7,1,YEARS,F,WHITE,HISPANIC OR LATINO,Placebo,Pbo,Placebo,Pbo,Placebo,Placebo,2014-01-02,2014-01-02T00:00:00Z,H,2014-07-02,2014-07-02T23:59:59Z,H,,182,2014-01-30,29,Week 4,,,,BMI-for-age percentile,BMIPCTL,10,65.40755443037965,57.1583818023924,,,,,Y,Epoch,,13,BMI,BMI,,16.8161956674711,kg/m2,16.8161956674711,16.816195667471117,kg/m2,,,,5,WEEK 4,,2014-01-30,,,,,,394,DAYS,75.32,cm
16,CDISCPILOT01,01-701-1015,1015,701,USA,VS,2014-01-02,2014-07-02,2014-01-02,2014-07-02,2014-07-02T11:45,,,16,2013-01-02,2013-01-02,2013-12-26,-7,1,YEARS,F,WHITE,HISPANIC OR LATINO,Placebo,Pbo,Placebo,Pbo,Placebo,Placebo,2014-01-02,2014-01-02T00:00:00Z,H,2014-07-02,2014-07-02T23:59:59Z,H,,182,2014-02-12,42,Week 6,,,,BMI-for-age percentile,BMIPCTL,10,66.94056284966699,57.1583818023924,,,,,Y,Epoch,,17,BMI,BMI,,16.8246072334467,kg/m2,16.8246072334467,16.824607233446745,kg/m2,,,,7,WEEK 6,,2014-02-12,,,,,,407,DAYS,75.93,cm
17,CDISCPILOT01,01-701-1015,1015,701,USA,VS,2014-01-02,2014-07-02,2014-01-02,2014-07-02,2014-07-02T11:45,,,17,2013-01-02,2013-01-02,2013-12-26,-7,1,YEARS,F,WHITE,HISPANIC OR LATINO,Placebo,Pbo,Placebo,Pbo,Placebo,Placebo,2014-01-02,2014-01-02T00:00:00Z,H,2014-07-02,2014-07-02T23:59:59Z,H,,182,2014-03-05,63,Week 8,,,,BMI-for-age percentile,BMIPCTL,10,71.0849879722154,57.1583818023924,,,,,Y,Epoch,,21,BMI,BMI,,16.9159634735359,kg/m2,16.9159634735359,16.915963473535886,kg/m2,,,,8,WEEK 8,,2014-03-05,,,,,,428,DAYS,76.54,cm
18,CDISCPILOT01,01-701-1015,1015,701,USA,VS,2014-01-02,2014-07-02,2014-01-02,2014-07-02,2014-07-02T11:45,,,18,2013-01-02,2013-01-02,2013-12-26,-7,1,YEARS,F,WHITE,HISPANIC OR LATINO,Placebo,Pbo,Placebo,Pbo,Placebo,Placebo,2014-01-02,2014-01-02T00:00:00Z,H,2014-07-02,2014-07-02T23:59:59Z,H,,182,2014-03-26,84,Week 12,,,,BMI-for-age percentile,BMIPCTL,10,75.78791145494273,57.1583818023924,,,,,Y,Epoch,,25,BMI,BMI,,17.0518553875519,kg/m2,17.0518553875519,17.05185538755192,kg/m2,,,,9,WEEK 12,,2014-03-26,,,,,,449,DAYS,77.72,cm
19,CDISCPILOT01,01-701-1015,1015,701,USA,VS,2014-01-02,2014-07-02,2014-01-02,2014-07-02,2014-07-02T11:45,,,19,2013-01-02,2013-01-02,2013-12-26,-7,1,YEARS,F,WHITE,HISPANIC OR LATINO,Placebo,Pbo,Placebo,Pbo,Placebo,Placebo,2014-01-02,2014-01-02T00:00:00Z,H,2014-07-02,2014-07-02T23:59:59Z,H,,182,2014-05-07,126,Week 16,,,,BMI-for-age percentile,BMIPCTL,10,80.81653484698099,57.1583818023924,,,,,Y,Epoch,,29,BMI,BMI,,17.1620632559648,kg/m2,17.1620632559648,17.162063255964828,kg/m2,,,,10,WEEK 16,,2014-05-07,,,,,,491,DAYS,78.96,cm
20,CDISCPILOT01,01-701-1015,1015,701,USA,VS,2014-01-02,2014-07-02,2014-01-02,2014-07-02,2014-07-02T11:45,,,20,2013-01-02,2013-01-02,2013-12-26,-7,1,YEARS,F,WHITE,HISPANIC OR LATINO,Placebo,Pbo,Placebo,Pbo,Placebo,Placebo,2014-01-02,2014-01-02T00:00:00Z,H,2014-07-02,2014-07-02T23:59:59Z,H,,182,2014-05-21,140,Week 20,,,,BMI-for-age percentile,BMIPCTL,10,83.09053836860812,57.1583818023924,,,,,Y,Epoch,,33,BMI,BMI,,17.2487514234882,kg/m2,17.2487514234882,17.248751423488176,kg/m2,,,,11,WEEK 20,,2014-05-21,,,,,,505,DAYS,80.22,cm
21,CDISCPILOT01,01-701-1015,1015,701,USA,VS,2014-01-02,2014-07-02,2014-01-02,2014-07-02,2014-07-02T11:45,,,21,2013-01-02,2013-01-02,2013-12-26,-7,1,YEARS,F,WHITE,HISPANIC OR LATINO,Placebo,Pbo,Placebo,Pbo,Placebo,Placebo,2014-01-02,2014-01-02T00:00:00Z,H,2014-07-02,2014-07-02T23:59:59Z,H,,182,2014-06-18,168,Week 24,,,,BMI-for-age percentile,BMIPCTL,10,87.1361994452299,57.1583818023924,,,,,Y,Epoch,,37,BMI,BMI,,17.4336757597814,kg/m2,17.4336757597814,17.43367575978138,kg/m2,,,,12,WEEK 24,,2014-06-18,,,,,,533,DAYS,81.43,cm
22,CDISCPILOT01,01-701-1015,1015,701,USA,VS,2014-01-02,2014-07-02,2014-01-02,2014-07-02,2014-07-02T11:45,,,22,2013-01-02,2013-01-02,2013-12-26,-7,1,YEARS,F,WHITE,HISPANIC OR LATINO,Placebo,Pbo,Placebo,Pbo,Placebo,Placebo,2014-01-02,2014-01-02T00:00:00Z,H,2014-07-02,2014-07-02T23:59:59Z,H,,182,2014-07-02,182,Week 26,,,,BMI-for-age percentile,BMIPCTL,10,87.2835265976947,57.1583818023924,,,,,Y,Epoch,,41,BMI,BMI,,17.4024931694471,kg/m2,17.4024931694471,17.402493169447126,kg/m2,,,,13,WEEK 26,,2014-07-02,,,,,,547,DAYS,82.03,cm
23,CDISCPILOT01,01-701-1015,1015,701,USA,VS,2014-01-02,2014-07-02,2014-01-02,2014-07-02,2014-07-02T11:45,,,23,2013-01-02,2013-01-02,2013-12-26,-7,1,YEARS,F,WHITE,HISPANIC OR LATINO,Placebo,Pbo,Placebo,Pbo,Placebo,Placebo,2014-01-02,2014-01-02T00:00:00Z,H,2014-07-02,2014-07-02T23:59:59Z,H,,182,2013-12-26,-7,Screening 1,-1,,,BMI-for-age z-score,BMISDS,9,0.13387257893533985,0.1804078857664252,,,,,,Epoch,,1,BMI,BMI,,16.5779328715278,kg/m2,16.5779328715278,16.577932871527807,kg/m2,,,,1,SCREENING 1,,2013-12-26,,,,,,359,DAYS,74.13,cm
24,CDISCPILOT01,01-701-1015,1015,701,USA,VS,2014-01-02,2014-07-02,2014-01-02,2014-07-02,2014-07-02T11:45,,,24,2013-01-02,2013-01-02,2013-12-26,-7,1,YEARS,F,WHITE,HISPANIC OR LATINO,Placebo,Pbo,Placebo,Pbo,Placebo,Placebo,2014-01-02,2014-01-02T00:00:00Z,H,2014-07-02,2014-07-02T23:59:59Z,H,,182,2014-01-02,1,Baseline,0,,,BMI-for-age z-score,BMISDS,9,0.1804078857664252,0.1804078857664252,,,Y,Y,,Epoch,,5,BMI,BMI,,16.6159515916646,kg/m2,16.6159515916646,16.615951591664576,kg/m2,,,,3,BASELINE,,2014-01-02,,,,,,366,DAYS,74.41,cm
25,CDISCPILOT01,01-701-1015,1015,701,USA,VS,2014-01-02,2014-07-02,2014-01-02,2014-07-02,2014-07-02T11:45,,,25,2013-01-02,2013-01-02,2013-12-26,-7,1,YEARS,F,WHITE,HISPANIC OR LATINO,Placebo,Pbo,Placebo,Pbo,Placebo,Placebo,2014-01-02,2014-01-02T00:00:00Z,H,2014-07-02,2014-07-02T23:59:59Z,H,,182,2014-01-16,15,Week 2,,,,BMI-for-age z-score,BMISDS,9,0.27667773752682806,0.1804078857664252,,,,,Y,Epoch,,9,BMI,BMI,,16.6977686495846,kg/m2,16.6977686495846,16.697768649584624,kg/m2,,,,4,WEEK 2,,2014-01-16,,,,,,380,DAYS,74.71,cm
26,CDISCPILOT01,01-701-1015,1015,701,USA,VS,2014-01-02,2014-07-02,2014-01-02,2014-07-02,2014-07-02T11:45,,,26,2013-01-02,2013-01-02,2013-12-26,-7,1,YEARS,F,WHITE,HISPANIC OR LATINO,Placebo,Pbo,Placebo,Pbo,Placebo,Placebo,2014-01-02,2014-01-02T00:00:00Z,H,2014-07-02,2014-07-02T23:59:59Z,H,,182,2014-01-30,29,Week 4,,,,BMI-for-age z-score,BMISDS,9,0.39634720029241605,0.1804078857664252,,,,,Y,Epoch,,13,BMI,BMI,,16.8161956674711,kg/m2,16.8161956674711,16.816195667471117,kg/m2,,,,5,WEEK 4,,2014-01-30,,,,,,394,DAYS,75.32,cm
27,CDISCPILOT01,01-701-1015,1015,701,USA,VS,2014-01-02,2014-07-02,2014-01-02,2014-07-02,2014-07-02T11:45,,,27,2013-01-02,2013-01-02,2013-12-26,-7,1,YEARS,F,WHITE,HISPANIC OR LATINO,Placebo,Pbo,Placebo,Pbo,Placebo,Placebo,2014-01-02,2014-01-02T00:00:00Z,H,2014-07-02,2014-07-02T23:59:59Z,H,,182,2014-02-12,42,Week 6,,,,BMI-for-age z-score,BMISDS,9,0.4382725211646537,0.1804078857664252,,,,,Y,Epoch,,17,BMI,BMI,,16.8246072334467,kg/m2,16.8246072334467,16.824607233446745,kg/m2,,,,7,WEEK 6,,2014-02-12,,,,,,407,DAYS,75.93,cm
28,CDISCPILOT01,01-701-1015,1015,701,USA,VS,2014-01-02,2014-07-02,2014-01-02,2014-07-02,2014-07-02T11:45,,,28,2013-01-02,2013-01-02,2013-12-26,-7,1,YEARS,F,WHITE,HISPANIC OR LATINO,Placebo,Pbo,Placebo,Pbo,Placebo,Placebo,2014-01-02,2014-01-02T00:00:00Z,H,2014-07-02,2014-07-02T23:59:59Z,H,,182,2014-03-05,63,Week 8,,,,BMI-for-age z-score,BMISDS,9,0.5558692503203879,0.1804078857664252,,,,,Y,Epoch,,21,BMI,BMI,,16.9159634735359,kg/m2,16.9159634735359,16.915963473535886,kg/m2,,,,8,WEEK 8,,2014-03-05,,,,,,428,DAYS,76.54,cm
29,CDISCPILOT01,01-701-1015,1015,701,USA,VS,2014-01-02,2014-07-02,2014-01-02,2014-07-02,2014-07-02T11:45,,,29,2013-01-02,2013-01-02,2013-12-26,-7,1,YEARS,F,WHITE,HISPANIC OR LATINO,Placebo,Pbo,Placebo,Pbo,Placebo,Placebo,2014-01-02,2014-01-02T00:00:00Z,H,2014-07-02,2014-07-02T23:59:59Z,H,,182,2014-03-26,84,Week 12,,,,BMI-for-age z-score,BMISDS,9,0.6994965458779886,0.1804078857664252,,,,,Y,Epoch,,25,BMI,BMI,,17.0518553875519,kg/m2,17.0518553875519,17.05185538755192,kg/m2,,,,9,WEEK 12,,2014-03-26,,,,,,449,DAYS,77.72,cm
30,CDISCPILOT01,01-701-1015,1015,701,USA,VS,2014-01-02,2014-07-02,2014-01-02,2014-07-02,2014-07-02T11:45,,,30,2013-01-02,2013-01-02,2013-12-26,-7,1,YEARS,F,WHITE,HISPANIC OR LATINO,Placebo,Pbo,Placebo,Pbo,Placebo,Placebo,2014-01-02,2014-01-02T00:00:00Z,H,2014-07-02,2014-07-02T23:59:59Z,H,,182,2014-05-07,126,Week 16,,,,BMI-for-age z-score,BMISDS,9,0.8711554097041597,0.1804078857664252,,,,,Y,Epoch,,29,BMI,BMI,,17.1620632559648,kg/m2,17.1620632559648,17.162063255964828,kg/m2,,,,10,WEEK 16,,2014-05-07,,,,,,491,DAYS,78.96,cm
31,CDISCPILOT01,01-701-1015,1015,701,USA,VS,2014-01-02,2014-07-02,2014-01-02,2014-07-02,2014-07-02T11:45,,,31,2013-01-02,2013-01-02,2013-12-26,-7,1,YEARS,F,WHITE,HISPANIC OR LATINO,Placebo,Pbo,Placebo,Pbo,Placebo,Placebo,2014-01-02,2014-01-02T00:00:00Z,H,2014-07-02,2014-07-02T23:59:59Z,H,,182,2014-05-21,140,Week 20,,,,BMI-for-age z-score,BMISDS,9,0.9577492163707175,0.1804078857664252,,,,,Y,Epoch,,33,BMI,BMI,,17.2487514234882,kg/m2,17.2487514234882,17.248751423488176,kg/m2,,,,11,WEEK 20,,2014-05-21,,,,,,505,DAYS,80.22,cm
32,CDISCPILOT01,01-701-1015,1015,701,USA,VS,2014-01-02,2014-07-02,2014-01-02,2014-07-02,2014-07-02T11:45,,,32,2013-01-02,2013-01-02,2013-12-26,-7,1,YEARS,F,WHITE,HISPANIC OR LATINO,Placebo,Pbo,Placebo,Pbo,Placebo,Placebo,2014-01-02,2014-01-02T00:00:00Z,H,2014-07-02,2014-07-02T23:59:59Z,H,,182,2014-06-18,168,Week 24,,,,BMI-for-age z-score,BMISDS,9,1.1328529500190223,0.1804078857664252,,,,,Y,Epoch,,37,BMI,BMI,,17.4336757597814,kg/m2,17.4336757597814,17.43367575978138,kg/m2,,,,12,WEEK 24,,2014-06-18,,,,,,533,DAYS,81.43,cm
33,CDISCPILOT01,01-701-1015,1015,701,USA,VS,2014-01-02,2014-07-02,2014-01-02,2014-07-02,2014-07-02T11:45,,,33,2013-01-02,2013-01-02,2013-12-26,-7,1,YEARS,F,WHITE,HISPANIC OR LATINO,Placebo,Pbo,Placebo,Pbo,Placebo,Placebo,2014-01-02,2014-01-02T00:00:00Z,H,2014-07-02,2014-07-02T23:59:59Z,H,,182,2014-07-02,182,Week 26,,,,BMI-for-age z-score,BMISDS,9,1.1398963928056722,0.1804078857664252,,,,,Y,Epoch,,41,BMI,BMI,,17.4024931694471,kg/m2,17.4024931694471,17.402493169447126,kg/m2,,,,13,WEEK 26,,2014-07-02,,,,,,547,DAYS,82.03,cm
34,CDISCPILOT01,01-701-1015,1015,701,USA,VS,2014-01-02,2014-07-02,2014-01-02,2014-07-02,2014-07-02T11:45,,,34,2013-01-02,2013-01-02,2013-12-26,-7,1,YEARS,F,WHITE,HISPANIC OR LATINO,Placebo,Pbo,Placebo,Pbo,Placebo,Placebo,2014-01-02,2014-01-02T00:00:00Z,H,2014-07-02,2014-07-02T23:59:59Z,H,,182,2013-12-26,-7,Screening 1,-1,,,Head Circumference (cm),HDCIRC,4,35.61,37.24,,,,,,Epoch,,2,HDCIRC,Head Circumference,,35.61,cm,35.61,35.61,cm,,,,1,SCREENING 1,,2013-12-26,,,,,,359,DAYS,74.13,cm
35,CDISCPILOT01,01-701-1015,1015,701,USA,VS,2014-01-02,2014-07-02,2014-01-02,2014-07-02,2014-07-02T11:45,,,35,2013-01-02,2013-01-02,2013-12-26,-7,1,YEARS,F,WHITE,HISPANIC OR LATINO,Placebo,Pbo,Placebo,Pbo,Placebo,Placebo,2014-01-02,2014-01-02T00:00:00Z,H,2014-07-02,2014-07-02T23:59:59Z,H,,182,2014-01-02,1,Baseline,0,,,Head Circumference (cm),HDCIRC,4,37.24,37.24,,,Y,Y,,Epoch,,6,HDCIRC,Head Circumference,,37.24,cm,37.24,37.24,cm,,,,3,BASELINE,,2014-01-02,,,,,,366,DAYS,74.41,cm
36,CDISCPILOT01,01-701-1015,1015,701,USA,VS,2014-01-02,2014-07-02,2014-01-02,2014-07-02,2014-07-02T11:45,,,36,2013-01-02,2013-01-02,2013-12-26,-7,1,YEARS,F,WHITE,HISPANIC OR LATINO,Placebo,Pbo,Placebo,Pbo,Placebo,Placebo,2014-01-02,2014-01-02T00:00:00Z,H,2014-07-02,2014-07-02T23:59:59Z,H,,182,2014-01-16,15,Week 2,,,,Head Circumference (cm),HDCIRC,4,38.57,37.24,,,,,Y,Epoch,,10,HDCIRC,Head Circumference,,38.57,cm,38.57,38.57,cm,,,,4,WEEK 2,,2014-01-16,,,,,,380,DAYS,74.71,cm
37,CDISCPILOT01,01-701-1015,1015,701,USA,VS,2014-01-02,2014-07-02,2014-01-02,2014-07-02,2014-07-02T11:45,,,37,2013-01-02,2013-01-02,2013-12-26,-7,1,YEARS,F,WHITE,HISPANIC OR LATINO,Placebo,Pbo,Placebo,Pbo,Placebo,Placebo,2014-01-02,2014-01-02T00:00:00Z,H,2014-07-02,2014-07-02T23:59:59Z,H,,182,2014-01-30,29,Week 4,,,,Head Circumference (cm),HDCIRC,4,39.84,37.24,,,,,Y,Epoch,,14,HDCIRC,Head Circumference,,39.84,cm,39.84,39.84,cm,,,,5,WEEK 4,,2014-01-30,,,,,,394,DAYS,75.32,cm
38,CDISCPILOT01,01-701-1015,1015,701,USA,VS,2014-01-02,2014-07-02,2014-01-02,2014-07-02,2014-07-02T11:45,,,38,2013-01-02,2013-01-02,2013-12-26,-7,1,YEARS,F,WHITE,HISPANIC OR LATINO,Placebo,Pbo,Placebo,Pbo,Placebo,Placebo,2014-01-02,2014-01-02T00:00:00Z,H,2014-07-02,2014-07-02T23:59:59Z,H,,182,2014-02-12,42,Week 6,,,,Head Circumference (cm),HDCIRC,4,40.95,37.24,,,,,Y,Epoch,,18,HDCIRC,Head Circumference,,40.95,cm,40.95,40.95,cm,,,,7,WEEK 6,,2014-02-12,,,,,,407,DAYS,75.93,cm
39,CDISCPILOT01,01-701-1015,1015,701,USA,VS,2014-01-02,2014-07-02,2014-01-02,2014-07-02,2014-07-02T11:45,,,39,2013-01-02,2013-01-02,2013-12-26,-7,1,YEARS,F,WHITE,HISPANIC OR LATINO,Placebo,Pbo,Placebo,Pbo,Placebo,Placebo,2014-01-02,2014-01-02T00:00:00Z,H,2014-07-02,2014-07-02T23:59:59Z,H,,182,2014-03-05,63,Week 8,,,,Head Circumference (cm),HDCIRC,4,42.14,37.24,,,,,Y,Epoch,,22,HDCIRC,Head Circumference,,42.14,cm,42.14,42.14,cm,,,,8,WEEK 8,,2014-03-05,,,,,,428,DAYS,76.54,cm
40,CDISCPILOT01,01-701-1015,1015,701,USA,VS,2014-01-02,2014-07-02,2014-01-02,2014-07-02,2014-07-02T11:45,,,40,2013-01-02,2013-01-02,2013-12-26,-7,1,YEARS,F,WHITE,HISPANIC OR LATINO,Placebo,Pbo,Placebo,Pbo,Placebo,Placebo,2014-01-02,2014-01-02T00:00:00Z,H,2014-07-02,2014-07-02T23:59:59Z,H,,182,2014-03-26,84,Week 12,,,,Head Circumference (cm),HDCIRC,4,43.67,37.24,,,,,Y,Epoch,,26,HDCIRC,Head Circumference,,43.67,cm,43.67,43.67,cm,,,,9,WEEK 12,,2014-03-26,,,,,,449,DAYS,77.72,cm
41,CDISCPILOT01,01-701-1015,1015,701,USA,VS,2014-01-02,2014-07-02,2014-01-02,2014-07-02,2014-07-02T11:45,,,41,2013-01-02,2013-01-02,2013-12-26,-7,1,YEARS,F,WHITE,HISPANIC OR LATINO,Placebo,Pbo,Placebo,Pbo,Placebo,Placebo,2014-01-02,2014-01-02T00:00:00Z,H,2014-07-02,2014-07-02T23:59:59Z,H,,182,2014-05-07,126,Week 16,,,,Head Circumference (cm),HDCIRC,4,44.79,37.24,,,,,Y,Epoch,,30,HDCIRC,Head Circumference,,44.79,cm,44.79,44.79,cm,,,,10,WEEK 16,,2014-05-07,,,,,,491,DAYS,78.96,cm
42,CDISCPILOT01,01-701-1015,1015,701,USA,VS,2014-01-02,2014-07-02,2014-01-02,2014-07-02,2014-07-02T11:45,,,42,2013-01-02,2013-01-02,2013-12-26,-7,1,YEARS,F,WHITE,HISPANIC OR LATINO,Placebo,Pbo,Placebo,Pbo,Placebo,Placebo,2014-01-02,2014-01-02T00:00:00Z,H,2014-07-02,2014-07-02T23:59:59Z,H,,182,2014-05-21,140,Week 20,,,,Head Circumference (cm),HDCIRC,4,45.92,37.24,,,,,Y,Epoch,,34,HDCIRC,Head Circumference,,45.92,cm,45.92,45.92,cm,,,,11,WEEK 20,,2014-05-21,,,,,,505,DAYS,80.22,cm
43,CDISCPILOT01,01-701-1015,1015,701,USA,VS,2014-01-02,2014-07-02,2014-01-02,2014-07-02,2014-07-02T11:45,,,43,2013-01-02,2013-01-02,2013-12-26,-7,1,YEARS,F,WHITE,HISPANIC OR LATINO,Placebo,Pbo,Placebo,Pbo,Placebo,Placebo,2014-01-02,2014-01-02T00:00:00Z,H,2014-07-02,2014-07-02T23:59:59Z,H,,182,2014-06-18,168,Week 24,,,,Head Circumference (cm),HDCIRC,4,46.88,37.24,,,,,Y,Epoch,,38,HDCIRC,Head Circumference,,46.88,cm,46.88,46.88,cm,,,,12,WEEK 24,,2014-06-18,,,,,,533,DAYS,81.43,cm
44,CDISCPILOT01,01-701-1015,1015,701,USA,VS,2014-01-02,2014-07-02,2014-01-02,2014-07-02,2014-07-02T11:45,,,44,2013-01-02,2013-01-02,2013-12-26,-7,1,YEARS,F,WHITE,HISPANIC OR LATINO,Placebo,Pbo,Placebo,Pbo,Placebo,Placebo,2014-01-02,2014-01-02T00:00:00Z,H,2014-07-02,2014-07-02T23:59:59Z,H,,182,2014-07-02,182,Week 26,,,,Head Circumference (cm),HDCIRC,4,47.56,37.24,,,,,Y,Epoch,,42,HDCIRC,Head Circumference,,47.56,cm,47.56,47.56,cm,,,,13,WEEK 26,,2014-07-02,,,,,,547,DAYS,82.03,cm
45,CDISCPILOT01,01-701-1015,1015,701,USA,VS,2014-01-02,2014-07-02,2014-01-02,2014-07-02,2014-07-02T11:45,,,45,2013-01-02,2013-01-02,2013-12-26,-7,1,YEARS,F,WHITE,HISPANIC OR LATINO,Placebo,Pbo,Placebo,Pbo,Placebo,Placebo,2014-01-02,2014-01-02T00:00:00Z,H,2014-07-02,2014-07-02T23:59:59Z,H,,182,2013-12-26,-7,Screening 1,-1,,,Head Circumference-for-age percentile,HDCPCTL,12,5.406766663457596e-10,8.589596490560727e-7,,,,,,Epoch,,2,HDCIRC,Head Circumference,,35.61,cm,35.61,35.61,cm,,,,1,SCREENING 1,,2013-12-26,,,,,,359,DAYS,74.13,cm
46,CDISCPILOT01,01-701-1015,1015,701,USA,VS,2014-01-02,2014-07-02,2014-01-02,2014-07-02,2014-07-02T11:45,,,46,2013-01-02,2013-01-02,2013-12-26,-7,1,YEARS,F,WHITE,HISPANIC OR LATINO,Placebo,Pbo,Placebo,Pbo,Placebo,Placebo,2014-01-02,2014-01-02T00:00:00Z,H,2014-07-02,2014-07-02T23:59:59Z,H,,182,2014-01-02,1,Baseline,0,,,Head Circumference-for-age percentile,HDCPCTL,12,8.589596490560727e-7,8.589596490560727e-7,,,Y,Y,,Epoch,,6,HDCIRC,Head Circumference,,37.24,cm,37.24,37.24,cm,,,,3,BASELINE,,2014-01-02,,,,,,366,DAYS,74.41,cm
47,CDISCPILOT01,01-701-1015,1015,701,USA,VS,2014-01-02,2014-07-02,2014-01-02,2014-07-02,2014-07-02T11:45,,,47,2013-01-02,2013-01-02,2013-12-26,-7,1,YEARS,F,WHITE,HISPANIC OR LATINO,Placebo,Pbo,Placebo,Pbo,Placebo,Placebo,2014-01-02,2014-01-02T00:00:00Z,H,2014-07-02,2014-07-02T23:59:59Z,H,,182,2014-01-16,15,Week 2,,,,Head Circumference-for-age percentile,HDCPCTL,12,1.0223841999244794e-4,8.589596490560727e-7,,,,,Y,Epoch,,10,HDCIRC,Head Circumference,,38.57,cm,38.57,38.57,cm,,,,4,WEEK 2,,2014-01-16,,,,,,380,DAYS,74.71,cm
48,CDISCPILOT01,01-701-1015,1015,701,USA,VS,2014-01-02,2014-07-02,2014-01-02,2014-07-02,2014-07-02T11:45,,,48,2013-01-02,2013-01-02,2013-12-26,-7,1,YEARS,F,WHITE,HISPANIC OR LATINO,Placebo,Pbo,Placebo,Pbo,Placebo,Placebo,2014-01-02,2014-01-02T00:00:00Z,H,2014-07-02,2014-07-02T23:59:59Z,H,,182,2014-01-30,29,Week 4,,,,Head Circumference-for-age percentile,HDCPCTL,12,0.004787885990214467,8.589596490560727e-7,,,,,Y,Epoch,,14,HDCIRC,Head Circumference,,39.84,cm,39.84,39.84,cm,,,,5,WEEK 4,,2014-01-30,,,,,,394,DAYS,75.32,cm
49,CDISCPILOT01,01-701-1015,1015,701,USA,VS,2014-01-02,2014-07-02,2014-01-02,2014-07-02,2014-07-02T11:45,,,49,2013-01-02,2013-01-02,2013-12-26,-7,1,YEARS,F,WHITE,HISPANIC OR LATINO,Placebo,Pbo,Placebo,Pbo,Placebo,Placebo,2014-01-02,2014-01-02T00:00:00Z,H,2014-07-02,2014-07-02T23:59:59Z,H,,182,2014-02-12,42,Week 6,,,,Head Circumference-for-age percentile,HDCPCTL,12,0.07781258943080113,8.589596490560727e-7,,,,,Y,Epoch,,18,HDCIRC,Head Circumference,,40.95,cm,40.95,40.95,cm,,,,7,WEEK 6,,2014-02-12,,,,,,407,DAYS,75.93,cm
50,CDISCPILOT01,01-701-1015,1015,701,USA,VS,2014-01-02,2014-07-02,2014-01-02,2014-07-02,2014-07-02T11:45,,,50,2013-01-02,2013-01-02,2013-12-26,-7,1,YEARS,F,WHITE,HISPANIC OR LATINO,Placebo,Pbo,Placebo,Pbo,Placebo,Placebo,2014-01-02,2014-01-02T00:00:00Z,H,2014-07-02,2014-07-02T23:59:59Z,H,,182,2014-03-05,63,Week 8,,,,Head Circumference-for-age percentile,HDCPCTL,12,0.7933876520605128,8.589596490560727e-7,,,,,Y,Epoch,,22,HDCIRC,Head Circumference,,42.14,cm,42.14,42.14,cm,,,,8,WEEK 8,,2014-03-05,,,,,,428,DAYS,76.54,cm
51,CDISCPILOT01,01-701-1015,1015,701,USA,VS,2014-01-02,2014-07-02,2014-01-02,2014-07-02,2014-07-02T11:45,,,51,2013-01-02,2013-01-02,2013-12-26,-7,1,YEARS,F,WHITE,HISPANIC OR LATINO,Placebo,Pbo,Placebo,Pbo,Placebo,Placebo,2014-01-02,2014-01-02T00:00:00Z,H,2014-07-02,2014-07-02T23:59:59Z,H,,182,2014-03-26,84,Week 12,,,,Head Circumference-for-age percentile,HDCPCTL,12,7.961378970505333,8.589596490560727e-7,,,,,Y,Epoch,,26,HDCIRC,Head Circumference,,43.67,cm,43.67,43.67,cm,,,,9,WEEK 12,,2014-03-26,,,,,,449,DAYS,77.72,cm
52,CDISCPILOT01,01-701-1015,1015,701,USA,VS,2014-01-02,2014-07-02,2014-01-02,2014-07-02,2014-07-02T11:45,,,52,2013-01-02,2013-01-02,2013-12-26,-7,1,YEARS,F,WHITE,HISPANIC OR LATINO,Placebo,Pbo,Placebo,Pbo,Placebo,Placebo,2014-01-02,2014-01-02T00:00:00Z,H,2014-07-02,2014-07-02T23:59:59Z,H,,182,2014-05-07,126,Week 16,,,,Head Circumference-for-age percentile,HDCPCTL,12,21.1699479362022,8.589596490560727e-7,,,,,Y,Epoch,,30,HDCIRC,Head Circumference,,44.79,cm,44.79,44.79,cm,,,,10,WEEK 16,,2014-05-07,,,,,,491,DAYS,78.96,cm
53,CDISCPILOT01,01-701-1015,1015,701,USA,VS,2014-01-02,2014-07-02,2014-01-02,2014-07-02,2014-07-02T11:45,,,53,2013-01-02,2013-01-02,2013-12-26,-7,1,YEARS,F,WHITE,HISPANIC OR LATINO,Placebo,Pbo,Placebo,Pbo,Placebo,Placebo,2014-01-02,2014-01-02T00:00:00Z,H,2014-07-02,2014-07-02T23:59:59Z,H,,182,2014-05-21,140,Week 20,,,,Head Circumference-for-age percentile,HDCPCTL,12,48.21093912364218,8.589596490560727e-7,,,,,Y,Epoch,,34,HDCIRC,Head Circumference,,45.92,cm,45.92,45.92,cm,,,,11,WEEK 20,,2014-05-21,,,,,,505,DAYS,80.22,cm
54,CDISCPILOT01,01-701-1015,1015,701,USA,VS,2014-01-02,2014-07-02,2014-01-02,2014-07-02,2014-07-02T11:45,,,54,2013-01-02,2013-01-02,2013-12-26,-7,1,YEARS,F,WHITE,HISPANIC OR LATINO,Placebo,Pbo,Placebo,Pbo,Placebo,Placebo,2014-01-02,2014-01-02T00:00:00Z,H,2014-07-02,2014-07-02T23:59:59Z,H,,182,2014-06-18,168,Week 24,,,,Head Circumference-for-age percentile,HDCPCTL,12,70.04576408337782,8.589596490560727e-7,,,,,Y,Epoch,,38,HDCIRC,Head Circumference,,46.88,cm,46.88,46.88,cm,,,,12,WEEK 24,,2014-06-18,,,,,,533,DAYS,81.43,cm
55,CDISCPILOT01,01-701-1015,1015,701,USA,VS,2014-01-02,2014-07-02,2014-01-02,2014-07-02,2014-07-02T11:45,,,55,2013-01-02,2013-01-02,2013-12-26,-7,1,YEARS,F,WHITE,HISPANIC OR LATINO,Placebo,Pbo,Placebo,Pbo,Placebo,Placebo,2014-01-02,2014-01-02T00:00:00Z,H,2014-07-02,2014-07-02T23:59:59Z,H,,182,2014-07-02,182,Week 26,,,,Head Circumference-for-age percentile,HDCPCTL,12,83.08144486280725,8.589596490560727e-7,,,,,Y,Epoch,,42,HDCIRC,Head Circumference,,47.56,cm,47.56,47.56,cm,,,,13,WEEK 26,,2014-07-02,,,,,,547,DAYS,82.03,cm
56,CDISCPILOT01,01-701-1015,1015,701,USA,VS,2014-01-02,2014-07-02,2014-01-02,2014-07-02,2014-07-02T11:45,,,56,2013-01-02,2013-01-02,2013-12-26,-7,1,YEARS,F,WHITE,HISPANIC OR LATINO,Placebo,Pbo,Placebo,Pbo,Placebo,Placebo,2014-01-02,2014-01-02T00:00:00Z,H,2014-07-02,2014-07-02T23:59:59Z,H,,182,2013-12-26,-7,Screening 1,-1,,,Head Circumference-for-age z-score,HDCSDS,11,-6.795236041675632,-5.638245046396131,,,,,,Epoch,,2,HDCIRC,Head Circumference,,35.61,cm,35.61,35.61,cm,,,,1,SCREENING 1,,2013-12-26,,,,,,359,DAYS,74.13,cm
57,CDISCPILOT01,01-701-1015,1015,701,USA,VS,2014-01-02,2014-07-02,2014-01-02,2014-07-02,2014-07-02T11:45,,,57,2013-01-02,2013-01-02,2013-12-26,-7,1,YEARS,F,WHITE,HISPANIC OR LATINO,Placebo,Pbo,Placebo,Pbo,Placebo,Placebo,2014-01-02,2014-01-02T00:00:00Z,H,2014-07-02,2014-07-02T23:59:59Z,H,,182,2014-01-02,1,Baseline,0,,,Head Circumference-for-age z-score,HDCSDS,11,-5.638245046396131,-5.638245046396131,,,Y,Y,,Epoch,,6,HDCIRC,Head Circumference,,37.24,cm,37.24,37.24,cm,,,,3,BASELINE,,2014-01-02,,,,,,366,DAYS,74.41,cm
58,CDISCPILOT01,01-701-1015,1015,701,USA,VS,2014-01-02,2014-07-02,2014-01-02,2014-07-02,2014-07-02T11:45,,,58,2013-01-02,2013-01-02,2013-12-26,-7,1,YEARS,F,WHITE,HISPANIC OR LATINO,Placebo,Pbo,Placebo,Pbo,Placebo,Placebo,2014-01-02,2014-01-02T00:00:00Z,H,2014-07-02,2014-07-02T23:59:59Z,H,,182,2014-01-16,15,Week 2,,,,Head Circumference-for-age z-score,HDCSDS,11,-4.74894865781396,-5.638245046396131,,,,,Y,Epoch,,10,HDCIRC,Head Circumference,,38.57,cm,38.57,38.57,cm,,,,4,WEEK 2,,2014-01-16,,,,,,380,DAYS,74.71,cm
59,CDISCPILOT01,01-701-1015,1015,701,USA,VS,2014-01-02,2014-07-02,2014-01-02,2014-07-02,2014-07-02T11:45,,,59,2013-01-02,2013-01-02,2013-12-26,-7,1,YEARS,F,WHITE,HISPANIC OR LATINO,Placebo,Pbo,Placebo,Pbo,Placebo,Placebo,2014-01-02,2014-01-02T00:00:00Z,H,2014-07-02,2014-07-02T23:59:59Z,H,,182,2014-01-30,29,Week 4,,,,Head Circumference-for-age z-score,HDCSDS,11,-3.9010971244503834,-5.638245046396131,,,,,Y,Epoch,,14,HDCIRC,Head Circumference,,39.84,cm,39.84,39.84,cm,,,,5,WEEK 4,,2014-01-30,,,,,,394,DAYS,75.32,cm
60,CDISCPILOT01,01-701-1015,1015,701,USA,VS,2014-01-02,2014-07-02,2014-01-02,2014-07-02,2014-07-02T11:45,,,60,2013-01-02,2013-01-02,2013-12-26,-7,1,YEARS,F,WHITE,HISPANIC OR LATINO,Placebo,Pbo,Placebo,Pbo,Placebo,Placebo,2014-01-02,2014-01-02T00:00:00Z,H,2014-07-02,2014-07-02T23:59:59Z,H,,182,2014-02-12,42,Week 6,,,,Head Circumference-for-age z-score,HDCSDS,11,-3.163984321441828,-5.638245046396131,,,,,Y,Epoch,,18,HDCIRC,Head Circumference,,40.95,cm,40.95,40.95,cm,,,,7,WEEK 6,,2014-02-12,,,,,,407,DAYS,75.93,cm
61,CDISCPILOT01,01-701-1015,1015,701,USA,VS,2014-01-02,2014-07-02,2014-01-02,2014-07-02,2014-07-02T11:45,,,61,2013-01-02,2013-01-02,2013-12-26,-7,1,YEARS,F,WHITE,HISPANIC OR LATINO,Placebo,Pbo,Placebo,Pbo,Placebo,Placebo,2014-01-02,2014-01-02T00:00:00Z,H,2014-07-02,2014-07-02T23:59:59Z,H,,182,2014-03-05,63,Week 8,,,,Head Circumference-for-age z-score,HDCSDS,11,-2.4119432062863235,-5.638245046396131,,,,,Y,Epoch,,22,HDCIRC,Head Circumference,,42.14,cm,42.14,42.14,cm,,,,8,WEEK 8,,2014-03-05,,,,,,428,DAYS,76.54,cm
62,CDISCPILOT01,01-701-1015,1015,701,USA,VS,2014-01-02,2014-07-02,2014-01-02,2014-07-02,2014-07-02T11:45,,,62,2013-01-02,2013-01-02,2013-12-26,-7,1,YEARS,F,WHITE,HISPANIC OR LATINO,Placebo,Pbo,Placebo,Pbo,Placebo,Placebo,2014-01-02,2014-01-02T00:00:00Z,H,2014-07-02,2014-07-02T23:59:59Z,H,,182,2014-03-26,84,Week 12,,,,Head Circumference-for-age z-score,HDCSDS,11,-1.4076741508466026,-5.638245046396131,,,,,Y,Epoch,,26,HDCIRC,Head Circumference,,43.67,cm,43.67,43.67,cm,,,,9,WEEK 12,,2014-03-26,,,,,,449,DAYS,77.72,cm
63,CDISCPILOT01,01-701-1015,1015,701,USA,VS,2014-01-02,2014-07-02,2014-01-02,2014-07-02,2014-07-02T11:45,,,63,2013-01-02,2013-01-02,2013-12-26,-7,1,YEARS,F,WHITE,HISPANIC OR LATINO,Placebo,Pbo,Placebo,Pbo,Placebo,Placebo,2014-01-02,2014-01-02T00:00:00Z,H,2014-07-02,2014-07-02T23:59:59Z,H,,182,2014-05-07,126,Week 16,,,,Head Circumference-for-age z-score,HDCSDS,11,-0.800538340883283,-5.638245046396131,,,,,Y,Epoch,,30,HDCIRC,Head Circumference,,44.79,cm,44.79,44.79,cm,,,,10,WEEK 16,,2014-05-07,,,,,,491,DAYS,78.96,cm
64,CDISCPILOT01,01-701-1015,1015,701,USA,VS,2014-01-02,2014-07-02,2014-01-02,2014-07-02,2014-07-02T11:45,,,64,2013-01-02,2013-01-02,2013-12-26,-7,1,YEARS,F,WHITE,HISPANIC OR LATINO,Placebo,Pbo,Placebo,Pbo,Placebo,Placebo,2014-01-02,2014-01-02T00:00:00Z,H,2014-07-02,2014-07-02T23:59:59Z,H,,182,2014-05-21,140,Week 20,,,,Head Circumference-for-age z-score,HDCSDS,11,-0.04486014757530712,-5.638245046396131,,,,,Y,Epoch,,34,HDCIRC,Head Circumference,,45.92,cm,45.92,45.92,cm,,,,11,WEEK 20,,2014-05-21,,,,,,505,DAYS,80.22,cm
65,CDISCPILOT01,01-701-1015,1015,701,USA,VS,2014-01-02,2014-07-02,2014-01-02,2014-07-02,2014-07-02T11:45,,,65,2013-01-02,2013-01-02,2013-12-26,-7,1,YEARS,F,WHITE,HISPANIC OR LATINO,Placebo,Pbo,Placebo,Pbo,Placebo,Placebo,2014-01-02,2014-01-02T00:00:00Z,H,2014-07-02,2014-07-02T23:59:59Z,H,,182,2014-06-18,168,Week 24,,,,Head Circumference-for-age z-score,HDCSDS,11,0.5257171900209695,-5.638245046396131,,,,,Y,Epoch,,38,HDCIRC,Head Circumference,,46.88,cm,46.88,46.88,cm,,,,12,WEEK 24,,2014-06-18,,,,,,533,DAYS,81.43,cm
66,CDISCPILOT01,01-701-1015,1015,701,USA,VS,2014-01-02,2014-07-02,2014-01-02,2014-07-02,2014-07-02T11:45,,,66,2013-01-02,2013-01-02,2013-12-26,-7,1,YEARS,F,WHITE,HISPANIC OR LATINO,Placebo,Pbo,Placebo,Pbo,Placebo,Placebo,2014-01-02,2014-01-02T00:00:00Z,H,2014-07-02,2014-07-02T23:59:59Z,H,,182,2014-07-02,182,Week 26,,,,Head Circumference-for-age z-score,HDCSDS,11,0.9573886942596679,-5.638245046396131,,,,,Y,Epoch,,42,HDCIRC,Head Circumference,,47.56,cm,47.56,47.56,cm,,,,13,WEEK 26,,2014-07-02,,,,,,547,DAYS,82.03,cm
67,CDISCPILOT01,01-701-1015,1015,701,USA,VS,2014-01-02,2014-07-02,2014-01-02,2014-07-02,2014-07-02T11:45,,,67,2013-01-02,2013-01-02,2013-12-26,-7,1,YEARS,F,WHITE,HISPANIC OR LATINO,Placebo,Pbo,Placebo,Pbo,Placebo,Placebo,2014-01-02,2014-01-02T00:00:00Z,H,2014-07-02,2014-07-02T23:59:59Z,H,,182,2013-12-26,-7,Screening 1,-1,,,Height (cm),HEIGHT,2,74.13,74.41,,,,,,Epoch,,3,HEIGHT,Height,,74.13,cm,74.13,74.13,cm,,,,1,SCREENING 1,,2013-12-26,,,,,,359,DAYS,74.13,cm
68,CDISCPILOT01,01-701-1015,1015,701,USA,VS,2014-01-02,2014-07-02,2014-01-02,2014-07-02,2014-07-02T11:45,,,68,2013-01-02,2013-01-02,2013-12-26,-7,1,YEARS,F,WHITE,HISPANIC OR LATINO,Placebo,Pbo,Placebo,Pbo,Placebo,Placebo,2014-01-02,2014-01-02T00:00:00Z,H,2014-07-02,2014-07-02T23:59:59Z,H,,182,2014-01-02,1,Baseline,0,,,Height (cm),HEIGHT,2,74.41,74.41,,,Y,Y,,Epoch,,7,HEIGHT,Height,,74.41,cm,74.41,74.41,cm,,,,3,BASELINE,,2014-01-02,,,,,,366,DAYS,74.41,cm
69,CDISCPILOT01,01-701-1015,1015,701,USA,VS,2014-01-02,2014-07-02,2014-01-02,2014-07-02,2014-07-02T11:45,,,69,2013-01-02,2013-01-02,2013-12-26,-7,1,YEARS,F,WHITE,HISPANIC OR LATINO,Placebo,Pbo,Placebo,Pbo,Placebo,Placebo,2014-01-02,2014-01-02T00:00:00Z,H,2014-07-02,2014-07-02T23:59:59Z,H,,182,2014-01-16,15,Week 2,,,,Height (cm),HEIGHT,2,74.71,74.41,,,,,Y,Epoch,,11,HEIGHT,Height,,74.71,cm,74.71,74.71,cm,,,,4,WEEK 2,,2014-01-16,,,,,,380,DAYS,74.71,cm
70,CDISCPILOT01,01-701-1015,1015,701,USA,VS,2014-01-02,2014-07-02,2014-01-02,2014-07-02,2014-07-02T11:45,,,70,2013-01-02,2013-01-02,2013-12-26,-7,1,YEARS,F,WHITE,HISPANIC OR LATINO,Placebo,Pbo,Placebo,Pbo,Placebo,Placebo,2014-01-02,2014-01-02T00:00:00Z,H,2014-07-02,2014-07-02T23:59:59Z,H,,182,2014-01-30,29,Week 4,,,,Height (cm),HEIGHT,2,75.32,74.41,,,,,Y,Epoch,,15,HEIGHT,Height,,75.32,cm,75.32,75.32,cm,,,,5,WEEK 4,,2014-01-30,,,,,,394,DAYS,75.32,cm
71,CDISCPILOT01,01-701-1015,1015,701,USA,VS,2014-01-02,2014-07-02,2014-01-02,2014-07-02,2014-07-02T11:45,,,71,2013-01-02,2013-01-02,2013-12-26,-7,1,YEARS,F,WHITE,HISPANIC OR LATINO,Placebo,Pbo,Placebo,Pbo,Placebo,Placebo,2014-01-02,2014-01-02T00:00:00Z,H,2014-07-02,2014-07-02T23:59:59Z,H,,182,2014-02-12,42,Week 6,,,,Height (cm),HEIGHT,2,75.93,74.41,,,,,Y,Epoch,,19,HEIGHT,Height,,75.93,cm,75.93,75.93,cm,,,,7,WEEK 6,,2014-02-12,,,,,,407,DAYS,75.93,cm
72,CDISCPILOT01,01-701-1015,1015,701,USA,VS,2014-01-02,2014-07-02,2014-01-02,2014-07-02,2014-07-02T11:45,,,72,2013-01-02,2013-01-02,2013-12-26,-7,1,YEARS,F,WHITE,HISPANIC OR LATINO,Placebo,Pbo,Placebo,Pbo,Placebo,Placebo,2014-01-02,2014-01-02T00:00:00Z,H,2014-07-02,2014-07-02T23:59:59Z,H,,182,2014-03-05,63,Week 8,,,,Height (cm),HEIGHT,2,76.54,74.41,,,,,Y,Epoch,,23,HEIGHT,Height,,76.54,cm,76.54,76.54,cm,,,,8,WEEK 8,,2014-03-05,,,,,,428,DAYS,76.54,cm
73,CDISCPILOT01,01-701-1015,1015,701,USA,VS,2014-01-02,2014-07-02,2014-01-02,2014-07-02,2014-07-02T11:45,,,73,2013-01-02,2013-01-02,2013-12-26,-7,1,YEARS,F,WHITE,HISPANIC OR LATINO,Placebo,Pbo,Placebo,Pbo,Placebo,Placebo,2014-01-02,2014-01-02T00:00:00Z,H,2014-07-02,2014-07-02T23:59:59Z,H,,182,2014-03-26,84,Week 12,,,,Height (cm),HEIGHT,2,77.72,74.41,,,,,Y,Epoch,,27,HEIGHT,Height,,77.72,cm,77.72,77.72,cm,,,,9,WEEK 12,,2014-03-26,,,,,,449,DAYS,77.72,cm
74,CDISCPILOT01,01-701-1015,1015,701,USA,VS,2014-01-02,2014-07-02,2014-01-02,2014-07-02,2014-07-02T11:45,,,74,2013-01-02,2013-01-02,2013-12-26,-7,1,YEARS,F,WHITE,HISPANIC OR LATINO,Placebo,Pbo,Placebo,Pbo,Placebo,Placebo,2014-01-02,2014-01-02T00:00:00Z,H,2014-07-02,2014-07-02T23:59:59Z,H,,182,2014-05-07,126,Week 16,,,,Height (cm),HEIGHT,2,78.96,74.41,,,,,Y,Epoch,,31,HEIGHT,Height,,78.96,cm,78.96,78.96,cm,,,,10,WEEK 16,,2014-05-07,,,,,,491,DAYS,78.96,cm
75,CDISCPILOT01,01-701-1015,1015,701,USA,VS,2014-01-02,2014-07-02,2014-01-02,2014-07-02,2014-07-02T11:45,,,75,2013-01-02,2013-01-02,2013-12-26,-7,1,YEARS,F,WHITE,HISPANIC OR LATINO,Placebo,Pbo,Placebo,Pbo,Placebo,Placebo,2014-01-02,2014-01-02T00:00:00Z,H,2014-07-02,2014-07-02T23:59:59Z,H,,182,2014-05-21,140,Week 20,,,,Height (cm),HEIGHT,2,80.22,74.41,,,,,Y,Epoch,,35,HEIGHT,Height,,80.22,cm,80.22,80.22,cm,,,,11,WEEK 20,,2014-05-21,,,,,,505,DAYS,80.22,cm
76,CDISCPILOT01,01-701-1015,1015,701,USA,VS,2014-01-02,2014-07-02,2014-01-02,2014-07-02,2014-07-02T11:45,,,76,2013-01-02,2013-01-02,2013-12-26,-7,1,YEARS,F,WHITE,HISPANIC OR LATINO,Placebo,Pbo,Placebo,Pbo,Placebo,Placebo,2014-01-02,2014-01-02T00:00:00Z,H,2014-07-02,2014-07-02T23:59:59Z,H,,182,2014-06-18,168,Week 24,,,,Height (cm),HEIGHT,2,81.43,74.41,,,,,Y,Epoch,,39,HEIGHT,Height,,81.43,cm,81.43,81.43,cm,,,,12,WEEK 24,,2014-06-18,,,,,,533,DAYS,81.43,cm
77,CDISCPILOT01,01-701-1015,1015,701,USA,VS,2014-01-02,2014-07-02,2014-01-02,2014-07-02,2014-07-02T11:45,,,77,2013-01-02,2013-01-02,2013-12-26,-7,1,YEARS,F,WHITE,HISPANIC OR LATINO,Placebo,Pbo,Placebo,Pbo,Placebo,Placebo,2014-01-02,2014-01-02T00:00:00Z,H,2014-07-02,2014-07-02T23:59:59Z,H,,182,2014-07-02,182,Week 26,,,,Height (cm),HEIGHT,2,82.03,74.41,,,,,Y,Epoch,,43,HEIGHT,Height,,82.03,cm,82.03,82.03,cm,,,,13,WEEK 26,,2014-07-02,,,,,,547,DAYS,82.03,cm
78,CDISCPILOT01,01-701-1015,1015,701,USA,VS,2014-01-02,2014-07-02,2014-01-02,2014-07-02,2014-07-02T11:45,,,78,2013-01-02,2013-01-02,2013-12-26,-7,1,YEARS,F,WHITE,HISPANIC OR LATINO,Placebo,Pbo,Placebo,Pbo,Placebo,Placebo,2014-01-02,2014-01-02T00:00:00Z,H,2014-07-02,2014-07-02T23:59:59Z,H,,182,2013-12-26,-7,Screening 1,-1,,,Height-for-age percentile,HGTPCTL,8,55.690846325119814,55.63226060346575,,,,,,Epoch,,3,HEIGHT,Height,,74.13,cm,74.13,74.13,cm,,,,1,SCREENING 1,,2013-12-26,,,,,,359,DAYS,74.13,cm
79,CDISCPILOT01,01-701-1015,1015,701,USA,VS,2014-01-02,2014-07-02,2014-01-02,2014-07-02,2014-07-02T11:45,,,79,2013-01-02,2013-01-02,2013-12-26,-7,1,YEARS,F,WHITE,HISPANIC OR LATINO,Placebo,Pbo,Placebo,Pbo,Placebo,Placebo,2014-01-02,2014-01-02T00:00:00Z,H,2014-07-02,2014-07-02T23:59:59Z,H,,182,2014-01-02,1,Baseline,0,,,Height-for-age percentile,HGTPCTL,8,55.63226060346575,55.63226060346575,,,Y,Y,,Epoch,,7,HEIGHT,Height,,74.41,cm,74.41,74.41,cm,,,,3,BASELINE,,2014-01-02,,,,,,366,DAYS,74.41,cm
80,CDISCPILOT01,01-701-1015,1015,701,USA,VS,2014-01-02,2014-07-02,2014-01-02,2014-07-02,2014-07-02T11:45,,,80,2013-01-02,2013-01-02,2013-12-26,-7,1,YEARS,F,WHITE,HISPANIC OR LATINO,Placebo,Pbo,Placebo,Pbo,Placebo,Placebo,2014-01-02,2014-01-02T00:00:00Z,H,2014-07-02,2014-07-02T23:59:59Z,H,,182,2014-01-16,15,Week 2,,,,Height-for-age percentile,HGTPCTL,8,51.645054016867974,55.63226060346575,,,,,Y,Epoch,,11,HEIGHT,Height,,74.71,cm,74.71,74.71,cm,,,,4,WEEK 2,,2014-01-16,,,,,,380,DAYS,74.71,cm
81,CDISCPILOT01,01-701-1015,1015,701,USA,VS,2014-01-02,2014-07-02,2014-01-02,2014-07-02,2014-07-02T11:45,,,81,2013-01-02,2013-01-02,2013-12-26,-7,1,YEARS,F,WHITE,HISPANIC OR LATINO,Placebo,Pbo,Placebo,Pbo,Placebo,Placebo,2014-01-02,2014-01-02T00:00:00Z,H,2014-07-02,2014-07-02T23:59:59Z,H,,182,2014-01-30,29,Week 4,,,,Height-for-age percentile,HGTPCTL,8,52.55149214701555,55.63226060346575,,,,,Y,Epoch,,15,HEIGHT,Height,,75.32,cm,75.32,75.32,cm,,,,5,WEEK 4,,2014-01-30,,,,,,394,DAYS,75.32,cm
82,CDISCPILOT01,01-701-1015,1015,701,USA,VS,2014-01-02,2014-07-02,2014-01-02,2014-07-02,2014-07-02T11:45,,,82,2013-01-02,2013-01-02,2013-12-26,-7,1,YEARS,F,WHITE,HISPANIC OR LATINO,Placebo,Pbo,Placebo,Pbo,Placebo,Placebo,2014-01-02,2014-01-02T00:00:00Z,H,2014-07-02,2014-07-02T23:59:59Z,H,,182,2014-02-12,42,Week 6,,,,Height-for-age percentile,HGTPCTL,8,54.1382568420594,55.63226060346575,,,,,Y,Epoch,,19,HEIGHT,Height,,75.93,cm,75.93,75.93,cm,,,,7,WEEK 6,,2014-02-12,,,,,,407,DAYS,75.93,cm
83,CDISCPILOT01,01-701-1015,1015,701,USA,VS,2014-01-02,2014-07-02,2014-01-02,2014-07-02,2014-07-02T11:45,,,83,2013-01-02,2013-01-02,2013-12-26,-7,1,YEARS,F,WHITE,HISPANIC OR LATINO,Placebo,Pbo,Placebo,Pbo,Placebo,Placebo,2014-01-02,2014-01-02T00:00:00Z,H,2014-07-02,2014-07-02T23:59:59Z,H,,182,2014-03-05,63,Week 8,,,,Height-for-age percentile,HGTPCTL,8,51.30283228157032,55.63226060346575,,,,,Y,Epoch,,23,HEIGHT,Height,,76.54,cm,76.54,76.54,cm,,,,8,WEEK 8,,2014-03-05,,,,,,428,DAYS,76.54,cm
84,CDISCPILOT01,01-701-1015,1015,701,USA,VS,2014-01-02,2014-07-02,2014-01-02,2014-07-02,2014-07-02T11:45,,,84,2013-01-02,2013-01-02,2013-12-26,-7,1,YEARS,F,WHITE,HISPANIC OR LATINO,Placebo,Pbo,Placebo,Pbo,Placebo,Placebo,2014-01-02,2014-01-02T00:00:00Z,H,2014-07-02,2014-07-02T23:59:59Z,H,,182,2014-03-26,84,Week 12,,,,Height-for-age percentile,HGTPCTL,8,57.09487514485119,55.63226060346575,,,,,Y,Epoch,,27,HEIGHT,Height,,77.72,cm,77.72,77.72,cm,,,,9,WEEK 12,,2014-03-26,,,,,,449,DAYS,77.72,cm
85,CDISCPILOT01,01-701-1015,1015,701,USA,VS,2014-01-02,2014-07-02,2014-01-02,2014-07-02,2014-07-02T11:45,,,85,2013-01-02,2013-01-02,2013-12-26,-7,1,YEARS,F,WHITE,HISPANIC OR LATINO,Placebo,Pbo,Placebo,Pbo,Placebo,Placebo,2014-01-02,2014-01-02T00:00:00Z,H,2014-07-02,2014-07-02T23:59:59Z,H,,182,2014-05-07,126,Week 16,,,,Height-for-age percentile,HGTPCTL,8,53.027075474293795,55.63226060346575,,,,,Y,Epoch,,31,HEIGHT,Height,,78.96,cm,78.96,78.96,cm,,,,10,WEEK 16,,2014-05-07,,,,,,491,DAYS,78.96,cm
86,CDISCPILOT01,01-701-1015,1015,701,USA,VS,2014-01-02,2014-07-02,2014-01-02,2014-07-02,2014-07-02T11:45,,,86,2013-01-02,2013-01-02,2013-12-26,-7,1,YEARS,F,WHITE,HISPANIC OR LATINO,Placebo,Pbo,Placebo,Pbo,Placebo,Placebo,2014-01-02,2014-01-02T00:00:00Z,H,2014-07-02,2014-07-02T23:59:59Z,H,,182,2014-05-21,140,Week 20,,,,Height-for-age percentile,HGTPCTL,8,63.5706678881792,55.63226060346575,,,,,Y,Epoch,,35,HEIGHT,Height,,80.22,cm,80.22,80.22,cm,,,,11,WEEK 20,,2014-05-21,,,,,,505,DAYS,80.22,cm
87,CDISCPILOT01,01-701-1015,1015,701,USA,VS,2014-01-02,2014-07-02,2014-01-02,2014-07-02,2014-07-02T11:45,,,87,2013-01-02,2013-01-02,2013-12-26,-7,1,YEARS,F,WHITE,HISPANIC OR LATINO,Placebo,Pbo,Placebo,Pbo,Placebo,Placebo,2014-01-02,2014-01-02T00:00:00Z,H,2014-07-02,2014-07-02T23:59:59Z,H,,182,2014-06-18,168,Week 24,,,,Height-for-age percentile,HGTPCTL,8,66.49237861070435,55.63226060346575,,,,,Y,Epoch,,39,HEIGHT,Height,,81.43,cm,81.43,81.43,cm,,,,12,WEEK 24,,2014-06-18,,,,,,533,DAYS,81.43,cm
88,CDISCPILOT01,01-701-1015,1015,701,USA,VS,2014-01-02,2014-07-02,2014-01-02,2014-07-02,2014-07-02T11:45,,,88,2013-01-02,2013-01-02,2013-12-26,-7,1,YEARS,F,WHITE,HISPANIC OR LATINO,Placebo,Pbo,Placebo,Pbo,Placebo,Placebo,2014-01-02,2014-01-02T00:00:00Z,H,2014-07-02,2014-07-02T23:59:59Z,H,,182,2014-07-02,182,Week 26,,,,Height-for-age percentile,HGTPCTL,8,67.92893106218881,55.63226060346575,,,,,Y,Epoch,,43,HEIGHT,Height,,82.03,cm,82.03,82.03,cm,,,,13,WEEK 26,,2014-07-02,,,,,,547,DAYS,82.03,cm
89,CDISCPILOT01,01-701-1015,1015,701,USA,VS,2014-01-02,2014-07-02,2014-01-02,2014-07-02,2014-07-02T11:45,,,89,2013-01-02,2013-01-02,2013-12-26,-7,1,YEARS,F,WHITE,HISPANIC OR LATINO,Placebo,Pbo,Placebo,Pbo,Placebo,Placebo,2014-01-02,2014-01-02T00:00:00Z,H,2014-07-02,2014-07-02T23:59:59Z,H,,182,2013-12-26,-7,Screening 1,-1,,,Height-for-age z-score,HGTSDS,7,0.1431356204777813,0.1416521304271336,,,,,,Epoch,,3,HEIGHT,Height,,74.13,cm,74.13,74.13,cm,,,,1,SCREENING 1,,2013-12-26,,,,,,359,DAYS,74.13,cm
90,CDISCPILOT01,01-701-1015,1015,701,USA,VS,2014-01-02,2014-07-02,2014-01-02,2014-07-02,2014-07-02T11:45,,,90,2013-01-02,2013-01-02,2013-12-26,-7,1,YEARS,F,WHITE,HISPANIC OR LATINO,Placebo,Pbo,Placebo,Pbo,Placebo,Placebo,2014-01-02,2014-01-02T00:00:00Z,H,2014-07-02,2014-07-02T23:59:59Z,H,,182,2014-01-02,1,Baseline,0,,,Height-for-age z-score,HGTSDS,7,0.1416521304271336,0.1416521304271336,,,Y,Y,,Epoch,,7,HEIGHT,Height,,74.41,cm,74.41,74.41,cm,,,,3,BASELINE,,2014-01-02,,,,,,366,DAYS,74.41,cm
91,CDISCPILOT01,01-701-1015,1015,701,USA,VS,2014-01-02,2014-07-02,2014-01-02,2014-07-02,2014-07-02T11:45,,,91,2013-01-02,2013-01-02,2013-12-26,-7,1,YEARS,F,WHITE,HISPANIC OR LATINO,Placebo,Pbo,Placebo,Pbo,Placebo,Placebo,2014-01-02,2014-01-02T00:00:00Z,H,2014-07-02,2014-07-02T23:59:59Z,H,,182,2014-01-16,15,Week 2,,,,Height-for-age z-score,HGTSDS,7,0.0412470818953269,0.1416521304271336,,,,,Y,Epoch,,11,HEIGHT,Height,,74.71,cm,74.71,74.71,cm,,,,4,WEEK 2,,2014-01-16,,,,,,380,DAYS,74.71,cm
92,CDISCPILOT01,01-701-1015,1015,701,USA,VS,2014-01-02,2014-07-02,2014-01-02,2014-07-02,2014-07-02T11:45,,,92,2013-01-02,2013-01-02,2013-12-26,-7,1,YEARS,F,WHITE,HISPANIC OR LATINO,Placebo,Pbo,Placebo,Pbo,Placebo,Placebo,2014-01-02,2014-01-02T00:00:00Z,H,2014-07-02,2014-07-02T23:59:59Z,H,,182,2014-01-30,29,Week 4,,,,Height-for-age z-score,HGTSDS,7,0.06400008759750309,0.1416521304271336,,,,,Y,Epoch,,15,HEIGHT,Height,,75.32,cm,75.32,75.32,cm,,,,5,WEEK 4,,2014-01-30,,,,,,394,DAYS,75.32,cm
93,CDISCPILOT01,01-701-1015,1015,701,USA,VS,2014-01-02,2014-07-02,2014-01-02,2014-07-02,2014-07-02T11:45,,,93,2013-01-02,2013-01-02,2013-12-26,-7,1,YEARS,F,WHITE,HISPANIC OR LATINO,Placebo,Pbo,Placebo,Pbo,Placebo,Placebo,2014-01-02,2014-01-02T00:00:00Z,H,2014-07-02,2014-07-02T23:59:59Z,H,,182,2014-02-12,42,Week 6,,,,Height-for-age z-score,HGTSDS,7,0.10391744473985558,0.1416521304271336,,,,,Y,Epoch,,19,HEIGHT,Height,,75.93,cm,75.93,75.93,cm,,,,7,WEEK 6,,2014-02-12,,,,,,407,DAYS,75.93,cm
94,CDISCPILOT01,01-701-1015,1015,701,USA,VS,2014-01-02,2014-07-02,2014-01-02,2014-07-02,2014-07-02T11:45,,,94,2013-01-02,2013-01-02,2013-12-26,-7,1,YEARS,F,WHITE,HISPANIC OR LATINO,Placebo,Pbo,Placebo,Pbo,Placebo,Placebo,2014-01-02,2014-01-02T00:00:00Z,H,2014-07-02,2014-07-02T23:59:59Z,H,,182,2014-03-05,63,Week 8,,,,Height-for-age z-score,HGTSDS,7,0.03266296926616147,0.1416521304271336,,,,,Y,Epoch,,23,HEIGHT,Height,,76.54,cm,76.54,76.54,cm,,,,8,WEEK 8,,2014-03-05,,,,,,428,DAYS,76.54,cm
95,CDISCPILOT01,01-701-1015,1015,701,USA,VS,2014-01-02,2014-07-02,2014-01-02,2014-07-02,2014-07-02T11:45,,,95,2013-01-02,2013-01-02,2013-12-26,-7,1,YEARS,F,WHITE,HISPANIC OR LATINO,Placebo,Pbo,Placebo,Pbo,Placebo,Placebo,2014-01-02,2014-01-02T00:00:00Z,H,2014-07-02,2014-07-02T23:59:59Z,H,,182,2014-03-26,84,Week 12,,,,Height-for-age z-score,HGTSDS,7,0.17879012799635421,0.1416521304271336,,,,,Y,Epoch,,27,HEIGHT,Height,,77.72,cm,77.72,77.72,cm,,,,9,WEEK 12,,2014-03-26,,,,,,449,DAYS,77.72,cm
96,CDISCPILOT01,01-701-1015,1015,701,USA,VS,2014-01-02,2014-07-02,2014-01-02,2014-07-02,2014-07-02T11:45,,,96,2013-01-02,2013-01-02,2013-12-26,-7,1,YEARS,F,WHITE,HISPANIC OR LATINO,Placebo,Pbo,Placebo,Pbo,Placebo,Placebo,2014-01-02,2014-01-02T00:00:00Z,H,2014-07-02,2014-07-02T23:59:59Z,H,,182,2014-05-07,126,Week 16,,,,Height-for-age z-score,HGTSDS,7,0.07595048635892691,0.1416521304271336,,,,,Y,Epoch,,31,HEIGHT,Height,,78.96,cm,78.96,78.96,cm,,,,10,WEEK 16,,2014-05-07,,,,,,491,DAYS,78.96,cm
97,CDISCPILOT01,01-701-1015,1015,701,USA,VS,2014-01-02,2014-07-02,2014-01-02,2014-07-02,2014-07-02T11:45,,,97,2013-01-02,2013-01-02,2013-12-26,-7,1,YEARS,F,WHITE,HISPANIC OR LATINO,Placebo,Pbo,Placebo,Pbo,Placebo,Placebo,2014-01-02,2014-01-02T00:00:00Z,H,2014-07-02,2014-07-02T23:59:59Z,H,,182,2014-05-21,140,Week 20,,,,Height-for-age z-score,HGTSDS,7,0.3470062248812712,0.1416521304271336,,,,,Y,Epoch,,35,HEIGHT,Height,,80.22,cm,80.22,80.22,cm,,,,11,WEEK 20,,2014-05-21,,,,,,505,DAYS,80.22,cm
98,CDISCPILOT01,01-701-1015,1015,701,USA,VS,2014-01-02,2014-07-02,2014-01-02,2014-07-02,2014-07-02T11:45,,,98,2013-01-02,2013-01-02,2013-12-26,-7,1,YEARS,F,WHITE,HISPANIC OR LATINO,Placebo,Pbo,Placebo,Pbo,Placebo,Placebo,2014-01-02,2014-01-02T00:00:00Z,H,2014-07-02,2014-07-02T23:59:59Z,H,,182,2014-06-18,168,Week 24,,,,Height-for-age z-score,HGTSDS,7,0.4259388187056221,0.1416521304271336,,,,,Y,Epoch,,39,HEIGHT,Height,,81.43,cm,81.43,81.43,cm,,,,12,WEEK 24,,2014-06-18,,,,,,533,DAYS,81.43,cm
99,CDISCPILOT01,01-701-1015,1015,701,USA,VS,2014-01-02,2014-07-02,2014-01-02,2014-07-02,2014-07-02T11:45,,,99,2013-01-02,2013-01-02,2013-12-26,-7,1,YEARS,F,WHITE,HISPANIC OR LATINO,Placebo,Pbo,Placebo,Pbo,Placebo,Placebo,2014-01-02,2014-01-02T00:00:00Z,H,2014-07-02,2014-07-02T23:59:59Z,H,,182,2014-07-02,182,Week 26,,,,Height-for-age z-score,HGTSDS,7,0.46571239526310737,0.1416521304271336,,,,,Y,Epoch,,43,HEIGHT,Height,,82.03,cm,82.03,82.03,cm,,,,13,WEEK 26,,2014-07-02,,,,,,547,DAYS,82.03,cm
100,CDISCPILOT01,01-701-1015,1015,701,USA,VS,2014-01-02,2014-07-02,2014-01-02,2014-07-02,2014-07-02T11:45,,,100,2013-01-02,2013-01-02,2013-12-26,-7,1,YEARS,F,WHITE,HISPANIC OR LATINO,Placebo,Pbo,Placebo,Pbo,Placebo,Placebo,2014-01-02,2014-01-02T00:00:00Z,H,2014-07-02,2014-07-02T23:59:59Z,H,,182,2013-12-26,-7,Screening 1,-1,,,Weight (kg),WEIGHT,1,9.11,9.2,,,,,,Epoch,,4,WEIGHT,Weight,,9.11,kg,9.11,9.11,kg,,,,1,SCREENING 1,,2013-12-26,,,,,,359,DAYS,74.13,cm
101,CDISCPILOT01,01-701-1015,1015,701,USA,VS,2014-01-02,2014-07-02,2014-01-02,2014-07-02,2014-07-02T11:45,,,101,2013-01-02,2013-01-02,2013-12-26,-7,1,YEARS,F,WHITE,HISPANIC OR LATINO,Placebo,Pbo,Placebo,Pbo,Placebo,Placebo,2014-01-02,2014-01-02T00:00:00Z,H,2014-07-02,2014-07-02T23:59:59Z,H,,182,2014-01-02,1,Baseline,0,,,Weight (kg),WEIGHT,1,9.2,9.2,,,Y,Y,,Epoch,,8,WEIGHT,Weight,,9.2,kg,9.2,9.2,kg,,,,3,BASELINE,,2014-01-02,,,,,,366,DAYS,74.41,cm
102,CDISCPILOT01,01-701-1015,1015,701,USA,VS,2014-01-02,2014-07-02,2014-01-02,2014-07-02,2014-07-02T11:45,,,102,2013-01-02,2013-01-02,2013-12-26,-7,1,YEARS,F,WHITE,HISPANIC OR LATINO,Placebo,Pbo,Placebo,Pbo,Placebo,Placebo,2014-01-02,2014-01-02T00:00:00Z,H,2014-07-02,2014-07-02T23:59:59Z,H,,182,2014-01-16,15,Week 2,,,,Weight (kg),WEIGHT,1,9.32,9.2,,,,,Y,Epoch,,12,WEIGHT,Weight,,9.32,kg,9.32,9.32,kg,,,,4,WEEK 2,,2014-01-16,,,,,,380,DAYS,74.71,cm
103,CDISCPILOT01,01-701-1015,1015,701,USA,VS,2014-01-02,2014-07-02,2014-01-02,2014-07-02,2014-07-02T11:45,,,103,2013-01-02,2013-01-02,2013-12-26,-7,1,YEARS,F,WHITE,HISPANIC OR LATINO,Placebo,Pbo,Placebo,Pbo,Placebo,Placebo,2014-01-02,2014-01-02T00:00:00Z,H,2014-07-02,2014-07-02T23:59:59Z,H,,182,2014-01-30,29,Week 4,,,,Weight (kg),WEIGHT,1,9.54,9.2,,,,,Y,Epoch,,16,WEIGHT,Weight,,9.54,kg,9.54,9.54,kg,,,,5,WEEK 4,,2014-01-30,,,,,,394,DAYS,75.32,cm
104,CDISCPILOT01,01-701-1015,1015,701,USA,VS,2014-01-02,2014-07-02,2014-01-02,2014-07-02,2014-07-02T11:45,,,104,2013-01-02,2013-01-02,2013-12-26,-7,1,YEARS,F,WHITE,HISPANIC OR LATINO,Placebo,Pbo,Placebo,Pbo,Placebo,Placebo,2014-01-02,2014-01-02T00:00:00Z,H,2014-07-02,2014-07-02T23:59:59Z,H,,182,2014-02-12,42,Week 6,,,,Weight (kg),WEIGHT,1,9.7,9.2,,,,,Y,Epoch,,20,WEIGHT,Weight,,9.7,kg,9.7,9.7,kg,,,,7,WEEK 6,,2014-02-12,,,,,,407,DAYS,75.93,cm
105,CDISCPILOT01,01-701-1015,1015,701,USA,VS,2014-01-02,2014-07-02,2014-01-02,2014-07-02,2014-07-02T11:45,,,105,2013-01-02,2013-01-02,2013-12-26,-7,1,YEARS,F,WHITE,HISPANIC OR LATINO,Placebo,Pbo,Placebo,Pbo,Placebo,Placebo,2014-01-02,2014-01-02T00:00:00Z,H,2014-07-02,2014-07-02T23:59:59Z,H,,182,2014-03-05,63,Week 8,,,,Weight (kg),WEIGHT,1,9.91,9.2,,,,,Y,Epoch,,24,WEIGHT,Weight,,9.91,kg,9.91,9.91,kg,,,,8,WEEK 8,,2014-03-05,,,,,,428,DAYS,76.54,cm
106,CDISCPILOT01,01-701-1015,1015,701,USA,VS,2014-01-02,2014-07-02,2014-01-02,2014-07-02,2014-07-02T11:45,,,106,2013-01-02,2013-01-02,2013-12-26,-7,1,YEARS,F,WHITE,HISPANIC OR LATINO,Placebo,Pbo,Placebo,Pbo,Placebo,Placebo,2014-01-02,2014-01-02T00:00:00Z,H,2014-07-02,2014-07-02T23:59:59Z,H,,182,2014-03-26,84,Week 12,,,,Weight (kg),WEIGHT,1,10.3,9.2,,,,,Y,Epoch,,28,WEIGHT,Weight,,10.3,kg,10.3,10.3,kg,,,,9,WEEK 12,,2014-03-26,,,,,,449,DAYS,77.72,cm
107,CDISCPILOT01,01-701-1015,1015,701,USA,VS,2014-01-02,2014-07-02,2014-01-02,2014-07-02,2014-07-02T11:45,,,107,2013-01-02,2013-01-02,2013-12-26,-7,1,YEARS,F,WHITE,HISPANIC OR LATINO,Placebo,Pbo,Placebo,Pbo,Placebo,Placebo,2014-01-02,2014-01-02T00:00:00Z,H,2014-07-02,2014-07-02T23:59:59Z,H,,182,2014-05-07,126,Week 16,,,,Weight (kg),WEIGHT,1,10.7,9.2,,,,,Y,Epoch,,32,WEIGHT,Weight,,10.7,kg,10.7,10.7,kg,,,,10,WEEK 16,,2014-05-07,,,,,,491,DAYS,78.96,cm
108,CDISCPILOT01,01-701-1015,1015,701,USA,VS,2014-01-02,2014-07-02,2014-01-02,2014-07-02,2014-07-02T11:45,,,108,2013-01-02,2013-01-02,2013-12-26,-7,1,YEARS,F,WHITE,HISPANIC OR LATINO,Placebo,Pbo,Placebo,Pbo,Placebo,Placebo,2014-01-02,2014-01-02T00:00:00Z,H,2014-07-02,2014-07-02T23:59:59Z,H,,182,2014-05-21,140,Week 20,,,,Weight (kg),WEIGHT,1,11.1,9.2,,,,,Y,Epoch,,36,WEIGHT,Weight,,11.1,kg,11.1,11.1,kg,,,,11,WEEK 20,,2014-05-21,,,,,,505,DAYS,80.22,cm
109,CDISCPILOT01,01-701-1015,1015,701,USA,VS,2014-01-02,2014-07-02,2014-01-02,2014-07-02,2014-07-02T11:45,,,109,2013-01-02,2013-01-02,2013-12-26,-7,1,YEARS,F,WHITE,HISPANIC OR LATINO,Placebo,Pbo,Placebo,Pbo,Placebo,Placebo,2014-01-02,2014-01-02T00:00:00Z,H,2014-07-02,2014-07-02T23:59:59Z,H,,182,2014-06-18,168,Week 24,,,,Weight (kg),WEIGHT,1,11.56,9.2,,,,,Y,Epoch,,40,WEIGHT,Weight,,11.56,kg,11.56,11.56,kg,,,,12,WEEK 24,,2014-06-18,,,,,,533,DAYS,81.43,cm
110,CDISCPILOT01,01-701-1015,1015,701,USA,VS,2014-01-02,2014-07-02,2014-01-02,2014-07-02,2014-07-02T11:45,,,110,2013-01-02,2013-01-02,2013-12-26,-7,1,YEARS,F,WHITE,HISPANIC OR LATINO,Placebo,Pbo,Placebo,Pbo,Placebo,Placebo,2014-01-02,2014-01-02T00:00:00Z,H,2014-07-02,2014-07-02T23:59:59Z,H,,182,2014-07-02,182,Week 26,,,,Weight (kg),WEIGHT,1,11.71,9.2,,,,,Y,Epoch,,44,WEIGHT,Weight,,11.71,kg,11.71,11.71,kg,,,,13,WEEK 26,,2014-07-02,,,,,,547,DAYS,82.03,cm
111,CDISCPILOT01,01-701-1015,1015,701,USA,VS,2014-01-02,2014-07-02,2014-01-02,2014-07-02,2014-07-02T11:45,,,111,2013-01-02,2013-01-02,2013-12-26,-7,1,YEARS,F,WHITE,HISPANIC OR LATINO,Placebo,Pbo,Placebo,Pbo,Placebo,Placebo,2014-01-02,2014-01-02T00:00:00Z,H,2014-07-02,2014-07-02T23:59:59Z,H,,182,2013-12-26,-7,Screening 1,-1,,,Weight-for-age percentile,WGTAPCTL,6,57.46283484411251,58.73298866431457,,,,,,Epoch,,4,WEIGHT,Weight,,9.11,kg,9.11,9.11,kg,,,,1,SCREENING 1,,2013-12-26,,,,,,359,DAYS,74.13,cm
112,CDISCPILOT01,01-701-1015,1015,701,USA,VS,2014-01-02,2014-07-02,2014-01-02,2014-07-02,2014-07-02T11:45,,,112,2013-01-02,2013-01-02,2013-12-26,-7,1,YEARS,F,WHITE,HISPANIC OR LATINO,Placebo,Pbo,Placebo,Pbo,Placebo,Placebo,2014-01-02,2014-01-02T00:00:00Z,H,2014-07-02,2014-07-02T23:59:59Z,H,,182,2014-01-02,1,Baseline,0,,,Weight-for-age percentile,WGTAPCTL,6,58.73298866431457,58.73298866431457,,,Y,Y,,Epoch,,8,WEIGHT,Weight,,9.2,kg,9.2,9.2,kg,,,,3,BASELINE,,2014-01-02,,,,,,366,DAYS,74.41,cm
113,CDISCPILOT01,01-701-1015,1015,701,USA,VS,2014-01-02,2014-07-02,2014-01-02,2014-07-02,2014-07-02T11:45,,,113,2013-01-02,2013-01-02,2013-12-26,-7,1,YEARS,F,WHITE,HISPANIC OR LATINO,Placebo,Pbo,Placebo,Pbo,Placebo,Placebo,2014-01-02,2014-01-02T00:00:00Z,H,2014-07-02,2014-07-02T23:59:59Z,H,,182,2014-01-16,15,Week 2,,,,Weight-for-age percentile,WGTAPCTL,6,59.21602350412603,58.73298866431457,,,,,Y,Epoch,,12,WEIGHT,Weight,,9.32,kg,9.32,9.32,kg,,,,4,WEEK 2,,2014-01-16,,,,,,380,DAYS,74.71,cm
114,CDISCPILOT01,01-701-1015,1015,701,USA,VS,2014-01-02,2014-07-02,2014-01-02,2014-07-02,2014-07-02T11:45,,,114,2013-01-02,2013-01-02,2013-12-26,-7,1,YEARS,F,WHITE,HISPANIC OR LATINO,Placebo,Pbo,Placebo,Pbo,Placebo,Placebo,2014-01-02,2014-01-02T00:00:00Z,H,2014-07-02,2014-07-02T23:59:59Z,H,,182,2014-01-30,29,Week 4,,,,Weight-for-age percentile,WGTAPCTL,6,62.984630403847916,58.73298866431457,,,,,Y,Epoch,,16,WEIGHT,Weight,,9.54,kg,9.54,9.54,kg,,,,5,WEEK 4,,2014-01-30,,,,,,394,DAYS,75.32,cm
115,CDISCPILOT01,01-701-1015,1015,701,USA,VS,2014-01-02,2014-07-02,2014-01-02,2014-07-02,2014-07-02T11:45,,,115,2013-01-02,2013-01-02,2013-12-26,-7,1,YEARS,F,WHITE,HISPANIC OR LATINO,Placebo,Pbo,Placebo,Pbo,Placebo,Placebo,2014-01-02,2014-01-02T00:00:00Z,H,2014-07-02,2014-07-02T23:59:59Z,H,,182,2014-02-12,42,Week 6,,,,Weight-for-age percentile,WGTAPCTL,6,64.93628116929335,58.73298866431457,,,,,Y,Epoch,,20,WEIGHT,Weight,,9.7,kg,9.7,9.7,kg,,,,7,WEEK 6,,2014-02-12,,,,,,407,DAYS,75.93,cm
116,CDISCPILOT01,01-701-1015,1015,701,USA,VS,2014-01-02,2014-07-02,2014-01-02,2014-07-02,2014-07-02T11:45,,,116,2013-01-02,2013-01-02,2013-12-26,-7,1,YEARS,F,WHITE,HISPANIC OR LATINO,Placebo,Pbo,Placebo,Pbo,Placebo,Placebo,2014-01-02,2014-01-02T00:00:00Z,H,2014-07-02,2014-07-02T23:59:59Z,H,,182,2014-03-05,63,Week 8,,,,Weight-for-age percentile,WGTAPCTL,6,66.53121387971655,58.73298866431457,,,,,Y,Epoch,,24,WEIGHT,Weight,,9.91,kg,9.91,9.91,kg,,,,8,WEEK 8,,2014-03-05,,,,,,428,DAYS,76.54,cm
117,CDISCPILOT01,01-701-1015,1015,701,USA,VS,2014-01-02,2014-07-02,2014-01-02,2014-07-02,2014-07-02T11:45,,,117,2013-01-02,2013-01-02,2013-12-26,-7,1,YEARS,F,WHITE,HISPANIC OR LATINO,Placebo,Pbo,Placebo,Pbo,Placebo,Placebo,2014-01-02,2014-01-02T00:00:00Z,H,2014-07-02,2014-07-02T23:59:59Z,H,,182,2014-03-26,84,Week 12,,,,Weight-for-age percentile,WGTAPCTL,6,72.94212084289,58.73298866431457,,,,,Y,Epoch,,28,WEIGHT,Weight,,10.3,kg,10.3,10.3,kg,,,,9,WEEK 12,,2014-03-26,,,,,,449,DAYS,77.72,cm
118,CDISCPILOT01,01-701-1015,1015,701,USA,VS,2014-01-02,2014-07-02,2014-01-02,2014-07-02,2014-07-02T11:45,,,118,2013-01-02,2013-01-02,2013-12-26,-7,1,YEARS,F,WHITE,HISPANIC OR LATINO,Placebo,Pbo,Placebo,Pbo,Placebo,Placebo,2014-01-02,2014-01-02T00:00:00Z,H,2014-07-02,2014-07-02T23:59:59Z,H,,182,2014-05-07,126,Week 16,,,,Weight-for-age percentile,WGTAPCTL,6,74.98129764516868,58.73298866431457,,,,,Y,Epoch,,32,WEIGHT,Weight,,10.7,kg,10.7,10.7,kg,,,,10,WEEK 16,,2014-05-07,,,,,,491,DAYS,78.96,cm
119,CDISCPILOT01,01-701-1015,1015,701,USA,VS,2014-01-02,2014-07-02,2014-01-02,2014-07-02,2014-07-02T11:45,,,119,2013-01-02,2013-01-02,2013-12-26,-7,1,YEARS,F,WHITE,HISPANIC OR LATINO,Placebo,Pbo,Placebo,Pbo,Placebo,Placebo,2014-01-02,2014-01-02T00:00:00Z,H,2014-07-02,2014-07-02T23:59:59Z,H,,182,2014-05-21,140,Week 20,,,,Weight-for-age percentile,WGTAPCTL,6,81.25226105209573,58.73298866431457,,,,,Y,Epoch,,36,WEIGHT,Weight,,11.1,kg,11.1,11.1,kg,,,,11,WEEK 20,,2014-05-21,,,,,,505,DAYS,80.22,cm
120,CDISCPILOT01,01-701-1015,1015,701,USA,VS,2014-01-02,2014-07-02,2014-01-02,2014-07-02,2014-07-02T11:45,,,120,2013-01-02,2013-01-02,2013-12-26,-7,1,YEARS,F,WHITE,HISPANIC OR LATINO,Placebo,Pbo,Placebo,Pbo,Placebo,Placebo,2014-01-02,2014-01-02T00:00:00Z,H,2014-07-02,2014-07-02T23:59:59Z,H,,182,2014-06-18,168,Week 24,,,,Weight-for-age percentile,WGTAPCTL,6,85.43001528727724,58.73298866431457,,,,,Y,Epoch,,40,WEIGHT,Weight,,11.56,kg,11.56,11.56,kg,,,,12,WEEK 24,,2014-06-18,,,,,,533,DAYS,81.43,cm
121,CDISCPILOT01,01-701-1015,1015,701,USA,VS,2014-01-02,2014-07-02,2014-01-02,2014-07-02,2014-07-02T11:45,,,121,2013-01-02,2013-01-02,2013-12-26,-7,1,YEARS,F,WHITE,HISPANIC OR LATINO,Placebo,Pbo,Placebo,Pbo,Placebo,Placebo,2014-01-02,2014-01-02T00:00:00Z,H,2014-07-02,2014-07-02T23:59:59Z,H,,182,2014-07-02,182,Week 26,,,,Weight-for-age percentile,WGTAPCTL,6,86.03425315277478,58.73298866431457,,,,,Y,Epoch,,44,WEIGHT,Weight,,11.71,kg,11.71,11.71,kg,,,,13,WEEK 26,,2014-07-02,,,,,,547,DAYS,82.03,cm
122,CDISCPILOT01,01-701-1015,1015,701,USA,VS,2014-01-02,2014-07-02,2014-01-02,2014-07-02,2014-07-02T11:45,,,122,2013-01-02,2013-01-02,2013-12-26,-7,1,YEARS,F,WHITE,HISPANIC OR LATINO,Placebo,Pbo,Placebo,Pbo,Placebo,Placebo,2014-01-02,2014-01-02T00:00:00Z,H,2014-07-02,2014-07-02T23:59:59Z,H,,182,2013-12-26,-7,Screening 1,-1,,,Weight-for-age z-score,WGTASDS,5,0.18817010945266122,0.22068177031775862,,,,,,Epoch,,4,WEIGHT,Weight,,9.11,kg,9.11,9.11,kg,,,,1,SCREENING 1,,2013-12-26,,,,,,359,DAYS,74.13,cm
123,CDISCPILOT01,01-701-1015,1015,701,USA,VS,2014-01-02,2014-07-02,2014-01-02,2014-07-02,2014-07-02T11:45,,,123,2013-01-02,2013-01-02,2013-12-26,-7,1,YEARS,F,WHITE,HISPANIC OR LATINO,Placebo,Pbo,Placebo,Pbo,Placebo,Placebo,2014-01-02,2014-01-02T00:00:00Z,H,2014-07-02,2014-07-02T23:59:59Z,H,,182,2014-01-02,1,Baseline,0,,,Weight-for-age z-score,WGTASDS,5,0.22068177031775862,0.22068177031775862,,,Y,Y,,Epoch,,8,WEIGHT,Weight,,9.2,kg,9.2,9.2,kg,,,,3,BASELINE,,2014-01-02,,,,,,366,DAYS,74.41,cm
124,CDISCPILOT01,01-701-1015,1015,701,USA,VS,2014-01-02,2014-07-02,2014-01-02,2014-07-02,2014-07-02T11:45,,,124,2013-01-02,2013-01-02,2013-12-26,-7,1,YEARS,F,WHITE,HISPANIC OR LATINO,Placebo,Pbo,Placebo,Pbo,Placebo,Placebo,2014-01-02,2014-01-02T00:00:00Z,H,2014-07-02,2014-07-02T23:59:59Z,H,,182,2014-01-16,15,Week 2,,,,Weight-for-age z-score,WGTASDS,5,0.23310544107051015,0.22068177031775862,,,,,Y,Epoch,,12,WEIGHT,Weight,,9.32,kg,9.32,9.32,kg,,,,4,WEEK 2,,2014-01-16,,,,,,380,DAYS,74.71,cm
125,CDISCPILOT01,01-701-1015,1015,701,USA,VS,2014-01-02,2014-07-02,2014-01-02,2014-07-02,2014-07-02T11:45,,,125,2013-01-02,2013-01-02,2013-12-26,-7,1,YEARS,F,WHITE,HISPANIC OR LATINO,Placebo,Pbo,Placebo,Pbo,Placebo,Placebo,2014-01-02,2014-01-02T00:00:00Z,H,2014-07-02,2014-07-02T23:59:59Z,H,,182,2014-01-30,29,Week 4,,,,Weight-for-age z-score,WGTASDS,5,0.3314463067390445,0.22068177031775862,,,,,Y,Epoch,,16,WEIGHT,Weight,,9.54,kg,9.54,9.54,kg,,,,5,WEEK 4,,2014-01-30,,,,,,394,DAYS,75.32,cm
126,CDISCPILOT01,01-701-1015,1015,701,USA,VS,2014-01-02,2014-07-02,2014-01-02,2014-07-02,2014-07-02T11:45,,,126,2013-01-02,2013-01-02,2013-12-26,-7,1,YEARS,F,WHITE,HISPANIC OR LATINO,Placebo,Pbo,Placebo,Pbo,Placebo,Placebo,2014-01-02,2014-01-02T00:00:00Z,H,2014-07-02,2014-07-02T23:59:59Z,H,,182,2014-02-12,42,Week 6,,,,Weight-for-age z-score,WGTASDS,5,0.383600760025477,0.22068177031775862,,,,,Y,Epoch,,20,WEIGHT,Weight,,9.7,kg,9.7,9.7,kg,,,,7,WEEK 6,,2014-02-12,,,,,,407,DAYS,75.93,cm
127,CDISCPILOT01,01-701-1015,1015,701,USA,VS,2014-01-02,2014-07-02,2014-01-02,2014-07-02,2014-07-02T11:45,,,127,2013-01-02,2013-01-02,2013-12-26,-7,1,YEARS,F,WHITE,HISPANIC OR LATINO,Placebo,Pbo,Placebo,Pbo,Placebo,Placebo,2014-01-02,2014-01-02T00:00:00Z,H,2014-07-02,2014-07-02T23:59:59Z,H,,182,2014-03-05,63,Week 8,,,,Weight-for-age z-score,WGTASDS,5,0.4270049498563812,0.22068177031775862,,,,,Y,Epoch,,24,WEIGHT,Weight,,9.91,kg,9.91,9.91,kg,,,,8,WEEK 8,,2014-03-05,,,,,,428,DAYS,76.54,cm
128,CDISCPILOT01,01-701-1015,1015,701,USA,VS,2014-01-02,2014-07-02,2014-01-02,2014-07-02,2014-07-02T11:45,,,128,2013-01-02,2013-01-02,2013-12-26,-7,1,YEARS,F,WHITE,HISPANIC OR LATINO,Placebo,Pbo,Placebo,Pbo,Placebo,Placebo,2014-01-02,2014-01-02T00:00:00Z,H,2014-07-02,2014-07-02T23:59:59Z,H,,182,2014-03-26,84,Week 12,,,,Weight-for-age z-score,WGTASDS,5,0.611063438666424,0.22068177031775862,,,,,Y,Epoch,,28,WEIGHT,Weight,,10.3,kg,10.3,10.3,kg,,,,9,WEEK 12,,2014-03-26,,,,,,449,DAYS,77.72,cm
129,CDISCPILOT01,01-701-1015,1015,701,USA,VS,2014-01-02,2014-07-02,2014-01-02,2014-07-02,2014-07-02T11:45,,,129,2013-01-02,2013-01-02,2013-12-26,-7,1,YEARS,F,WHITE,HISPANIC OR LATINO,Placebo,Pbo,Placebo,Pbo,Placebo,Placebo,2014-01-02,2014-01-02T00:00:00Z,H,2014-07-02,2014-07-02T23:59:59Z,H,,182,2014-05-07,126,Week 16,,,,Weight-for-age z-score,WGTASDS,5,0.6739013290716057,0.22068177031775862,,,,,Y,Epoch,,32,WEIGHT,Weight,,10.7,kg,10.7,10.7,kg,,,,10,WEEK 16,,2014-05-07,,,,,,491,DAYS,78.96,cm
130,CDISCPILOT01,01-701-1015,1015,701,USA,VS,2014-01-02,2014-07-02,2014-01-02,2014-07-02,2014-07-02T11:45,,,130,2013-01-02,2013-01-02,2013-12-26,-7,1,YEARS,F,WHITE,HISPANIC OR LATINO,Placebo,Pbo,Placebo,Pbo,Placebo,Placebo,2014-01-02,2014-01-02T00:00:00Z,H,2014-07-02,2014-07-02T23:59:59Z,H,,182,2014-05-21,140,Week 20,,,,Weight-for-age z-score,WGTASDS,5,0.8872305664812972,0.22068177031775862,,,,,Y,Epoch,,36,WEIGHT,Weight,,11.1,kg,11.1,11.1,kg,,,,11,WEEK 20,,2014-05-21,,,,,,505,DAYS,80.22,cm
131,CDISCPILOT01,01-701-1015,1015,701,USA,VS,2014-01-02,2014-07-02,2014-01-02,2014-07-02,2014-07-02T11:45,,,131,2013-01-02,2013-01-02,2013-12-26,-7,1,YEARS,F,WHITE,HISPANIC OR LATINO,Placebo,Pbo,Placebo,Pbo,Placebo,Placebo,2014-01-02,2014-01-02T00:00:00Z,H,2014-07-02,2014-07-02T23:59:59Z,H,,182,2014-06-18,168,Week 24,,,,Weight-for-age z-score,WGTASDS,5,1.0550560428241744,0.22068177031775862,,,,,Y,Epoch,,40,WEIGHT,Weight,,11.56,kg,11.56,11.56,kg,,,,12,WEEK 24,,2014-06-18,,,,,,533,DAYS,81.43,cm
132,CDISCPILOT01,01-701-1015,1015,701,USA,VS,2014-01-02,2014-07-02,2014-01-02,2014-07-02,2014-07-02T11:45,,,132,2013-01-02,2013-01-02,2013-12-26,-7,1,YEARS,F,WHITE,HISPANIC OR LATINO,Placebo,Pbo,Placebo,Pbo,Placebo,Placebo,2014-01-02,2014-01-02T00:00:00Z,H,2014-07-02,2014-07-02T23:59:59Z,H,,182,2014-07-02,182,Week 26,,,,Weight-for-age z-score,WGTASDS,5,1.081859559088154,0.22068177031775862,,,,,Y,Epoch,,44,WEIGHT,Weight,,11.71,kg,11.71,11.71,kg,,,,13,WEEK 26,,2014-07-02,,,,,,547,DAYS,82.03,cm
133,CDISCPILOT01,01-701-1015,1015,701,USA,VS,2014-01-02,2014-07-02,2014-01-02,2014-07-02,2014-07-02T11:45,,,133,2013-01-02,2013-01-02,2013-12-26,-7,1,YEARS,F,WHITE,HISPANIC OR LATINO,Placebo,Pbo,Placebo,Pbo,Placebo,Placebo,2014-01-02,2014-01-02T00:00:00Z,H,2014-07-02,2014-07-02T23:59:59Z,H,,182,2013-12-26,-7,Screening 1,-1,,,Weight-for-length/height Percentile,WGTHPCTL,14,56.35363587829227,57.86784672017998,,,,,,Epoch,,4,WEIGHT,Weight,,9.11,kg,9.11,9.11,kg,,,,1,SCREENING 1,,2013-12-26,,,,,,359,DAYS,74.13,cm
134,CDISCPILOT01,01-701-1015,1015,701,USA,VS,2014-01-02,2014-07-02,2014-01-02,2014-07-02,2014-07-02T11:45,,,134,2013-01-02,2013-01-02,2013-12-26,-7,1,YEARS,F,WHITE,HISPANIC OR LATINO,Placebo,Pbo,Placebo,Pbo,Placebo,Placebo,2014-01-02,2014-01-02T00:00:00Z,H,2014-07-02,2014-07-02T23:59:59Z,H,,182,2014-01-02,1,Baseline,0,,,Weight-for-length/height Percentile,WGTHPCTL,14,57.86784672017998,57.86784672017998,,,Y,Y,,Epoch,,8,WEIGHT,Weight,,9.2,kg,9.2,9.2,kg,,,,3,BASELINE,,2014-01-02,,,,,,366,DAYS,74.41,cm
135,CDISCPILOT01,01-701-1015,1015,701,USA,VS,2014-01-02,2014-07-02,2014-01-02,2014-07-02,2014-07-02T11:45,,,135,2013-01-02,2013-01-02,2013-12-26,-7,1,YEARS,F,WHITE,HISPANIC OR LATINO,Placebo,Pbo,Placebo,Pbo,Placebo,Placebo,2014-01-02,2014-01-02T00:00:00Z,H,2014-07-02,2014-07-02T23:59:59Z,H,,182,2014-01-16,15,Week 2,,,,Weight-for-length/height Percentile,WGTHPCTL,14,60.74402879661972,57.86784672017998,,,,,Y,Epoch,,12,WEIGHT,Weight,,9.32,kg,9.32,9.32,kg,,,,4,WEEK 2,,2014-01-16,,,,,,380,DAYS,74.71,cm
136,CDISCPILOT01,01-701-1015,1015,701,USA,VS,2014-01-02,2014-07-02,2014-01-02,2014-07-02,2014-07-02T11:45,,,136,2013-01-02,2013-01-02,2013-12-26,-7,1,YEARS,F,WHITE,HISPANIC OR LATINO,Placebo,Pbo,Placebo,Pbo,Placebo,Placebo,2014-01-02,2014-01-02T00:00:00Z,H,2014-07-02,2014-07-02T23:59:59Z,H,,182,2014-01-30,29,Week 4,,,,Weight-for-length/height Percentile,WGTHPCTL,14,65.34570866372474,57.86784672017998,,,,,Y,Epoch,,16,WEIGHT,Weight,,9.54,kg,9.54,9.54,kg,,,,5,WEEK 4,,2014-01-30,,,,,,394,DAYS,75.32,cm
137,CDISCPILOT01,01-701-1015,1015,701,USA,VS,2014-01-02,2014-07-02,2014-01-02,2014-07-02,2014-07-02T11:45,,,137,2013-01-02,2013-01-02,2013-12-26,-7,1,YEARS,F,WHITE,HISPANIC OR LATINO,Placebo,Pbo,Placebo,Pbo,Placebo,Placebo,2014-01-02,2014-01-02T00:00:00Z,H,2014-07-02,2014-07-02T23:59:59Z,H,,182,2014-02-12,42,Week 6,,,,Weight-for-length/height Percentile,WGTHPCTL,14,67.23463083878704,57.86784672017998,,,,,Y,Epoch,,20,WEIGHT,Weight,,9.7,kg,9.7,9.7,kg,,,,7,WEEK 6,,2014-02-12,,,,,,407,DAYS,75.93,cm
138,CDISCPILOT01,01-701-1015,1015,701,USA,VS,2014-01-02,2014-07-02,2014-01-02,2014-07-02,2014-07-02T11:45,,,138,2013-01-02,2013-01-02,2013-12-26,-7,1,YEARS,F,WHITE,HISPANIC OR LATINO,Placebo,Pbo,Placebo,Pbo,Placebo,Placebo,2014-01-02,2014-01-02T00:00:00Z,H,2014-07-02,2014-07-02T23:59:59Z,H,,182,2014-03-05,63,Week 8,,,,Weight-for-length/height Percentile,WGTHPCTL,14,70.98350427360145,57.86784672017998,,,,,Y,Epoch,,24,WEIGHT,Weight,,9.91,kg,9.91,9.91,kg,,,,8,WEEK 8,,2014-03-05,,,,,,428,DAYS,76.54,cm
139,CDISCPILOT01,01-701-1015,1015,701,USA,VS,2014-01-02,2014-07-02,2014-01-02,2014-07-02,2014-07-02T11:45,,,139,2013-01-02,2013-01-02,2013-12-26,-7,1,YEARS,F,WHITE,HISPANIC OR LATINO,Placebo,Pbo,Placebo,Pbo,Placebo,Placebo,2014-01-02,2014-01-02T00:00:00Z,H,2014-07-02,2014-07-02T23:59:59Z,H,,182,2014-03-26,84,Week 12,,,,Weight-for-length/height Percentile,WGTHPCTL,14,76.50821617641789,57.86784672017998,,,,,Y,Epoch,,28,WEIGHT,Weight,,10.3,kg,10.3,10.3,kg,,,,9,WEEK 12,,2014-03-26,,,,,,449,DAYS,77.72,cm
140,CDISCPILOT01,01-701-1015,1015,701,USA,VS,2014-01-02,2014-07-02,2014-01-02,2014-07-02,2014-07-02T11:45,,,140,2013-01-02,2013-01-02,2013-12-26,-7,1,YEARS,F,WHITE,HISPANIC OR LATINO,Placebo,Pbo,Placebo,Pbo,Placebo,Placebo,2014-01-02,2014-01-02T00:00:00Z,H,2014-07-02,2014-07-02T23:59:59Z,H,,182,2014-05-07,126,Week 16,,,,Weight-for-length/height Percentile,WGTHPCTL,14,80.63637406571561,57.86784672017998,,,,,Y,Epoch,,32,WEIGHT,Weight,,10.7,kg,10.7,10.7,kg,,,,10,WEEK 16,,2014-05-07,,,,,,491,DAYS,78.96,cm
141,CDISCPILOT01,01-701-1015,1015,701,USA,VS,2014-01-02,2014-07-02,2014-01-02,2014-07-02,2014-07-02T11:45,,,141,2013-01-02,2013-01-02,2013-12-26,-7,1,YEARS,F,WHITE,HISPANIC OR LATINO,Placebo,Pbo,Placebo,Pbo,Placebo,Placebo,2014-01-02,2014-01-02T00:00:00Z,H,2014-07-02,2014-07-02T23:59:59Z,H,,182,2014-05-21,140,Week 20,,,,Weight-for-length/height Percentile,WGTHPCTL,14,84.27185252800501,57.86784672017998,,,,,Y,Epoch,,36,WEIGHT,Weight,,11.1,kg,11.1,11.1,kg,,,,11,WEEK 20,,2014-05-21,,,,,,505,DAYS,80.22,cm
142,CDISCPILOT01,01-701-1015,1015,701,USA,VS,2014-01-02,2014-07-02,2014-01-02,2014-07-02,2014-07-02T11:45,,,142,2013-01-02,2013-01-02,2013-12-26,-7,1,YEARS,F,WHITE,HISPANIC OR LATINO,Placebo,Pbo,Placebo,Pbo,Placebo,Placebo,2014-01-02,2014-01-02T00:00:00Z,H,2014-07-02,2014-07-02T23:59:59Z,H,,182,2014-06-18,168,Week 24,,,,Weight-for-length/height Percentile,WGTHPCTL,14,88.08960648950796,57.86784672017998,,,,,Y,Epoch,,40,WEIGHT,Weight,,11.56,kg,11.56,11.56,kg,,,,12,WEEK 24,,2014-06-18,,,,,,533,DAYS,81.43,cm
143,CDISCPILOT01,01-701-1015,1015,701,USA,VS,2014-01-02,2014-07-02,2014-01-02,2014-07-02,2014-07-02T11:45,,,143,2013-01-02,2013-01-02,2013-12-26,-7,1,YEARS,F,WHITE,HISPANIC OR LATINO,Placebo,Pbo,Placebo,Pbo,Placebo,Placebo,2014-01-02,2014-01-02T00:00:00Z,H,2014-07-02,2014-07-02T23:59:59Z,H,,182,2014-07-02,182,Week 26,,,,Weight-for-length/height Percentile,WGTHPCTL,14,88.16873323051831,57.86784672017998,,,,,Y,Epoch,,44,WEIGHT,Weight,,11.71,kg,11.71,11.71,kg,,,,13,WEEK 26,,2014-07-02,,,,,,547,DAYS,82.03,cm
144,CDISCPILOT01,01-701-1015,1015,701,USA,VS,2014-01-02,2014-07-02,2014-01-02,2014-07-02,2014-07-02T11:45,,,144,2013-01-02,2013-01-02,2013-12-26,-7,1,YEARS,F,WHITE,HISPANIC OR LATINO,Placebo,Pbo,Placebo,Pbo,Placebo,Placebo,2014-01-02,2014-01-02T00:00:00Z,H,2014-07-02,2014-07-02T23:59:59Z,H,,182,2013-12-26,-7,Screening 1,-1,,,Weight-for-length/height Z-Score,WGTHSDS,13,0.15994134080734476,0.1985138296099504,,,,,,Epoch,,4,WEIGHT,Weight,,9.11,kg,9.11,9.11,kg,,,,1,SCREENING 1,,2013-12-26,,,,,,359,DAYS,74.13,cm
145,CDISCPILOT01,01-701-1015,1015,701,USA,VS,2014-01-02,2014-07-02,2014-01-02,2014-07-02,2014-07-02T11:45,,,145,2013-01-02,2013-01-02,2013-12-26,-7,1,YEARS,F,WHITE,HISPANIC OR LATINO,Placebo,Pbo,Placebo,Pbo,Placebo,Placebo,2014-01-02,2014-01-02T00:00:00Z,H,2014-07-02,2014-07-02T23:59:59Z,H,,182,2014-01-02,1,Baseline,0,,,Weight-for-length/height Z-Score,WGTHSDS,13,0.1985138296099504,0.1985138296099504,,,Y,Y,,Epoch,,8,WEIGHT,Weight,,9.2,kg,9.2,9.2,kg,,,,3,BASELINE,,2014-01-02,,,,,,366,DAYS,74.41,cm
146,CDISCPILOT01,01-701-1015,1015,701,USA,VS,2014-01-02,2014-07-02,2014-01-02,2014-07-02,2014-07-02T11:45,,,146,2013-01-02,2013-01-02,2013-12-26,-7,1,YEARS,F,WHITE,HISPANIC OR LATINO,Placebo,Pbo,Placebo,Pbo,Placebo,Placebo,2014-01-02,2014-01-02T00:00:00Z,H,2014-07-02,2014-07-02T23:59:59Z,H,,182,2014-01-16,15,Week 2,,,,Weight-for-length/height Z-Score,WGTHSDS,13,0.27265370589941496,0.1985138296099504,,,,,Y,Epoch,,12,WEIGHT,Weight,,9.32,kg,9.32,9.32,kg,,,,4,WEEK 2,,2014-01-16,,,,,,380,DAYS,74.71,cm
147,CDISCPILOT01,01-701-1015,1015,701,USA,VS,2014-01-02,2014-07-02,2014-01-02,2014-07-02,2014-07-02T11:45,,,147,2013-01-02,2013-01-02,2013-12-26,-7,1,YEARS,F,WHITE,HISPANIC OR LATINO,Placebo,Pbo,Placebo,Pbo,Placebo,Placebo,2014-01-02,2014-01-02T00:00:00Z,H,2014-07-02,2014-07-02T23:59:59Z,H,,182,2014-01-30,29,Week 4,,,,Weight-for-length/height Z-Score,WGTHSDS,13,0.3946708385938694,0.1985138296099504,,,,,Y,Epoch,,16,WEIGHT,Weight,,9.54,kg,9.54,9.54,kg,,,,5,WEEK 4,,2014-01-30,,,,,,394,DAYS,75.32,cm
148,CDISCPILOT01,01-701-1015,1015,701,USA,VS,2014-01-02,2014-07-02,2014-01-02,2014-07-02,2014-07-02T11:45,,,148,2013-01-02,2013-01-02,2013-12-26,-7,1,YEARS,F,WHITE,HISPANIC OR LATINO,Placebo,Pbo,Placebo,Pbo,Placebo,Placebo,2014-01-02,2014-01-02T00:00:00Z,H,2014-07-02,2014-07-02T23:59:59Z,H,,182,2014-02-12,42,Week 6,,,,Weight-for-length/height Z-Score,WGTHSDS,13,0.446401314833713,0.1985138296099504,,,,,Y,Epoch,,20,WEIGHT,Weight,,9.7,kg,9.7,9.7,kg,,,,7,WEEK 6,,2014-02-12,,,,,,407,DAYS,75.93,cm
149,CDISCPILOT01,01-701-1015,1015,701,USA,VS,2014-01-02,2014-07-02,2014-01-02,2014-07-02,2014-07-02T11:45,,,149,2013-01-02,2013-01-02,2013-12-26,-7,1,YEARS,F,WHITE,HISPANIC OR LATINO,Placebo,Pbo,Placebo,Pbo,Placebo,Placebo,2014-01-02,2014-01-02T00:00:00Z,H,2014-07-02,2014-07-02T23:59:59Z,H,,182,2014-03-05,63,Week 8,,,,Weight-for-length/height Z-Score,WGTHSDS,13,0.5529028810506781,0.1985138296099504,,,,,Y,Epoch,,24,WEIGHT,Weight,,9.91,kg,9.91,9.91,kg,,,,8,WEEK 8,,2014-03-05,,,,,,428,DAYS,76.54,cm
150,CDISCPILOT01,01-701-1015,1015,701,USA,VS,2014-01-02,2014-07-02,2014-01-02,2014-07-02,2014-07-02T11:45,,,150,2013-01-02,2013-01-02,2013-12-26,-7,1,YEARS,F,WHITE,HISPANIC OR LATINO,Placebo,Pbo,Placebo,Pbo,Placebo,Placebo,2014-01-02,2014-01-02T00:00:00Z,H,2014-07-02,2014-07-02T23:59:59Z,H,,182,2014-03-26,84,Week 12,,,,Weight-for-length/height Z-Score,WGTHSDS,13,0.7227464432375201,0.1985138296099504,,,,,Y,Epoch,,28,WEIGHT,Weight,,10.3,kg,10.3,10.3,kg,,,,9,WEEK 12,,2014-03-26,,,,,,449,DAYS,77.72,cm
151,CDISCPILOT01,01-701-1015,1015,701,USA,VS,2014-01-02,2014-07-02,2014-01-02,2014-07-02,2014-07-02T11:45,,,151,2013-01-02,2013-01-02,2013-12-26,-7,1,YEARS,F,WHITE,HISPANIC OR LATINO,Placebo,Pbo,Placebo,Pbo,Placebo,Placebo,2014-01-02,2014-01-02T00:00:00Z,H,2014-07-02,2014-07-02T23:59:59Z,H,,182,2014-05-07,126,Week 16,,,,Weight-for-length/height Z-Score,WGTHSDS,13,0.8645742357012343,0.1985138296099504,,,,,Y,Epoch,,32,WEIGHT,Weight,,10.7,kg,10.7,10.7,kg,,,,10,WEEK 16,,2014-05-07,,,,,,491,DAYS,78.96,cm
152,CDISCPILOT01,01-701-1015,1015,701,USA,VS,2014-01-02,2014-07-02,2014-01-02,2014-07-02,2014-07-02T11:45,,,152,2013-01-02,2013-01-02,2013-12-26,-7,1,YEARS,F,WHITE,HISPANIC OR LATINO,Placebo,Pbo,Placebo,Pbo,Placebo,Placebo,2014-01-02,2014-01-02T00:00:00Z,H,2014-07-02,2014-07-02T23:59:59Z,H,,182,2014-05-21,140,Week 20,,,,Weight-for-length/height Z-Score,WGTHSDS,13,1.0056936692684302,0.1985138296099504,,,,,Y,Epoch,,36,WEIGHT,Weight,,11.1,kg,11.1,11.1,kg,,,,11,WEEK 20,,2014-05-21,,,,,,505,DAYS,80.22,cm
153,CDISCPILOT01,01-701-1015,1015,701,USA,VS,2014-01-02,2014-07-02,2014-01-02,2014-07-02,2014-07-02T11:45,,,153,2013-01-02,2013-01-02,2013-12-26,-7,1,YEARS,F,WHITE,HISPANIC OR LATINO,Placebo,Pbo,Placebo,Pbo,Placebo,Placebo,2014-01-02,2014-01-02T00:00:00Z,H,2014-07-02,2014-07-02T23:59:59Z,H,,182,2014-06-18,168,Week 24,,,,Weight-for-length/height Z-Score,WGTHSDS,13,1.179478054631034,0.1985138296099504,,,,,Y,Epoch,,40,WEIGHT,Weight,,11.56,kg,11.56,11.56,kg,,,,12,WEEK 24,,2014-06-18,,,,,,533,DAYS,81.43,cm
154,CDISCPILOT01,01-701-1015,1015,701,USA,VS,2014-01-02,2014-07-02,2014-01-02,2014-07-02,2014-07-02T11:45,,,154,2013-01-02,2013-01-02,2013-12-26,-7,1,YEARS,F,WHITE,HISPANIC OR LATINO,Placebo,Pbo,Placebo,Pbo,Placebo,Placebo,2014-01-02,2014-01-02T00:00:00Z,H,2014-07-02,2014-07-02T23:59:59Z,H,,182,2014-07-02,182,Week 26,,,,Weight-for-length/height Z-Score,WGTHSDS,13,1.1834639254749793,0.1985138296099504,,,,,Y,Epoch,,44,WEIGHT,Weight,,11.71,kg,11.71,11.71,kg,,,,13,WEEK 26,,2014-07-02,,,,,,547,DAYS,82.03,cm
155,CDISCPILOT01,01-701-1023,1023,701,USA,VS,2012-08-05,2012-09-02,2012-08-05,2012-09-01,2013-02-18,,,1,2010-08-05,2010-08-05,2012-07-22,-14,2,YEARS,M,WHITE,HISPANIC OR LATINO,Placebo,Pbo,Placebo,Pbo,Placebo,Placebo,2012-08-05,2012-08-05T00:00:00Z,H,2012-09-01,2012-09-01T23:59:59Z,H,,28,2012-07-22,-14,Screening 1,-1,,,Body Mass Index(kg/m^2),BMI,3,16.231647873468642,16.55097143866013,,,,,,Epoch,,45,BMI,BMI,,16.2316478734686,kg/m2,16.2316478734686,16.231647873468642,kg/m2,,,,1,SCREENING 1,,2012-07-22,,,,,,718,DAYS,87.65,cm
156,CDISCPILOT01,01-701-1023,1023,701,USA,VS,2012-08-05,2012-09-02,2012-08-05,2012-09-01,2013-02-18,,,2,2010-08-05,2010-08-05,2012-07-22,-14,2,YEARS,M,WHITE,HISPANIC OR LATINO,Placebo,Pbo,Placebo,Pbo,Placebo,Placebo,2012-08-05,2012-08-05T00:00:00Z,H,2012-09-01,2012-09-01T23:59:59Z,H,,28,2012-08-05,1,Baseline,0,,,Body Mass Index(kg/m^2),BMI,3,16.55097143866013,16.55097143866013,,,Y,Y,,Epoch,,49,BMI,BMI,,16.5509714386601,kg/m2,16.5509714386601,16.55097143866013,kg/m2,,,,3,BASELINE,,2012-08-05,,,,,,732,DAYS,88.25,cm
157,CDISCPILOT01,01-701-1023,1023,701,USA,VS,2012-08-05,2012-09-02,2012-08-05,2012-09-01,2013-02-18,,,3,2010-08-05,2010-08-05,2012-07-22,-14,2,YEARS,M,WHITE,HISPANIC OR LATINO,Placebo,Pbo,Placebo,Pbo,Placebo,Placebo,2012-08-05,2012-08-05T00:00:00Z,H,2012-09-01,2012-09-01T23:59:59Z,H,,28,2012-08-27,23,Week 2,,,,Body Mass Index(kg/m^2),BMI,3,16.682404284864116,16.55097143866013,,,,,Y,Epoch,,53,BMI,BMI,,16.6824042848641,kg/m2,16.6824042848641,16.682404284864116,kg/m2,,,,4,WEEK 2,,2012-08-27,,,,,,754,DAYS,88.75,cm
158,CDISCPILOT01,01-701-1023,1023,701,USA,VS,2012-08-05,2012-09-02,2012-08-05,2012-09-01,2013-02-18,,,4,2010-08-05,2010-08-05,2012-07-22,-14,2,YEARS,M,WHITE,HISPANIC OR LATINO,Placebo,Pbo,Placebo,Pbo,Placebo,Placebo,2012-08-05,2012-08-05T00:00:00Z,H,2012-09-01,2012-09-01T23:59:59Z,H,,28,2012-09-02,29,Week 4,,,,Body Mass Index(kg/m^2),BMI,3,16.8927555813319,16.55097143866013,,,,,,Epoch,,57,BMI,BMI,,16.8927555813319,kg/m2,16.8927555813319,16.8927555813319,kg/m2,,,,5,WEEK 4,,2012-09-02,,,,,,760,DAYS,89.23,cm
159,CDISCPILOT01,01-701-1023,1023,701,USA,VS,2012-08-05,2012-09-02,2012-08-05,2012-09-01,2013-02-18,,,5,2010-08-05,2010-08-05,2012-07-22,-14,2,YEARS,M,WHITE,HISPANIC OR LATINO,Placebo,Pbo,Placebo,Pbo,Placebo,Placebo,2012-08-05,2012-08-05T00:00:00Z,H,2012-09-01,2012-09-01T23:59:59Z,H,,28,2012-07-22,-14,Screening 1,-1,,,BMI-for-age percentile,BMIPCTL,10,64.79107765456281,49.38159444769931,,,,,,Epoch,,45,BMI,BMI,,16.2316478734686,kg/m2,16.2316478734686,16.231647873468642,kg/m2,,,,1,SCREENING 1,,2012-07-22,,,,,,718,DAYS,87.65,cm
160,CDISCPILOT01,01-701-1023,1023,701,USA,VS,2012-08-05,2012-09-02,2012-08-05,2012-09-01,2013-02-18,,,6,2010-08-05,2010-08-05,2012-07-22,-14,2,YEARS,M,WHITE,HISPANIC OR LATINO,Placebo,Pbo,Placebo,Pbo,Placebo,Placebo,2012-08-05,2012-08-05T00:00:00Z,H,2012-09-01,2012-09-01T23:59:59Z,H,,28,2012-08-05,1,Baseline,0,,,BMI-for-age percentile,BMIPCTL,10,49.38159444769931,49.38159444769931,,,Y,Y,,Epoch,,49,BMI,BMI,,16.5509714386601,kg/m2,16.5509714386601,16.55097143866013,kg/m2,,,,3,BASELINE,,2012-08-05,,,,,,732,DAYS,88.25,cm
161,CDISCPILOT01,01-701-1023,1023,701,USA,VS,2012-08-05,2012-09-02,2012-08-05,2012-09-01,2013-02-18,,,7,2010-08-05,2010-08-05,2012-07-22,-14,2,YEARS,M,WHITE,HISPANIC OR LATINO,Placebo,Pbo,Placebo,Pbo,Placebo,Placebo,2012-08-05,2012-08-05T00:00:00Z,H,2012-09-01,2012-09-01T23:59:59Z,H,,28,2012-08-27,23,Week 2,,,,BMI-for-age percentile,BMIPCTL,10,54.42747273353778,49.38159444769931,,,,,Y,Epoch,,53,BMI,BMI,,16.6824042848641,kg/m2,16.6824042848641,16.682404284864116,kg/m2,,,,4,WEEK 2,,2012-08-27,,,,,,754,DAYS,88.75,cm
162,CDISCPILOT01,01-701-1023,1023,701,USA,VS,2012-08-05,2012-09-02,2012-08-05,2012-09-01,2013-02-18,,,8,2010-08-05,2010-08-05,2012-07-22,-14,2,YEARS,M,WHITE,HISPANIC OR LATINO,Placebo,Pbo,Placebo,Pbo,Placebo,Placebo,2012-08-05,2012-08-05T00:00:00Z,H,2012-09-01,2012-09-01T23:59:59Z,H,,28,2012-09-02,29,Week 4,,,,BMI-for-age percentile,BMIPCTL,10,60.71178574889709,49.38159444769931,,,,,,Epoch,,57,BMI,BMI,,16.8927555813319,kg/m2,16.8927555813319,16.8927555813319,kg/m2,,,,5,WEEK 4,,2012-09-02,,,,,,760,DAYS,89.23,cm
163,CDISCPILOT01,01-701-1023,1023,701,USA,VS,2012-08-05,2012-09-02,2012-08-05,2012-09-01,2013-02-18,,,9,2010-08-05,2010-08-05,2012-07-22,-14,2,YEARS,M,WHITE,HISPANIC OR LATINO,Placebo,Pbo,Placebo,Pbo,Placebo,Placebo,2012-08-05,2012-08-05T00:00:00Z,H,2012-09-01,2012-09-01T23:59:59Z,H,,28,2012-07-22,-14,Screening 1,-1,,,BMI-for-age z-score,BMISDS,9,0.3796860899542759,-0.015501749259465531,,,,,,Epoch,,45,BMI,BMI,,16.2316478734686,kg/m2,16.2316478734686,16.231647873468642,kg/m2,,,,1,SCREENING 1,,2012-07-22,,,,,,718,DAYS,87.65,cm
164,CDISCPILOT01,01-701-1023,1023,701,USA,VS,2012-08-05,2012-09-02,2012-08-05,2012-09-01,2013-02-18,,,10,2010-08-05,2010-08-05,2012-07-22,-14,2,YEARS,M,WHITE,HISPANIC OR LATINO,Placebo,Pbo,Placebo,Pbo,Placebo,Placebo,2012-08-05,2012-08-05T00:00:00Z,H,2012-09-01,2012-09-01T23:59:59Z,H,,28,2012-08-05,1,Baseline,0,,,BMI-for-age z-score,BMISDS,9,-0.015501749259465531,-0.015501749259465531,,,Y,Y,,Epoch,,49,BMI,BMI,,16.5509714386601,kg/m2,16.5509714386601,16.55097143866013,kg/m2,,,,3,BASELINE,,2012-08-05,,,,,,732,DAYS,88.25,cm
165,CDISCPILOT01,01-701-1023,1023,701,USA,VS,2012-08-05,2012-09-02,2012-08-05,2012-09-01,2013-02-18,,,11,2010-08-05,2010-08-05,2012-07-22,-14,2,YEARS,M,WHITE,HISPANIC OR LATINO,Placebo,Pbo,Placebo,Pbo,Placebo,Placebo,2012-08-05,2012-08-05T00:00:00Z,H,2012-09-01,2012-09-01T23:59:59Z,H,,28,2012-08-27,23,Week 2,,,,BMI-for-age z-score,BMISDS,9,0.11120908778177893,-0.015501749259465531,,,,,Y,Epoch,,53,BMI,BMI,,16.6824042848641,kg/m2,16.6824042848641,16.682404284864116,kg/m2,,,,4,WEEK 2,,2012-08-27,,,,,,754,DAYS,88.75,cm
166,CDISCPILOT01,01-701-1023,1023,701,USA,VS,2012-08-05,2012-09-02,2012-08-05,2012-09-01,2013-02-18,,,12,2010-08-05,2010-08-05,2012-07-22,-14,2,YEARS,M,WHITE,HISPANIC OR LATINO,Placebo,Pbo,Placebo,Pbo,Placebo,Placebo,2012-08-05,2012-08-05T00:00:00Z,H,2012-09-01,2012-09-01T23:59:59Z,H,,28,2012-09-02,29,Week 4,,,,BMI-for-age z-score,BMISDS,9,0.27181498174967716,-0.015501749259465531,,,,,,Epoch,,57,BMI,BMI,,16.8927555813319,kg/m2,16.8927555813319,16.8927555813319,kg/m2,,,,5,WEEK 4,,2012-09-02,,,,,,760,DAYS,89.23,cm
167,CDISCPILOT01,01-701-1023,1023,701,USA,VS,2012-08-05,2012-09-02,2012-08-05,2012-09-01,2013-02-18,,,13,2010-08-05,2010-08-05,2012-07-22,-14,2,YEARS,M,WHITE,HISPANIC OR LATINO,Placebo,Pbo,Placebo,Pbo,Placebo,Placebo,2012-08-05,2012-08-05T00:00:00Z,H,2012-09-01,2012-09-01T23:59:59Z,H,,28,2012-07-22,-14,Screening 1,-1,,,Head Circumference (cm),HDCIRC,4,48.34,48.71,,,,,,Epoch,,46,HDCIRC,Head Circumference,,48.34,cm,48.34,48.34,cm,,,,1,SCREENING 1,,2012-07-22,,,,,,718,DAYS,87.65,cm
168,CDISCPILOT01,01-701-1023,1023,701,USA,VS,2012-08-05,2012-09-02,2012-08-05,2012-09-01,2013-02-18,,,14,2010-08-05,2010-08-05,2012-07-22,-14,2,YEARS,M,WHITE,HISPANIC OR LATINO,Placebo,Pbo,Placebo,Pbo,Placebo,Placebo,2012-08-05,2012-08-05T00:00:00Z,H,2012-09-01,2012-09-01T23:59:59Z,H,,28,2012-08-05,1,Baseline,0,,,Head Circumference (cm),HDCIRC,4,48.71,48.71,,,Y,Y,,Epoch,,50,HDCIRC,Head Circumference,,48.71,cm,48.71,48.71,cm,,,,3,BASELINE,,2012-08-05,,,,,,732,DAYS,88.25,cm
169,CDISCPILOT01,01-701-1023,1023,701,USA,VS,2012-08-05,2012-09-02,2012-08-05,2012-09-01,2013-02-18,,,15,2010-08-05,2010-08-05,2012-07-22,-14,2,YEARS,M,WHITE,HISPANIC OR LATINO,Placebo,Pbo,Placebo,Pbo,Placebo,Placebo,2012-08-05,2012-08-05T00:00:00Z,H,2012-09-01,2012-09-01T23:59:59Z,H,,28,2012-08-27,23,Week 2,,,,Head Circumference (cm),HDCIRC,4,49.12,48.71,,,,,Y,Epoch,,54,HDCIRC,Head Circumference,,49.12,cm,49.12,49.12,cm,,,,4,WEEK 2,,2012-08-27,,,,,,754,DAYS,88.75,cm
170,CDISCPILOT01,01-701-1023,1023,701,USA,VS,2012-08-05,2012-09-02,2012-08-05,2012-09-01,2013-02-18,,,16,2010-08-05,2010-08-05,2012-07-22,-14,2,YEARS,M,WHITE,HISPANIC OR LATINO,Placebo,Pbo,Placebo,Pbo,Placebo,Placebo,2012-08-05,2012-08-05T00:00:00Z,H,2012-09-01,2012-09-01T23:59:59Z,H,,28,2012-09-02,29,Week 4,,,,Head Circumference (cm),HDCIRC,4,49.56,48.71,,,,,,Epoch,,58,HDCIRC,Head Circumference,,49.56,cm,49.56,49.56,cm,,,,5,WEEK 4,,2012-09-02,,,,,,760,DAYS,89.23,cm
171,CDISCPILOT01,01-701-1023,1023,701,USA,VS,2012-08-05,2012-09-02,2012-08-05,2012-09-01,2013-02-18,,,17,2010-08-05,2010-08-05,2012-07-22,-14,2,YEARS,M,WHITE,HISPANIC OR LATINO,Placebo,Pbo,Placebo,Pbo,Placebo,Placebo,2012-08-05,2012-08-05T00:00:00Z,H,2012-09-01,2012-09-01T23:59:59Z,H,,28,2012-07-22,-14,Screening 1,-1,,,Head Circumference-for-age percentile,HDCPCTL,12,54.15450343846955,63.004699920608466,,,,,,Epoch,,46,HDCIRC,Head Circumference,,48.34,cm,48.34,48.34,cm,,,,1,SCREENING 1,,2012-07-22,,,,,,718,DAYS,87.65,cm
172,CDISCPILOT01,01-701-1023,1023,701,USA,VS,2012-08-05,2012-09-02,2012-08-05,2012-09-01,2013-02-18,,,18,2010-08-05,2010-08-05,2012-07-22,-14,2,YEARS,M,WHITE,HISPANIC OR LATINO,Placebo,Pbo,Placebo,Pbo,Placebo,Placebo,2012-08-05,2012-08-05T00:00:00Z,H,2012-09-01,2012-09-01T23:59:59Z,H,,28,2012-08-05,1,Baseline,0,,,Head Circumference-for-age percentile,HDCPCTL,12,63.004699920608466,63.004699920608466,,,Y,Y,,Epoch,,50,HDCIRC,Head Circumference,,48.71,cm,48.71,48.71,cm,,,,3,BASELINE,,2012-08-05,,,,,,732,DAYS,88.25,cm
173,CDISCPILOT01,01-701-1023,1023,701,USA,VS,2012-08-05,2012-09-02,2012-08-05,2012-09-01,2013-02-18,,,19,2010-08-05,2010-08-05,2012-07-22,-14,2,YEARS,M,WHITE,HISPANIC OR LATINO,Placebo,Pbo,Placebo,Pbo,Placebo,Placebo,2012-08-05,2012-08-05T00:00:00Z,H,2012-09-01,2012-09-01T23:59:59Z,H,,28,2012-08-27,23,Week 2,,,,Head Circumference-for-age percentile,HDCPCTL,12,71.36849666690027,63.004699920608466,,,,,Y,Epoch,,54,HDCIRC,Head Circumference,,49.12,cm,49.12,49.12,cm,,,,4,WEEK 2,,2012-08-27,,,,,,754,DAYS,88.75,cm
174,CDISCPILOT01,01-701-1023,1023,701,USA,VS,2012-08-05,2012-09-02,2012-08-05,2012-09-01,2013-02-18,,,20,2010-08-05,2010-08-05,2012-07-22,-14,2,YEARS,M,WHITE,HISPANIC OR LATINO,Placebo,Pbo,Placebo,Pbo,Placebo,Placebo,2012-08-05,2012-08-05T00:00:00Z,H,2012-09-01,2012-09-01T23:59:59Z,H,,28,2012-09-02,29,Week 4,,,,Head Circumference-for-age percentile,HDCPCTL,12,80.72875301606608,63.004699920608466,,,,,,Epoch,,58,HDCIRC,Head Circumference,,49.56,cm,49.56,49.56,cm,,,,5,WEEK 4,,2012-09-02,,,,,,760,DAYS,89.23,cm
175,CDISCPILOT01,01-701-1023,1023,701,USA,VS,2012-08-05,2012-09-02,2012-08-05,2012-09-01,2013-02-18,,,21,2010-08-05,2010-08-05,2012-07-22,-14,2,YEARS,M,WHITE,HISPANIC OR LATINO,Placebo,Pbo,Placebo,Pbo,Placebo,Placebo,2012-08-05,2012-08-05T00:00:00Z,H,2012-09-01,2012-09-01T23:59:59Z,H,,28,2012-07-22,-14,Screening 1,-1,,,Head Circumference-for-age z-score,HDCSDS,11,0.10432690005698297,0.3319778274527679,,,,,,Epoch,,46,HDCIRC,Head Circumference,,48.34,cm,48.34,48.34,cm,,,,1,SCREENING 1,,2012-07-22,,,,,,718,DAYS,87.65,cm
176,CDISCPILOT01,01-701-1023,1023,701,USA,VS,2012-08-05,2012-09-02,2012-08-05,2012-09-01,2013-02-18,,,22,2010-08-05,2010-08-05,2012-07-22,-14,2,YEARS,M,WHITE,HISPANIC OR LATINO,Placebo,Pbo,Placebo,Pbo,Placebo,Placebo,2012-08-05,2012-08-05T00:00:00Z,H,2012-09-01,2012-09-01T23:59:59Z,H,,28,2012-08-05,1,Baseline,0,,,Head Circumference-for-age z-score,HDCSDS,11,0.3319778274527679,0.3319778274527679,,,Y,Y,,Epoch,,50,HDCIRC,Head Circumference,,48.71,cm,48.71,48.71,cm,,,,3,BASELINE,,2012-08-05,,,,,,732,DAYS,88.25,cm
177,CDISCPILOT01,01-701-1023,1023,701,USA,VS,2012-08-05,2012-09-02,2012-08-05,2012-09-01,2013-02-18,,,23,2010-08-05,2010-08-05,2012-07-22,-14,2,YEARS,M,WHITE,HISPANIC OR LATINO,Placebo,Pbo,Placebo,Pbo,Placebo,Placebo,2012-08-05,2012-08-05T00:00:00Z,H,2012-09-01,2012-09-01T23:59:59Z,H,,28,2012-08-27,23,Week 2,,,,Head Circumference-for-age z-score,HDCSDS,11,0.5641823084918182,0.3319778274527679,,,,,Y,Epoch,,54,HDCIRC,Head Circumference,,49.12,cm,49.12,49.12,cm,,,,4,WEEK 2,,2012-08-27,,,,,,754,DAYS,88.75,cm
178,CDISCPILOT01,01-701-1023,1023,701,USA,VS,2012-08-05,2012-09-02,2012-08-05,2012-09-01,2013-02-18,,,24,2010-08-05,2010-08-05,2012-07-22,-14,2,YEARS,M,WHITE,HISPANIC OR LATINO,Placebo,Pbo,Placebo,Pbo,Placebo,Placebo,2012-08-05,2012-08-05T00:00:00Z,H,2012-09-01,2012-09-01T23:59:59Z,H,,28,2012-09-02,29,Week 4,,,,Head Circumference-for-age z-score,HDCSDS,11,0.8679440919166066,0.3319778274527679,,,,,,Epoch,,58,HDCIRC,Head Circumference,,49.56,cm,49.56,49.56,cm,,,,5,WEEK 4,,2012-09-02,,,,,,760,DAYS,89.23,cm
179,CDISCPILOT01,01-701-1023,1023,701,USA,VS,2012-08-05,2012-09-02,2012-08-05,2012-09-01,2013-02-18,,,25,2010-08-05,2010-08-05,2012-07-22,-14,2,YEARS,M,WHITE,HISPANIC OR LATINO,Placebo,Pbo,Placebo,Pbo,Placebo,Placebo,2012-08-05,2012-08-05T00:00:00Z,H,2012-09-01,2012-09-01T23:59:59Z,H,,28,2012-07-22,-14,Screening 1,-1,,,Height (cm),HEIGHT,2,87.65,88.25,,,,,,Epoch,,47,HEIGHT,Height,,87.65,cm,87.65,87.65,cm,,,,1,SCREENING 1,,2012-07-22,,,,,,718,DAYS,87.65,cm
180,CDISCPILOT01,01-701-1023,1023,701,USA,VS,2012-08-05,2012-09-02,2012-08-05,2012-09-01,2013-02-18,,,26,2010-08-05,2010-08-05,2012-07-22,-14,2,YEARS,M,WHITE,HISPANIC OR LATINO,Placebo,Pbo,Placebo,Pbo,Placebo,Placebo,2012-08-05,2012-08-05T00:00:00Z,H,2012-09-01,2012-09-01T23:59:59Z,H,,28,2012-08-05,1,Baseline,0,,,Height (cm),HEIGHT,2,88.25,88.25,,,Y,Y,,Epoch,,51,HEIGHT,Height,,88.25,cm,88.25,88.25,cm,,,,3,BASELINE,,2012-08-05,,,,,,732,DAYS,88.25,cm
181,CDISCPILOT01,01-701-1023,1023,701,USA,VS,2012-08-05,2012-09-02,2012-08-05,2012-09-01,2013-02-18,,,27,2010-08-05,2010-08-05,2012-07-22,-14,2,YEARS,M,WHITE,HISPANIC OR LATINO,Placebo,Pbo,Placebo,Pbo,Placebo,Placebo,2012-08-05,2012-08-05T00:00:00Z,H,2012-09-01,2012-09-01T23:59:59Z,H,,28,2012-08-27,23,Week 2,,,,Height (cm),HEIGHT,2,88.75,88.25,,,,,Y,Epoch,,55,HEIGHT,Height,,88.75,cm,88.75,88.75,cm,,,,4,WEEK 2,,2012-08-27,,,,,,754,DAYS,88.75,cm
182,CDISCPILOT01,01-701-1023,1023,701,USA,VS,2012-08-05,2012-09-02,2012-08-05,2012-09-01,2013-02-18,,,28,2010-08-05,2010-08-05,2012-07-22,-14,2,YEARS,M,WHITE,HISPANIC OR LATINO,Placebo,Pbo,Placebo,Pbo,Placebo,Placebo,2012-08-05,2012-08-05T00:00:00Z,H,2012-09-01,2012-09-01T23:59:59Z,H,,28,2012-09-02,29,Week 4,,,,Height (cm),HEIGHT,2,89.23,88.25,,,,,,Epoch,,59,HEIGHT,Height,,89.23,cm,89.23,89.23,cm,,,,5,WEEK 4,,2012-09-02,,,,,,760,DAYS,89.23,cm
183,CDISCPILOT01,01-701-1023,1023,701,USA,VS,2012-08-05,2012-09-02,2012-08-05,2012-09-01,2013-02-18,,,29,2010-08-05,2010-08-05,2012-07-22,-14,2,YEARS,M,WHITE,HISPANIC OR LATINO,Placebo,Pbo,Placebo,Pbo,Placebo,Placebo,2012-08-05,2012-08-05T00:00:00Z,H,2012-09-01,2012-09-01T23:59:59Z,H,,28,2012-07-22,-14,Screening 1,-1,,,Height-for-age percentile,HGTPCTL,8,52.5140606288343,69.16005009398643,,,,,,Epoch,,47,HEIGHT,Height,,87.65,cm,87.65,87.65,cm,,,,1,SCREENING 1,,2012-07-22,,,,,,718,DAYS,87.65,cm
184,CDISCPILOT01,01-701-1023,1023,701,USA,VS,2012-08-05,2012-09-02,2012-08-05,2012-09-01,2013-02-18,,,30,2010-08-05,2010-08-05,2012-07-22,-14,2,YEARS,M,WHITE,HISPANIC OR LATINO,Placebo,Pbo,Placebo,Pbo,Placebo,Placebo,2012-08-05,2012-08-05T00:00:00Z,H,2012-09-01,2012-09-01T23:59:59Z,H,,28,2012-08-05,1,Baseline,0,,,Height-for-age percentile,HGTPCTL,8,69.16005009398643,69.16005009398643,,,Y,Y,,Epoch,,51,HEIGHT,Height,,88.25,cm,88.25,88.25,cm,,,,3,BASELINE,,2012-08-05,,,,,,732,DAYS,88.25,cm
185,CDISCPILOT01,01-701-1023,1023,701,USA,VS,2012-08-05,2012-09-02,2012-08-05,2012-09-01,2013-02-18,,,31,2010-08-05,2010-08-05,2012-07-22,-14,2,YEARS,M,WHITE,HISPANIC OR LATINO,Placebo,Pbo,Placebo,Pbo,Placebo,Placebo,2012-08-05,2012-08-05T00:00:00Z,H,2012-09-01,2012-09-01T23:59:59Z,H,,28,2012-08-27,23,Week 2,,,,Height-for-age percentile,HGTPCTL,8,68.30248817204657,69.16005009398643,,,,,Y,Epoch,,55,HEIGHT,Height,,88.75,cm,88.75,88.75,cm,,,,4,WEEK 2,,2012-08-27,,,,,,754,DAYS,88.75,cm
186,CDISCPILOT01,01-701-1023,1023,701,USA,VS,2012-08-05,2012-09-02,2012-08-05,2012-09-01,2013-02-18,,,32,2010-08-05,2010-08-05,2012-07-22,-14,2,YEARS,M,WHITE,HISPANIC OR LATINO,Placebo,Pbo,Placebo,Pbo,Placebo,Placebo,2012-08-05,2012-08-05T00:00:00Z,H,2012-09-01,2012-09-01T23:59:59Z,H,,28,2012-09-02,29,Week 4,,,,Height-for-age percentile,HGTPCTL,8,71.42122016496847,69.16005009398643,,,,,,Epoch,,59,HEIGHT,Height,,89.23,cm,89.23,89.23,cm,,,,5,WEEK 4,,2012-09-02,,,,,,760,DAYS,89.23,cm
187,CDISCPILOT01,01-701-1023,1023,701,USA,VS,2012-08-05,2012-09-02,2012-08-05,2012-09-01,2013-02-18,,,33,2010-08-05,2010-08-05,2012-07-22,-14,2,YEARS,M,WHITE,HISPANIC OR LATINO,Placebo,Pbo,Placebo,Pbo,Placebo,Placebo,2012-08-05,2012-08-05T00:00:00Z,H,2012-09-01,2012-09-01T23:59:59Z,H,,28,2012-07-22,-14,Screening 1,-1,,,Height-for-age z-score,HGTSDS,7,0.06305992317707983,0.5003921238233261,,,,,,Epoch,,47,HEIGHT,Height,,87.65,cm,87.65,87.65,cm,,,,1,SCREENING 1,,2012-07-22,,,,,,718,DAYS,87.65,cm
188,CDISCPILOT01,01-701-1023,1023,701,USA,VS,2012-08-05,2012-09-02,2012-08-05,2012-09-01,2013-02-18,,,34,2010-08-05,2010-08-05,2012-07-22,-14,2,YEARS,M,WHITE,HISPANIC OR LATINO,Placebo,Pbo,Placebo,Pbo,Placebo,Placebo,2012-08-05,2012-08-05T00:00:00Z,H,2012-09-01,2012-09-01T23:59:59Z,H,,28,2012-08-05,1,Baseline,0,,,Height-for-age z-score,HGTSDS,7,0.5003921238233261,0.5003921238233261,,,Y,Y,,Epoch,,51,HEIGHT,Height,,88.25,cm,88.25,88.25,cm,,,,3,BASELINE,,2012-08-05,,,,,,732,DAYS,88.25,cm
189,CDISCPILOT01,01-701-1023,1023,701,USA,VS,2012-08-05,2012-09-02,2012-08-05,2012-09-01,2013-02-18,,,35,2010-08-05,2010-08-05,2012-07-22,-14,2,YEARS,M,WHITE,HISPANIC OR LATINO,Placebo,Pbo,Placebo,Pbo,Placebo,Placebo,2012-08-05,2012-08-05T00:00:00Z,H,2012-09-01,2012-09-01T23:59:59Z,H,,28,2012-08-27,23,Week 2,,,,Height-for-age z-score,HGTSDS,7,0.4761742588118203,0.5003921238233261,,,,,Y,Epoch,,55,HEIGHT,Height,,88.75,cm,88.75,88.75,cm,,,,4,WEEK 2,,2012-08-27,,,,,,754,DAYS,88.75,cm
190,CDISCPILOT01,01-701-1023,1023,701,USA,VS,2012-08-05,2012-09-02,2012-08-05,2012-09-01,2013-02-18,,,36,2010-08-05,2010-08-05,2012-07-22,-14,2,YEARS,M,WHITE,HISPANIC OR LATINO,Placebo,Pbo,Placebo,Pbo,Placebo,Placebo,2012-08-05,2012-08-05T00:00:00Z,H,2012-09-01,2012-09-01T23:59:59Z,H,,28,2012-09-02,29,Week 4,,,,Height-for-age z-score,HGTSDS,7,0.5657325614351605,0.5003921238233261,,,,,,Epoch,,59,HEIGHT,Height,,89.23,cm,89.23,89.23,cm,,,,5,WEEK 4,,2012-09-02,,,,,,760,DAYS,89.23,cm
191,CDISCPILOT01,01-701-1023,1023,701,USA,VS,2012-08-05,2012-09-02,2012-08-05,2012-09-01,2013-02-18,,,37,2010-08-05,2010-08-05,2012-07-22,-14,2,YEARS,M,WHITE,HISPANIC OR LATINO,Placebo,Pbo,Placebo,Pbo,Placebo,Placebo,2012-08-05,2012-08-05T00:00:00Z,H,2012-09-01,2012-09-01T23:59:59Z,H,,28,2012-07-22,-14,Screening 1,-1,,,Weight (kg),WEIGHT,1,12.47,12.89,,,,,,Epoch,,48,WEIGHT,Weight,,12.47,kg,12.47,12.47,kg,,,,1,SCREENING 1,,2012-07-22,,,,,,718,DAYS,87.65,cm
192,CDISCPILOT01,01-701-1023,1023,701,USA,VS,2012-08-05,2012-09-02,2012-08-05,2012-09-01,2013-02-18,,,38,2010-08-05,2010-08-05,2012-07-22,-14,2,YEARS,M,WHITE,HISPANIC OR LATINO,Placebo,Pbo,Placebo,Pbo,Placebo,Placebo,2012-08-05,2012-08-05T00:00:00Z,H,2012-09-01,2012-09-01T23:59:59Z,H,,28,2012-08-05,1,Baseline,0,,,Weight (kg),WEIGHT,1,12.89,12.89,,,Y,Y,,Epoch,,52,WEIGHT,Weight,,12.89,kg,12.89,12.89,kg,,,,3,BASELINE,,2012-08-05,,,,,,732,DAYS,88.25,cm
193,CDISCPILOT01,01-701-1023,1023,701,USA,VS,2012-08-05,2012-09-02,2012-08-05,2012-09-01,2013-02-18,,,39,2010-08-05,2010-08-05,2012-07-22,-14,2,YEARS,M,WHITE,HISPANIC OR LATINO,Placebo,Pbo,Placebo,Pbo,Placebo,Placebo,2012-08-05,2012-08-05T00:00:00Z,H,2012-09-01,2012-09-01T23:59:59Z,H,,28,2012-08-27,23,Week 2,,,,Weight (kg),WEIGHT,1,13.14,12.89,,,,,Y,Epoch,,56,WEIGHT,Weight,,13.14,kg,13.14,13.14,kg,,,,4,WEEK 2,,2012-08-27,,,,,,754,DAYS,88.75,cm
194,CDISCPILOT01,01-701-1023,1023,701,USA,VS,2012-08-05,2012-09-02,2012-08-05,2012-09-01,2013-02-18,,,40,2010-08-05,2010-08-05,2012-07-22,-14,2,YEARS,M,WHITE,HISPANIC OR LATINO,Placebo,Pbo,Placebo,Pbo,Placebo,Placebo,2012-08-05,2012-08-05T00:00:00Z,H,2012-09-01,2012-09-01T23:59:59Z,H,,28,2012-09-02,29,Week 4,,,,Weight (kg),WEIGHT,1,13.45,12.89,,,,,,Epoch,,60,WEIGHT,Weight,,13.45,kg,13.45,13.45,kg,,,,5,WEEK 4,,2012-09-02,,,,,,760,DAYS,89.23,cm
195,CDISCPILOT01,01-701-1023,1023,701,USA,VS,2012-08-05,2012-09-02,2012-08-05,2012-09-01,2013-02-18,,,41,2010-08-05,2010-08-05,2012-07-22,-14,2,YEARS,M,WHITE,HISPANIC OR LATINO,Placebo,Pbo,Placebo,Pbo,Placebo,Placebo,2012-08-05,2012-08-05T00:00:00Z,H,2012-09-01,2012-09-01T23:59:59Z,H,,28,2012-07-22,-14,Screening 1,-1,,,Weight-for-age percentile,WGTAPCTL,6,61.26741992026405,56.03795830958573,,,,,,Epoch,,48,WEIGHT,Weight,,12.47,kg,12.47,12.47,kg,,,,1,SCREENING 1,,2012-07-22,,,,,,718,DAYS,87.65,cm
196,CDISCPILOT01,01-701-1023,1023,701,USA,VS,2012-08-05,2012-09-02,2012-08-05,2012-09-01,2013-02-18,,,42,2010-08-05,2010-08-05,2012-07-22,-14,2,YEARS,M,WHITE,HISPANIC OR LATINO,Placebo,Pbo,Placebo,Pbo,Placebo,Placebo,2012-08-05,2012-08-05T00:00:00Z,H,2012-09-01,2012-09-01T23:59:59Z,H,,28,2012-08-05,1,Baseline,0,,,Weight-for-age percentile,WGTAPCTL,6,56.03795830958573,56.03795830958573,,,Y,Y,,Epoch,,52,WEIGHT,Weight,,12.89,kg,12.89,12.89,kg,,,,3,BASELINE,,2012-08-05,,,,,,732,DAYS,88.25,cm
197,CDISCPILOT01,01-701-1023,1023,701,USA,VS,2012-08-05,2012-09-02,2012-08-05,2012-09-01,2013-02-18,,,43,2010-08-05,2010-08-05,2012-07-22,-14,2,YEARS,M,WHITE,HISPANIC OR LATINO,Placebo,Pbo,Placebo,Pbo,Placebo,Placebo,2012-08-05,2012-08-05T00:00:00Z,H,2012-09-01,2012-09-01T23:59:59Z,H,,28,2012-08-27,23,Week 2,,,,Weight-for-age percentile,WGTAPCTL,6,60.13600011619019,56.03795830958573,,,,,Y,Epoch,,56,WEIGHT,Weight,,13.14,kg,13.14,13.14,kg,,,,4,WEEK 2,,2012-08-27,,,,,,754,DAYS,88.75,cm
198,CDISCPILOT01,01-701-1023,1023,701,USA,VS,2012-08-05,2012-09-02,2012-08-05,2012-09-01,2013-02-18,,,44,2010-08-05,2010-08-05,2012-07-22,-14,2,YEARS,M,WHITE,HISPANIC OR LATINO,Placebo,Pbo,Placebo,Pbo,Placebo,Placebo,2012-08-05,2012-08-05T00:00:00Z,H,2012-09-01,2012-09-01T23:59:59Z,H,,28,2012-09-02,29,Week 4,,,,Weight-for-age percentile,WGTAPCTL,6,67.3798455190947,56.03795830958573,,,,,,Epoch,,60,WEIGHT,Weight,,13.45,kg,13.45,13.45,kg,,,,5,WEEK 4,,2012-09-02,,,,,,760,DAYS,89.23,cm
199,CDISCPILOT01,01-701-1023,1023,701,USA,VS,2012-08-05,2012-09-02,2012-08-05,2012-09-01,2013-02-18,,,45,2010-08-05,2010-08-05,2012-07-22,-14,2,YEARS,M,WHITE,HISPANIC OR LATINO,Placebo,Pbo,Placebo,Pbo,Placebo,Placebo,2012-08-05,2012-08-05T00:00:00Z,H,2012-09-01,2012-09-01T23:59:59Z,H,,28,2012-07-22,-14,Screening 1,-1,,,Weight-for-age z-score,WGTASDS,5,0.28629576485323466,0.1519316641554114,,,,,,Epoch,,48,WEIGHT,Weight,,12.47,kg,12.47,12.47,kg,,,,1,SCREENING 1,,2012-07-22,,,,,,718,DAYS,87.65,cm
200,CDISCPILOT01,01-701-1023,1023,701,USA,VS,2012-08-05,2012-09-02,2012-08-05,2012-09-01,2013-02-18,,,46,2010-08-05,2010-08-05,2012-07-22,-14,2,YEARS,M,WHITE,HISPANIC OR LATINO,Placebo,Pbo,Placebo,Pbo,Placebo,Placebo,2012-08-05,2012-08-05T00:00:00Z,H,2012-09-01,2012-09-01T23:59:59Z,H,,28,2012-08-05,1,Baseline,0,,,Weight-for-age z-score,WGTASDS,5,0.1519316641554114,0.1519316641554114,,,Y,Y,,Epoch,,52,WEIGHT,Weight,,12.89,kg,12.89,12.89,kg,,,,3,BASELINE,,2012-08-05,,,,,,732,DAYS,88.25,cm
201,CDISCPILOT01,01-701-1023,1023,701,USA,VS,2012-08-05,2012-09-02,2012-08-05,2012-09-01,2013-02-18,,,47,2010-08-05,2010-08-05,2012-07-22,-14,2,YEARS,M,WHITE,HISPANIC OR LATINO,Placebo,Pbo,Placebo,Pbo,Placebo,Placebo,2012-08-05,2012-08-05T00:00:00Z,H,2012-09-01,2012-09-01T23:59:59Z,H,,28,2012-08-27,23,Week 2,,,,Weight-for-age z-score,WGTASDS,5,0.25686887633893263,0.1519316641554114,,,,,Y,Epoch,,56,WEIGHT,Weight,,13.14,kg,13.14,13.14,kg,,,,4,WEEK 2,,2012-08-27,,,,,,754,DAYS,88.75,cm
202,CDISCPILOT01,01-701-1023,1023,701,USA,VS,2012-08-05,2012-09-02,2012-08-05,2012-09-01,2013-02-18,,,48,2010-08-05,2010-08-05,2012-07-22,-14,2,YEARS,M,WHITE,HISPANIC OR LATINO,Placebo,Pbo,Placebo,Pbo,Placebo,Placebo,2012-08-05,2012-08-05T00:00:00Z,H,2012-09-01,2012-09-01T23:59:59Z,H,,28,2012-09-02,29,Week 4,,,,Weight-for-age z-score,WGTASDS,5,0.4504262932871353,0.1519316641554114,,,,,,Epoch,,60,WEIGHT,Weight,,13.45,kg,13.45,13.45,kg,,,,5,WEEK 4,,2012-09-02,,,,,,760,DAYS,89.23,cm
203,CDISCPILOT01,01-701-1023,1023,701,USA,VS,2012-08-05,2012-09-02,2012-08-05,2012-09-01,2013-02-18,,,49,2010-08-05,2010-08-05,2012-07-22,-14,2,YEARS,M,WHITE,HISPANIC OR LATINO,Placebo,Pbo,Placebo,Pbo,Placebo,Placebo,2012-08-05,2012-08-05T00:00:00Z,H,2012-09-01,2012-09-01T23:59:59Z,H,,28,2012-07-22,-14,Screening 1,-1,,,Weight-for-length/height Percentile,WGTHPCTL,14,61.991760047916955,61.991760047916955,,,Y,Y,,Epoch,,48,WEIGHT,Weight,,12.47,kg,12.47,12.47,kg,,,,1,SCREENING 1,,2012-07-22,,,,,,718,DAYS,87.65,cm
204,CDISCPILOT01,01-701-1023,1023,701,USA,VS,2012-08-05,2012-09-02,2012-08-05,2012-09-01,2013-02-18,,,50,2010-08-05,2010-08-05,2012-07-22,-14,2,YEARS,M,WHITE,HISPANIC OR LATINO,Placebo,Pbo,Placebo,Pbo,Placebo,Placebo,2012-08-05,2012-08-05T00:00:00Z,H,2012-09-01,2012-09-01T23:59:59Z,H,,28,2012-07-22,-14,Screening 1,-1,,,Weight-for-length/height Z-Score,WGTHSDS,13,0.3052643846763562,0.3052643846763562,,,Y,Y,,Epoch,,48,WEIGHT,Weight,,12.47,kg,12.47,12.47,kg,,,,1,SCREENING 1,,2012-07-22,,,,,,718,DAYS,87.65,cm
205,CDISCPILOT01,01-701-1028,1028,701,USA,VS,2013-07-19,2014-01-14,2013-07-19,2014-01-14,2014-01-14T11:10,,,1,2010-07-19,2010-07-19,2013-07-11,-8,3,YEARS,M,WHITE,NOT HISPANIC OR LATINO,Xanomeline High Dose,Xan_Hi,Xanomeline High Dose,Xan_Hi,Xanomeline High Dose,Xanomeline High Dose,2013-07-19,2013-07-19T00:00:00Z,H,2014-01-14,2014-01-14T23:59:59Z,H,,180,2013-07-11,-8,Screening 1,-1,,,Body Mass Index(kg/m^2),BMI,3,15.154928262672955,15.26896485865611,,,,,,Epoch,,61,BMI,BMI,,15.154928262673,kg/m2,15.154928262673,15.154928262672955,kg/m2,,,,1,SCREENING 1,,2013-07-11,,,,,,1089,DAYS,98.32,cm
206,CDISCPILOT01,01-701-1028,1028,701,USA,VS,2013-07-19,2014-01-14,2013-07-19,2014-01-14,2014-01-14T11:10,,,2,2010-07-19,2010-07-19,2013-07-11,-8,3,YEARS,M,WHITE,NOT HISPANIC OR LATINO,Xanomeline High Dose,Xan_Hi,Xanomeline High Dose,Xan_Hi,Xanomeline High Dose,Xanomeline High Dose,2013-07-19,2013-07-19T00:00:00Z,H,2014-01-14,2014-01-14T23:59:59Z,H,,180,2013-07-19,1,Baseline,0,,,Body Mass Index(kg/m^2),BMI,3,15.26896485865611,15.26896485865611,,,Y,Y,,Epoch,,65,BMI,BMI,,15.2689648586561,kg/m2,15.2689648586561,15.26896485865611,kg/m2,,,,3,BASELINE,,2013-07-19,,,,,,1097,DAYS,98.95,cm
207,CDISCPILOT01,01-701-1028,1028,701,USA,VS,2013-07-19,2014-01-14,2013-07-19,2014-01-14,2014-01-14T11:10,,,3,2010-07-19,2010-07-19,2013-07-11,-8,3,YEARS,M,WHITE,NOT HISPANIC OR LATINO,Xanomeline High Dose,Xan_Hi,Xanomeline High Dose,Xan_Hi,Xanomeline High Dose,Xanomeline High Dose,2013-07-19,2013-07-19T00:00:00Z,H,2014-01-14,2014-01-14T23:59:59Z,H,,180,2013-08-01,14,Week 2,,,,Body Mass Index(kg/m^2),BMI,3,15.372244005929367,15.26896485865611,,,,,Y,Epoch,,69,BMI,BMI,,15.3722440059294,kg/m2,15.3722440059294,15.372244005929367,kg/m2,,,,4,WEEK 2,,2013-08-01,,,,,,1110,DAYS,99.34,cm
208,CDISCPILOT01,01-701-1028,1028,701,USA,VS,2013-07-19,2014-01-14,2013-07-19,2014-01-14,2014-01-14T11:10,,,4,2010-07-19,2010-07-19,2013-07-11,-8,3,YEARS,M,WHITE,NOT HISPANIC OR LATINO,Xanomeline High Dose,Xan_Hi,Xanomeline High Dose,Xan_Hi,Xanomeline High Dose,Xanomeline High Dose,2013-07-19,2013-07-19T00:00:00Z,H,2014-01-14,2014-01-14T23:59:59Z,H,,180,2013-08-14,27,Week 4,,,,Body Mass Index(kg/m^2),BMI,3,15.529228040161904,15.26896485865611,,,,,Y,Epoch,,73,BMI,BMI,,15.5292280401619,kg/m2,15.5292280401619,15.529228040161904,kg/m2,,,,5,WEEK 4,,2013-08-14,,,,,,1123,DAYS,99.68,cm
209,CDISCPILOT01,01-701-1028,1028,701,USA,VS,2013-07-19,2014-01-14,2013-07-19,2014-01-14,2014-01-14T11:10,,,5,2010-07-19,2010-07-19,2013-07-11,-8,3,YEARS,M,WHITE,NOT HISPANIC OR LATINO,Xanomeline High Dose,Xan_Hi,Xanomeline High Dose,Xan_Hi,Xanomeline High Dose,Xanomeline High Dose,2013-07-19,2013-07-19T00:00:00Z,H,2014-01-14,2014-01-14T23:59:59Z,H,,180,2013-08-29,42,Week 6,,,,Body Mass Index(kg/m^2),BMI,3,15.61936325880321,15.26896485865611,,,,,Y,Epoch,,77,BMI,BMI,,15.6193632588032,kg/m2,15.6193632588032,15.61936325880321,kg/m2,,,,7,WEEK 6,,2013-08-29,,,,,,1138,DAYS,100.13,cm
210,CDISCPILOT01,01-701-1028,1028,701,USA,VS,2013-07-19,2014-01-14,2013-07-19,2014-01-14,2014-01-14T11:10,,,6,2010-07-19,2010-07-19,2013-07-11,-8,3,YEARS,M,WHITE,NOT HISPANIC OR LATINO,Xanomeline High Dose,Xan_Hi,Xanomeline High Dose,Xan_Hi,Xanomeline High Dose,Xanomeline High Dose,2013-07-19,2013-07-19T00:00:00Z,H,2014-01-14,2014-01-14T23:59:59Z,H,,180,2013-09-10,54,Week 8,,,,Body Mass Index(kg/m^2),BMI,3,15.698396538622493,15.26896485865611,,,,,Y,Epoch,,81,BMI,BMI,,15.6983965386225,kg/m2,15.6983965386225,15.698396538622493,kg/m2,,,,8,WEEK 8,,2013-09-10,,,,,,1150,DAYS,100.45,cm
211,CDISCPILOT01,01-701-1028,1028,701,USA,VS,2013-07-19,2014-01-14,2013-07-19,2014-01-14,2014-01-14T11:10,,,7,2010-07-19,2010-07-19,2013-07-11,-8,3,YEARS,M,WHITE,NOT HISPANIC OR LATINO,Xanomeline High Dose,Xan_Hi,Xanomeline High Dose,Xan_Hi,Xanomeline High Dose,Xanomeline High Dose,2013-07-19,2013-07-19T00:00:00Z,H,2014-01-14,2014-01-14T23:59:59Z,H,,180,2013-10-09,83,Week 12,,,,Body Mass Index(kg/m^2),BMI,3,16.011695553895112,15.26896485865611,,,,,Y,Epoch,,85,BMI,BMI,,16.0116955538951,kg/m2,16.0116955538951,16.011695553895112,kg/m2,,,,9,WEEK 12,,2013-10-09,,,,,,1179,DAYS,101.02,cm
212,CDISCPILOT01,01-701-1028,1028,701,USA,VS,2013-07-19,2014-01-14,2013-07-19,2014-01-14,2014-01-14T11:10,,,8,2010-07-19,2010-07-19,2013-07-11,-8,3,YEARS,M,WHITE,NOT HISPANIC OR LATINO,Xanomeline High Dose,Xan_Hi,Xanomeline High Dose,Xan_Hi,Xanomeline High Dose,Xanomeline High Dose,2013-07-19,2013-07-19T00:00:00Z,H,2014-01-14,2014-01-14T23:59:59Z,H,,180,2013-11-06,111,Week 16,,,,Body Mass Index(kg/m^2),BMI,3,16.245572620214904,15.26896485865611,,,,,Y,Epoch,,89,BMI,BMI,,16.2455726202149,kg/m2,16.2455726202149,16.245572620214904,kg/m2,,,,10,WEEK 16,,2013-11-06,,,,,,1207,DAYS,101.48,cm
213,CDISCPILOT01,01-701-1028,1028,701,USA,VS,2013-07-19,2014-01-14,2013-07-19,2014-01-14,2014-01-14T11:10,,,9,2010-07-19,2010-07-19,2013-07-11,-8,3,YEARS,M,WHITE,NOT HISPANIC OR LATINO,Xanomeline High Dose,Xan_Hi,Xanomeline High Dose,Xan_Hi,Xanomeline High Dose,Xanomeline High Dose,2013-07-19,2013-07-19T00:00:00Z,H,2014-01-14,2014-01-14T23:59:59Z,H,,180,2013-12-04,139,Week 20,,,,Body Mass Index(kg/m^2),BMI,3,16.4552759976314,15.26896485865611,,,,,Y,Epoch,,93,BMI,BMI,,16.4552759976314,kg/m2,16.4552759976314,16.4552759976314,kg/m2,,,,11,WEEK 20,,2013-12-04,,,,,,1235,DAYS,101.97,cm
214,CDISCPILOT01,01-701-1028,1028,701,USA,VS,2013-07-19,2014-01-14,2013-07-19,2014-01-14,2014-01-14T11:10,,,10,2010-07-19,2010-07-19,2013-07-11,-8,3,YEARS,M,WHITE,NOT HISPANIC OR LATINO,Xanomeline High Dose,Xan_Hi,Xanomeline High Dose,Xan_Hi,Xanomeline High Dose,Xanomeline High Dose,2013-07-19,2013-07-19T00:00:00Z,H,2014-01-14,2014-01-14T23:59:59Z,H,,180,2014-01-06,172,Week 24,,,,Body Mass Index(kg/m^2),BMI,3,16.733445438523763,15.26896485865611,,,,,Y,Epoch,,97,BMI,BMI,,16.7334454385238,kg/m2,16.7334454385238,16.733445438523763,kg/m2,,,,12,WEEK 24,,2014-01-06,,,,,,1268,DAYS,102.44,cm
215,CDISCPILOT01,01-701-1028,1028,701,USA,VS,2013-07-19,2014-01-14,2013-07-19,2014-01-14,2014-01-14T11:10,,,11,2010-07-19,2010-07-19,2013-07-11,-8,3,YEARS,M,WHITE,NOT HISPANIC OR LATINO,Xanomeline High Dose,Xan_Hi,Xanomeline High Dose,Xan_Hi,Xanomeline High Dose,Xanomeline High Dose,2013-07-19,2013-07-19T00:00:00Z,H,2014-01-14,2014-01-14T23:59:59Z,H,,180,2014-01-14,180,Week 26,,,,Body Mass Index(kg/m^2),BMI,3,16.884298495328075,15.26896485865611,,,,,Y,Epoch,,101,BMI,BMI,,16.8842984953281,kg/m2,16.8842984953281,16.884298495328075,kg/m2,,,,13,WEEK 26,,2014-01-14,,,,,,1276,DAYS,102.82,cm
216,CDISCPILOT01,01-701-1028,1028,701,USA,VS,2013-07-19,2014-01-14,2013-07-19,2014-01-14,2014-01-14T11:10,,,12,2010-07-19,2010-07-19,2013-07-11,-8,3,YEARS,M,WHITE,NOT HISPANIC OR LATINO,Xanomeline High Dose,Xan_Hi,Xanomeline High Dose,Xan_Hi,Xanomeline High Dose,Xanomeline High Dose,2013-07-19,2013-07-19T00:00:00Z,H,2014-01-14,2014-01-14T23:59:59Z,H,,180,2013-07-11,-8,Screening 1,-1,,,BMI-for-age percentile,BMIPCTL,10,21.167736990019986,24.789589452754928,,,,,,Epoch,,61,BMI,BMI,,15.154928262673,kg/m2,15.154928262673,15.154928262672955,kg/m2,,,,1,SCREENING 1,,2013-07-11,,,,,,1089,DAYS,98.32,cm
217,CDISCPILOT01,01-701-1028,1028,701,USA,VS,2013-07-19,2014-01-14,2013-07-19,2014-01-14,2014-01-14T11:10,,,13,2010-07-19,2010-07-19,2013-07-11,-8,3,YEARS,M,WHITE,NOT HISPANIC OR LATINO,Xanomeline High Dose,Xan_Hi,Xanomeline High Dose,Xan_Hi,Xanomeline High Dose,Xanomeline High Dose,2013-07-19,2013-07-19T00:00:00Z,H,2014-01-14,2014-01-14T23:59:59Z,H,,180,2013-07-19,1,Baseline,0,,,BMI-for-age percentile,BMIPCTL,10,24.789589452754928,24.789589452754928,,,Y,Y,,Epoch,,65,BMI,BMI,,15.2689648586561,kg/m2,15.2689648586561,15.26896485865611,kg/m2,,,,3,BASELINE,,2013-07-19,,,,,,1097,DAYS,98.95,cm
218,CDISCPILOT01,01-701-1028,1028,701,USA,VS,2013-07-19,2014-01-14,2013-07-19,2014-01-14,2014-01-14T11:10,,,14,2010-07-19,2010-07-19,2013-07-11,-8,3,YEARS,M,WHITE,NOT HISPANIC OR LATINO,Xanomeline High Dose,Xan_Hi,Xanomeline High Dose,Xan_Hi,Xanomeline High Dose,Xanomeline High Dose,2013-07-19,2013-07-19T00:00:00Z,H,2014-01-14,2014-01-14T23:59:59Z,H,,180,2013-08-01,14,Week 2,,,,BMI-for-age percentile,BMIPCTL,10,28.489167833053404,24.789589452754928,,,,,Y,Epoch,,69,BMI,BMI,,15.3722440059294,kg/m2,15.3722440059294,15.372244005929367,kg/m2,,,,4,WEEK 2,,2013-08-01,,,,,,1110,DAYS,99.34,cm
219,CDISCPILOT01,01-701-1028,1028,701,USA,VS,2013-07-19,2014-01-14,2013-07-19,2014-01-14,2014-01-14T11:10,,,15,2010-07-19,2010-07-19,2013-07-11,-8,3,YEARS,M,WHITE,NOT HISPANIC OR LATINO,Xanomeline High Dose,Xan_Hi,Xanomeline High Dose,Xan_Hi,Xanomeline High Dose,Xanomeline High Dose,2013-07-19,2013-07-19T00:00:00Z,H,2014-01-14,2014-01-14T23:59:59Z,H,,180,2013-08-14,27,Week 4,,,,BMI-for-age percentile,BMIPCTL,10,34.180024858731144,24.789589452754928,,,,,Y,Epoch,,73,BMI,BMI,,15.5292280401619,kg/m2,15.5292280401619,15.529228040161904,kg/m2,,,,5,WEEK 4,,2013-08-14,,,,,,1123,DAYS,99.68,cm
220,CDISCPILOT01,01-701-1028,1028,701,USA,VS,2013-07-19,2014-01-14,2013-07-19,2014-01-14,2014-01-14T11:10,,,16,2010-07-19,2010-07-19,2013-07-11,-8,3,YEARS,M,WHITE,NOT HISPANIC OR LATINO,Xanomeline High Dose,Xan_Hi,Xanomeline High Dose,Xan_Hi,Xanomeline High Dose,Xanomeline High Dose,2013-07-19,2013-07-19T00:00:00Z,H,2014-01-14,2014-01-14T23:59:59Z,H,,180,2013-08-29,42,Week 6,,,,BMI-for-age percentile,BMIPCTL,10,37.8749016125363,24.789589452754928,,,,,Y,Epoch,,77,BMI,BMI,,15.6193632588032,kg/m2,15.6193632588032,15.61936325880321,kg/m2,,,,7,WEEK 6,,2013-08-29,,,,,,1138,DAYS,100.13,cm
221,CDISCPILOT01,01-701-1028,1028,701,USA,VS,2013-07-19,2014-01-14,2013-07-19,2014-01-14,2014-01-14T11:10,,,17,2010-07-19,2010-07-19,2013-07-11,-8,3,YEARS,M,WHITE,NOT HISPANIC OR LATINO,Xanomeline High Dose,Xan_Hi,Xanomeline High Dose,Xan_Hi,Xanomeline High Dose,Xanomeline High Dose,2013-07-19,2013-07-19T00:00:00Z,H,2014-01-14,2014-01-14T23:59:59Z,H,,180,2013-09-10,54,Week 8,,,,BMI-for-age percentile,BMIPCTL,10,41.1062568173471,24.789589452754928,,,,,Y,Epoch,,81,BMI,BMI,,15.6983965386225,kg/m2,15.6983965386225,15.698396538622493,kg/m2,,,,8,WEEK 8,,2013-09-10,,,,,,1150,DAYS,100.45,cm
222,CDISCPILOT01,01-701-1028,1028,701,USA,VS,2013-07-19,2014-01-14,2013-07-19,2014-01-14,2014-01-14T11:10,,,18,2010-07-19,2010-07-19,2013-07-11,-8,3,YEARS,M,WHITE,NOT HISPANIC OR LATINO,Xanomeline High Dose,Xan_Hi,Xanomeline High Dose,Xan_Hi,Xanomeline High Dose,Xanomeline High Dose,2013-07-19,2013-07-19T00:00:00Z,H,2014-01-14,2014-01-14T23:59:59Z,H,,180,2013-10-09,83,Week 12,,,,BMI-for-age percentile,BMIPCTL,10,53.20650447424451,24.789589452754928,,,,,Y,Epoch,,85,BMI,BMI,,16.0116955538951,kg/m2,16.0116955538951,16.011695553895112,kg/m2,,,,9,WEEK 12,,2013-10-09,,,,,,1179,DAYS,101.02,cm
223,CDISCPILOT01,01-701-1028,1028,701,USA,VS,2013-07-19,2014-01-14,2013-07-19,2014-01-14,2014-01-14T11:10,,,19,2010-07-19,2010-07-19,2013-07-11,-8,3,YEARS,M,WHITE,NOT HISPANIC OR LATINO,Xanomeline High Dose,Xan_Hi,Xanomeline High Dose,Xan_Hi,Xanomeline High Dose,Xanomeline High Dose,2013-07-19,2013-07-19T00:00:00Z,H,2014-01-14,2014-01-14T23:59:59Z,H,,180,2013-11-06,111,Week 16,,,,BMI-for-age percentile,BMIPCTL,10,62.030865541319876,24.789589452754928,,,,,Y,Epoch,,89,BMI,BMI,,16.2455726202149,kg/m2,16.2455726202149,16.245572620214904,kg/m2,,,,10,WEEK 16,,2013-11-06,,,,,,1207,DAYS,101.48,cm
224,CDISCPILOT01,01-701-1028,1028,701,USA,VS,2013-07-19,2014-01-14,2013-07-19,2014-01-14,2014-01-14T11:10,,,20,2010-07-19,2010-07-19,2013-07-11,-8,3,YEARS,M,WHITE,NOT HISPANIC OR LATINO,Xanomeline High Dose,Xan_Hi,Xanomeline High Dose,Xan_Hi,Xanomeline High Dose,Xanomeline High Dose,2013-07-19,2013-07-19T00:00:00Z,H,2014-01-14,2014-01-14T23:59:59Z,H,,180,2013-12-04,139,Week 20,,,,BMI-for-age percentile,BMIPCTL,10,69.29540859517141,24.789589452754928,,,,,Y,Epoch,,93,BMI,BMI,,16.4552759976314,kg/m2,16.4552759976314,16.4552759976314,kg/m2,,,,11,WEEK 20,,2013-12-04,,,,,,1235,DAYS,101.97,cm
225,CDISCPILOT01,01-701-1028,1028,701,USA,VS,2013-07-19,2014-01-14,2013-07-19,2014-01-14,2014-01-14T11:10,,,21,2010-07-19,2010-07-19,2013-07-11,-8,3,YEARS,M,WHITE,NOT HISPANIC OR LATINO,Xanomeline High Dose,Xan_Hi,Xanomeline High Dose,Xan_Hi,Xanomeline High Dose,Xanomeline High Dose,2013-07-19,2013-07-19T00:00:00Z,H,2014-01-14,2014-01-14T23:59:59Z,H,,180,2014-01-06,172,Week 24,,,,BMI-for-age percentile,BMIPCTL,10,77.44549458651058,24.789589452754928,,,,,Y,Epoch,,97,BMI,BMI,,16.7334454385238,kg/m2,16.7334454385238,16.733445438523763,kg/m2,,,,12,WEEK 24,,2014-01-06,,,,,,1268,DAYS,102.44,cm
226,CDISCPILOT01,01-701-1028,1028,701,USA,VS,2013-07-19,2014-01-14,2013-07-19,2014-01-14,2014-01-14T11:10,,,22,2010-07-19,2010-07-19,2013-07-11,-8,3,YEARS,M,WHITE,NOT HISPANIC OR LATINO,Xanomeline High Dose,Xan_Hi,Xanomeline High Dose,Xan_Hi,Xanomeline High Dose,Xanomeline High Dose,2013-07-19,2013-07-19T00:00:00Z,H,2014-01-14,2014-01-14T23:59:59Z,H,,180,2014-01-14,180,Week 26,,,,BMI-for-age percentile,BMIPCTL,10,80.92975913757266,24.789589452754928,,,,,Y,Epoch,,101,BMI,BMI,,16.8842984953281,kg/m2,16.8842984953281,16.884298495328075,kg/m2,,,,13,WEEK 26,,2014-01-14,,,,,,1276,DAYS,102.82,cm
227,CDISCPILOT01,01-701-1028,1028,701,USA,VS,2013-07-19,2014-01-14,2013-07-19,2014-01-14,2014-01-14T11:10,,,23,2010-07-19,2010-07-19,2013-07-11,-8,3,YEARS,M,WHITE,NOT HISPANIC OR LATINO,Xanomeline High Dose,Xan_Hi,Xanomeline High Dose,Xan_Hi,Xanomeline High Dose,Xanomeline High Dose,2013-07-19,2013-07-19T00:00:00Z,H,2014-01-14,2014-01-14T23:59:59Z,H,,180,2013-07-11,-8,Screening 1,-1,,,BMI-for-age z-score,BMISDS,9,-0.800614696803427,-0.6811259646865813,,,,,,Epoch,,61,BMI,BMI,,15.154928262673,kg/m2,15.154928262673,15.154928262672955,kg/m2,,,,1,SCREENING 1,,2013-07-11,,,,,,1089,DAYS,98.32,cm
228,CDISCPILOT01,01-701-1028,1028,701,USA,VS,2013-07-19,2014-01-14,2013-07-19,2014-01-14,2014-01-14T11:10,,,24,2010-07-19,2010-07-19,2013-07-11,-8,3,YEARS,M,WHITE,NOT HISPANIC OR LATINO,Xanomeline High Dose,Xan_Hi,Xanomeline High Dose,Xan_Hi,Xanomeline High Dose,Xanomeline High Dose,2013-07-19,2013-07-19T00:00:00Z,H,2014-01-14,2014-01-14T23:59:59Z,H,,180,2013-07-19,1,Baseline,0,,,BMI-for-age z-score,BMISDS,9,-0.6811259646865813,-0.6811259646865813,,,Y,Y,,Epoch,,65,BMI,BMI,,15.2689648586561,kg/m2,15.2689648586561,15.26896485865611,kg/m2,,,,3,BASELINE,,2013-07-19,,,,,,1097,DAYS,98.95,cm
229,CDISCPILOT01,01-701-1028,1028,701,USA,VS,2013-07-19,2014-01-14,2013-07-19,2014-01-14,2014-01-14T11:10,,,25,2010-07-19,2010-07-19,2013-07-11,-8,3,YEARS,M,WHITE,NOT HISPANIC OR LATINO,Xanomeline High Dose,Xan_Hi,Xanomeline High Dose,Xan_Hi,Xanomeline High Dose,Xanomeline High Dose,2013-07-19,2013-07-19T00:00:00Z,H,2014-01-14,2014-01-14T23:59:59Z,H,,180,2013-08-01,14,Week 2,,,,BMI-for-age z-score,BMISDS,9,-0.5683705891232843,-0.6811259646865813,,,,,Y,Epoch,,69,BMI,BMI,,15.3722440059294,kg/m2,15.3722440059294,15.372244005929367,kg/m2,,,,4,WEEK 2,,2013-08-01,,,,,,1110,DAYS,99.34,cm
230,CDISCPILOT01,01-701-1028,1028,701,USA,VS,2013-07-19,2014-01-14,2013-07-19,2014-01-14,2014-01-14T11:10,,,26,2010-07-19,2010-07-19,2013-07-11,-8,3,YEARS,M,WHITE,NOT HISPANIC OR LATINO,Xanomeline High Dose,Xan_Hi,Xanomeline High Dose,Xan_Hi,Xanomeline High Dose,Xanomeline High Dose,2013-07-19,2013-07-19T00:00:00Z,H,2014-01-14,2014-01-14T23:59:59Z,H,,180,2013-08-14,27,Week 4,,,,BMI-for-age z-score,BMISDS,9,-0.4075548776921838,-0.6811259646865813,,,,,Y,Epoch,,73,BMI,BMI,,15.5292280401619,kg/m2,15.5292280401619,15.529228040161904,kg/m2,,,,5,WEEK 4,,2013-08-14,,,,,,1123,DAYS,99.68,cm
231,CDISCPILOT01,01-701-1028,1028,701,USA,VS,2013-07-19,2014-01-14,2013-07-19,2014-01-14,2014-01-14T11:10,,,27,2010-07-19,2010-07-19,2013-07-11,-8,3,YEARS,M,WHITE,NOT HISPANIC OR LATINO,Xanomeline High Dose,Xan_Hi,Xanomeline High Dose,Xan_Hi,Xanomeline High Dose,Xanomeline High Dose,2013-07-19,2013-07-19T00:00:00Z,H,2014-01-14,2014-01-14T23:59:59Z,H,,180,2013-08-29,42,Week 6,,,,BMI-for-age z-score,BMISDS,9,-0.30876797441345327,-0.6811259646865813,,,,,Y,Epoch,,77,BMI,BMI,,15.6193632588032,kg/m2,15.6193632588032,15.61936325880321,kg/m2,,,,7,WEEK 6,,2013-08-29,,,,,,1138,DAYS,100.13,cm
232,CDISCPILOT01,01-701-1028,1028,701,USA,VS,2013-07-19,2014-01-14,2013-07-19,2014-01-14,2014-01-14T11:10,,,28,2010-07-19,2010-07-19,2013-07-11,-8,3,YEARS,M,WHITE,NOT HISPANIC OR LATINO,Xanomeline High Dose,Xan_Hi,Xanomeline High Dose,Xan_Hi,Xanomeline High Dose,Xanomeline High Dose,2013-07-19,2013-07-19T00:00:00Z,H,2014-01-14,2014-01-14T23:59:59Z,H,,180,2013-09-10,54,Week 8,,,,BMI-for-age z-score,BMISDS,9,-0.22481250647466142,-0.6811259646865813,,,,,Y,Epoch,,81,BMI,BMI,,15.6983965386225,kg/m2,15.6983965386225,15.698396538622493,kg/m2,,,,8,WEEK 8,,2013-09-10,,,,,,1150,DAYS,100.45,cm
233,CDISCPILOT01,01-701-1028,1028,701,USA,VS,2013-07-19,2014-01-14,2013-07-19,2014-01-14,2014-01-14T11:10,,,29,2010-07-19,2010-07-19,2013-07-11,-8,3,YEARS,M,WHITE,NOT HISPANIC OR LATINO,Xanomeline High Dose,Xan_Hi,Xanomeline High Dose,Xan_Hi,Xanomeline High Dose,Xanomeline High Dose,2013-07-19,2013-07-19T00:00:00Z,H,2014-01-14,2014-01-14T23:59:59Z,H,,180,2013-10-09,83,Week 12,,,,BMI-for-age z-score,BMISDS,9,0.08046188344157512,-0.6811259646865813,,,,,Y,Epoch,,85,BMI,BMI,,16.0116955538951,kg/m2,16.0116955538951,16.011695553895112,kg/m2,,,,9,WEEK 12,,2013-10-09,,,,,,1179,DAYS,101.02,cm
234,CDISCPILOT01,01-701-1028,1028,701,USA,VS,2013-07-19,2014-01-14,2013-07-19,2014-01-14,2014-01-14T11:10,,,30,2010-07-19,2010-07-19,2013-07-11,-8,3,YEARS,M,WHITE,NOT HISPANIC OR LATINO,Xanomeline High Dose,Xan_Hi,Xanomeline High Dose,Xan_Hi,Xanomeline High Dose,Xanomeline High Dose,2013-07-19,2013-07-19T00:00:00Z,H,2014-01-14,2014-01-14T23:59:59Z,H,,180,2013-11-06,111,Week 16,,,,BMI-for-age z-score,BMISDS,9,0.30629152794130715,-0.6811259646865813,,,,,Y,Epoch,,89,BMI,BMI,,16.2455726202149,kg/m2,16.2455726202149,16.245572620214904,kg/m2,,,,10,WEEK 16,,2013-11-06,,,,,,1207,DAYS,101.48,cm
235,CDISCPILOT01,01-701-1028,1028,701,USA,VS,2013-07-19,2014-01-14,2013-07-19,2014-01-14,2014-01-14T11:10,,,31,2010-07-19,2010-07-19,2013-07-11,-8,3,YEARS,M,WHITE,NOT HISPANIC OR LATINO,Xanomeline High Dose,Xan_Hi,Xanomeline High Dose,Xan_Hi,Xanomeline High Dose,Xanomeline High Dose,2013-07-19,2013-07-19T00:00:00Z,H,2014-01-14,2014-01-14T23:59:59Z,H,,180,2013-12-04,139,Week 20,,,,BMI-for-age z-score,BMISDS,9,0.504241290467901,-0.6811259646865813,,,,,Y,Epoch,,93,BMI,BMI,,16.4552759976314,kg/m2,16.4552759976314,16.4552759976314,kg/m2,,,,11,WEEK 20,,2013-12-04,,,,,,1235,DAYS,101.97,cm
236,CDISCPILOT01,01-701-1028,1028,701,USA,VS,2013-07-19,2014-01-14,2013-07-19,2014-01-14,2014-01-14T11:10,,,32,2010-07-19,2010-07-19,2013-07-11,-8,3,YEARS,M,WHITE,NOT HISPANIC OR LATINO,Xanomeline High Dose,Xan_Hi,Xanomeline High Dose,Xan_Hi,Xanomeline High Dose,Xanomeline High Dose,2013-07-19,2013-07-19T00:00:00Z,H,2014-01-14,2014-01-14T23:59:59Z,H,,180,2014-01-06,172,Week 24,,,,BMI-for-age z-score,BMISDS,9,0.7535988946416279,-0.6811259646865813,,,,,Y,Epoch,,97,BMI,BMI,,16.7334454385238,kg/m2,16.7334454385238,16.733445438523763,kg/m2,,,,12,WEEK 24,,2014-01-06,,,,,,1268,DAYS,102.44,cm
237,CDISCPILOT01,01-701-1028,1028,701,USA,VS,2013-07-19,2014-01-14,2013-07-19,2014-01-14,2014-01-14T11:10,,,33,2010-07-19,2010-07-19,2013-07-11,-8,3,YEARS,M,WHITE,NOT HISPANIC OR LATINO,Xanomeline High Dose,Xan_Hi,Xanomeline High Dose,Xan_Hi,Xanomeline High Dose,Xanomeline High Dose,2013-07-19,2013-07-19T00:00:00Z,H,2014-01-14,2014-01-14T23:59:59Z,H,,180,2014-01-14,180,Week 26,,,,BMI-for-age z-score,BMISDS,9,0.8753108037957965,-0.6811259646865813,,,,,Y,Epoch,,101,BMI,BMI,,16.8842984953281,kg/m2,16.8842984953281,16.884298495328075,kg/m2,,,,13,WEEK 26,,2014-01-14,,,,,,1276,DAYS,102.82,cm
238,CDISCPILOT01,01-701-1028,1028,701,USA,VS,2013-07-19,2014-01-14,2013-07-19,2014-01-14,2014-01-14T11:10,,,34,2010-07-19,2010-07-19,2013-07-11,-8,3,YEARS,M,WHITE,NOT HISPANIC OR LATINO,Xanomeline High Dose,Xan_Hi,Xanomeline High Dose,Xan_Hi,Xanomeline High Dose,Xanomeline High Dose,2013-07-19,2013-07-19T00:00:00Z,H,2014-01-14,2014-01-14T23:59:59Z,H,,180,2013-07-11,-8,Screening 1,-1,,,Head Circumference (cm),HDCIRC,4,51.34,51.71,,,,,,Epoch,,62,HDCIRC,Head Circumference,,51.34,cm,51.34,51.34,cm,,,,1,SCREENING 1,,2013-07-11,,,,,,1089,DAYS,98.32,cm
239,CDISCPILOT01,01-701-1028,1028,701,USA,VS,2013-07-19,2014-01-14,2013-07-19,2014-01-14,2014-01-14T11:10,,,35,2010-07-19,2010-07-19,2013-07-11,-8,3,YEARS,M,WHITE,NOT HISPANIC OR LATINO,Xanomeline High Dose,Xan_Hi,Xanomeline High Dose,Xan_Hi,Xanomeline High Dose,Xanomeline High Dose,2013-07-19,2013-07-19T00:00:00Z,H,2014-01-14,2014-01-14T23:59:59Z,H,,180,2013-07-19,1,Baseline,0,,,Head Circumference (cm),HDCIRC,4,51.71,51.71,,,Y,Y,,Epoch,,66,HDCIRC,Head Circumference,,51.71,cm,51.71,51.71,cm,,,,3,BASELINE,,2013-07-19,,,,,,1097,DAYS,98.95,cm
240,CDISCPILOT01,01-701-1028,1028,701,USA,VS,2013-07-19,2014-01-14,2013-07-19,2014-01-14,2014-01-14T11:10,,,36,2010-07-19,2010-07-19,2013-07-11,-8,3,YEARS,M,WHITE,NOT HISPANIC OR LATINO,Xanomeline High Dose,Xan_Hi,Xanomeline High Dose,Xan_Hi,Xanomeline High Dose,Xanomeline High Dose,2013-07-19,2013-07-19T00:00:00Z,H,2014-01-14,2014-01-14T23:59:59Z,H,,180,2013-08-01,14,Week 2,,,,Head Circumference (cm),HDCIRC,4,52.12,51.71,,,,,Y,Epoch,,70,HDCIRC,Head Circumference,,52.12,cm,52.12,52.12,cm,,,,4,WEEK 2,,2013-08-01,,,,,,1110,DAYS,99.34,cm
241,CDISCPILOT01,01-701-1028,1028,701,USA,VS,2013-07-19,2014-01-14,2013-07-19,2014-01-14,2014-01-14T11:10,,,37,2010-07-19,2010-07-19,2013-07-11,-8,3,YEARS,M,WHITE,NOT HISPANIC OR LATINO,Xanomeline High Dose,Xan_Hi,Xanomeline High Dose,Xan_Hi,Xanomeline High Dose,Xanomeline High Dose,2013-07-19,2013-07-19T00:00:00Z,H,2014-01-14,2014-01-14T23:59:59Z,H,,180,2013-08-14,27,Week 4,,,,Head Circumference (cm),HDCIRC,4,52.56,51.71,,,,,Y,Epoch,,74,HDCIRC,Head Circumference,,52.56,cm,52.56,52.56,cm,,,,5,WEEK 4,,2013-08-14,,,,,,1123,DAYS,99.68,cm
242,CDISCPILOT01,01-701-1028,1028,701,USA,VS,2013-07-19,2014-01-14,2013-07-19,2014-01-14,2014-01-14T11:10,,,38,2010-07-19,2010-07-19,2013-07-11,-8,3,YEARS,M,WHITE,NOT HISPANIC OR LATINO,Xanomeline High Dose,Xan_Hi,Xanomeline High Dose,Xan_Hi,Xanomeline High Dose,Xanomeline High Dose,2013-07-19,2013-07-19T00:00:00Z,H,2014-01-14,2014-01-14T23:59:59Z,H,,180,2013-08-29,42,Week 6,,,,Head Circumference (cm),HDCIRC,4,52.93,51.71,,,,,Y,Epoch,,78,HDCIRC,Head Circumference,,52.93,cm,52.93,52.93,cm,,,,7,WEEK 6,,2013-08-29,,,,,,1138,DAYS,100.13,cm
243,CDISCPILOT01,01-701-1028,1028,701,USA,VS,2013-07-19,2014-01-14,2013-07-19,2014-01-14,2014-01-14T11:10,,,39,2010-07-19,2010-07-19,2013-07-11,-8,3,YEARS,M,WHITE,NOT HISPANIC OR LATINO,Xanomeline High Dose,Xan_Hi,Xanomeline High Dose,Xan_Hi,Xanomeline High Dose,Xanomeline High Dose,2013-07-19,2013-07-19T00:00:00Z,H,2014-01-14,2014-01-14T23:59:59Z,H,,180,2013-09-10,54,Week 8,,,,Head Circumference (cm),HDCIRC,4,53.45,51.71,,,,,Y,Epoch,,82,HDCIRC,Head Circumference,,53.45,cm,53.45,53.45,cm,,,,8,WEEK 8,,2013-09-10,,,,,,1150,DAYS,100.45,cm
244,CDISCPILOT01,01-701-1028,1028,701,USA,VS,2013-07-19,2014-01-14,2013-07-19,2014-01-14,2014-01-14T11:10,,,40,2010-07-19,2010-07-19,2013-07-11,-8,3,YEARS,M,WHITE,NOT HISPANIC OR LATINO,Xanomeline High Dose,Xan_Hi,Xanomeline High Dose,Xan_Hi,Xanomeline High Dose,Xanomeline High Dose,2013-07-19,2013-07-19T00:00:00Z,H,2014-01-14,2014-01-14T23:59:59Z,H,,180,2013-10-09,83,Week 12,,,,Head Circumference (cm),HDCIRC,4,54.02,51.71,,,,,Y,Epoch,,86,HDCIRC,Head Circumference,,54.02,cm,54.02,54.02,cm,,,,9,WEEK 12,,2013-10-09,,,,,,1179,DAYS,101.02,cm
245,CDISCPILOT01,01-701-1028,1028,701,USA,VS,2013-07-19,2014-01-14,2013-07-19,2014-01-14,2014-01-14T11:10,,,41,2010-07-19,2010-07-19,2013-07-11,-8,3,YEARS,M,WHITE,NOT HISPANIC OR LATINO,Xanomeline High Dose,Xan_Hi,Xanomeline High Dose,Xan_Hi,Xanomeline High Dose,Xanomeline High Dose,2013-07-19,2013-07-19T00:00:00Z,H,2014-01-14,2014-01-14T23:59:59Z,H,,180,2013-11-06,111,Week 16,,,,Head Circumference (cm),HDCIRC,4,54.48,51.71,,,,,Y,Epoch,,90,HDCIRC,Head Circumference,,54.48,cm,54.48,54.48,cm,,,,10,WEEK 16,,2013-11-06,,,,,,1207,DAYS,101.48,cm
246,CDISCPILOT01,01-701-1028,1028,701,USA,VS,2013-07-19,2014-01-14,2013-07-19,2014-01-14,2014-01-14T11:10,,,42,2010-07-19,2010-07-19,2013-07-11,-8,3,YEARS,M,WHITE,NOT HISPANIC OR LATINO,Xanomeline High Dose,Xan_Hi,Xanomeline High Dose,Xan_Hi,Xanomeline High Dose,Xanomeline High Dose,2013-07-19,2013-07-19T00:00:00Z,H,2014-01-14,2014-01-14T23:59:59Z,H,,180,2013-12-04,139,Week 20,,,,Head Circumference (cm),HDCIRC,4,54.97,51.71,,,,,Y,Epoch,,94,HDCIRC,Head Circumference,,54.97,cm,54.97,54.97,cm,,,,11,WEEK 20,,2013-12-04,,,,,,1235,DAYS,101.97,cm
247,CDISCPILOT01,01-701-1028,1028,701,USA,VS,2013-07-19,2014-01-14,2013-07-19,2014-01-14,2014-01-14T11:10,,,43,2010-07-19,2010-07-19,2013-07-11,-8,3,YEARS,M,WHITE,NOT HISPANIC OR LATINO,Xanomeline High Dose,Xan_Hi,Xanomeline High Dose,Xan_Hi,Xanomeline High Dose,Xanomeline High Dose,2013-07-19,2013-07-19T00:00:00Z,H,2014-01-14,2014-01-14T23:59:59Z,H,,180,2014-01-06,172,Week 24,,,,Head Circumference (cm),HDCIRC,4,55.44,51.71,,,,,Y,Epoch,,98,HDCIRC,Head Circumference,,55.44,cm,55.44,55.44,cm,,,,12,WEEK 24,,2014-01-06,,,,,,1268,DAYS,102.44,cm
248,CDISCPILOT01,01-701-1028,1028,701,USA,VS,2013-07-19,2014-01-14,2013-07-19,2014-01-14,2014-01-14T11:10,,,44,2010-07-19,2010-07-19,2013-07-11,-8,3,YEARS,M,WHITE,NOT HISPANIC OR LATINO,Xanomeline High Dose,Xan_Hi,Xanomeline High Dose,Xan_Hi,Xanomeline High Dose,Xanomeline High Dose,2013-07-19,2013-07-19T00:00:00Z,H,2014-01-14,2014-01-14T23:59:59Z,H,,180,2014-01-14,180,Week 26,,,,Head Circumference (cm),HDCIRC,4,55.82,51.71,,,,,Y,Epoch,,102,HDCIRC,Head Circumference,,55.82,cm,55.82,55.82,cm,,,,13,WEEK 26,,2014-01-14,,,,,,1276,DAYS,102.82,cm
249,CDISCPILOT01,01-701-1028,1028,701,USA,VS,2013-07-19,2014-01-14,2013-07-19,2014-01-14,2014-01-14T11:10,,,45,2010-07-19,2010-07-19,2013-07-11,-8,3,YEARS,M,WHITE,NOT HISPANIC OR LATINO,Xanomeline High Dose,Xan_Hi,Xanomeline High Dose,Xan_Hi,Xanomeline High Dose,Xanomeline High Dose,2013-07-19,2013-07-19T00:00:00Z,H,2014-01-14,2014-01-14T23:59:59Z,H,,180,2013-07-11,-8,Screening 1,-1,,,Head Circumference-for-age percentile,HDCPCTL,12,90.92316956333134,94.30920209751427,,,,,,Epoch,,62,HDCIRC,Head Circumference,,51.34,cm,51.34,51.34,cm,,,,1,SCREENING 1,,2013-07-11,,,,,,1089,DAYS,98.32,cm
250,CDISCPILOT01,01-701-1028,1028,701,USA,VS,2013-07-19,2014-01-14,2013-07-19,2014-01-14,2014-01-14T11:10,,,46,2010-07-19,2010-07-19,2013-07-11,-8,3,YEARS,M,WHITE,NOT HISPANIC OR LATINO,Xanomeline High Dose,Xan_Hi,Xanomeline High Dose,Xan_Hi,Xanomeline High Dose,Xanomeline High Dose,2013-07-19,2013-07-19T00:00:00Z,H,2014-01-14,2014-01-14T23:59:59Z,H,,180,2013-07-19,1,Baseline,0,,,Head Circumference-for-age percentile,HDCPCTL,12,94.30920209751427,94.30920209751427,,,Y,Y,,Epoch,,66,HDCIRC,Head Circumference,,51.71,cm,51.71,51.71,cm,,,,3,BASELINE,,2013-07-19,,,,,,1097,DAYS,98.95,cm
251,CDISCPILOT01,01-701-1028,1028,701,USA,VS,2013-07-19,2014-01-14,2013-07-19,2014-01-14,2014-01-14T11:10,,,47,2010-07-19,2010-07-19,2013-07-11,-8,3,YEARS,M,WHITE,NOT HISPANIC OR LATINO,Xanomeline High Dose,Xan_Hi,Xanomeline High Dose,Xan_Hi,Xanomeline High Dose,Xanomeline High Dose,2013-07-19,2013-07-19T00:00:00Z,H,2014-01-14,2014-01-14T23:59:59Z,H,,180,2013-08-01,14,Week 2,,,,Head Circumference-for-age percentile,HDCPCTL,12,96.74518226897169,94.30920209751427,,,,,Y,Epoch,,70,HDCIRC,Head Circumference,,52.12,cm,52.12,52.12,cm,,,,4,WEEK 2,,2013-08-01,,,,,,1110,DAYS,99.34,cm
252,CDISCPILOT01,01-701-1028,1028,701,USA,VS,2013-07-19,2014-01-14,2013-07-19,2014-01-14,2014-01-14T11:10,,,48,2010-07-19,2010-07-19,2013-07-11,-8,3,YEARS,M,WHITE,NOT HISPANIC OR LATINO,Xanomeline High Dose,Xan_Hi,Xanomeline High Dose,Xan_Hi,Xanomeline High Dose,Xanomeline High Dose,2013-07-19,2013-07-19T00:00:00Z,H,2014-01-14,2014-01-14T23:59:59Z,H,,180,2013-08-14,27,Week 4,,,,Head Circumference-for-age percentile,HDCPCTL,12,98.33889169575755,94.30920209751427,,,,,Y,Epoch,,74,HDCIRC,Head Circumference,,52.56,cm,52.56,52.56,cm,,,,5,WEEK 4,,2013-08-14,,,,,,1123,DAYS,99.68,cm
253,CDISCPILOT01,01-701-1028,1028,701,USA,VS,2013-07-19,2014-01-14,2013-07-19,2014-01-14,2014-01-14T11:10,,,49,2010-07-19,2010-07-19,2013-07-11,-8,3,YEARS,M,WHITE,NOT HISPANIC OR LATINO,Xanomeline High Dose,Xan_Hi,Xanomeline High Dose,Xan_Hi,Xanomeline High Dose,Xanomeline High Dose,2013-07-19,2013-07-19T00:00:00Z,H,2014-01-14,2014-01-14T23:59:59Z,H,,180,2013-08-29,42,Week 6,,,,Head Circumference-for-age percentile,HDCPCTL,12,99.08734375033198,94.30920209751427,,,,,Y,Epoch,,78,HDCIRC,Head Circumference,,52.93,cm,52.93,52.93,cm,,,,7,WEEK 6,,2013-08-29,,,,,,1138,DAYS,100.13,cm
254,CDISCPILOT01,01-701-1028,1028,701,USA,VS,2013-07-19,2014-01-14,2013-07-19,2014-01-14,2014-01-14T11:10,,,50,2010-07-19,2010-07-19,2013-07-11,-8,3,YEARS,M,WHITE,NOT HISPANIC OR LATINO,Xanomeline High Dose,Xan_Hi,Xanomeline High Dose,Xan_Hi,Xanomeline High Dose,Xanomeline High Dose,2013-07-19,2013-07-19T00:00:00Z,H,2014-01-14,2014-01-14T23:59:59Z,H,,180,2013-09-10,54,Week 8,,,,Head Circumference-for-age percentile,HDCPCTL,12,99.65517586752789,94.30920209751427,,,,,Y,Epoch,,82,HDCIRC,Head Circumference,,53.45,cm,53.45,53.45,cm,,,,8,WEEK 8,,2013-09-10,,,,,,1150,DAYS,100.45,cm
255,CDISCPILOT01,01-701-1028,1028,701,USA,VS,2013-07-19,2014-01-14,2013-07-19,2014-01-14,2014-01-14T11:10,,,51,2010-07-19,2010-07-19,2013-07-11,-8,3,YEARS,M,WHITE,NOT HISPANIC OR LATINO,Xanomeline High Dose,Xan_Hi,Xanomeline High Dose,Xan_Hi,Xanomeline High Dose,Xanomeline High Dose,2013-07-19,2013-07-19T00:00:00Z,H,2014-01-14,2014-01-14T23:59:59Z,H,,180,2013-10-09,83,Week 12,,,,Head Circumference-for-age percentile,HDCPCTL,12,99.88434084142547,94.30920209751427,,,,,Y,Epoch,,86,HDCIRC,Head Circumference,,54.02,cm,54.02,54.02,cm,,,,9,WEEK 12,,2013-10-09,,,,,,1179,DAYS,101.02,cm
256,CDISCPILOT01,01-701-1028,1028,701,USA,VS,2013-07-19,2014-01-14,2013-07-19,2014-01-14,2014-01-14T11:10,,,52,2010-07-19,2010-07-19,2013-07-11,-8,3,YEARS,M,WHITE,NOT HISPANIC OR LATINO,Xanomeline High Dose,Xan_Hi,Xanomeline High Dose,Xan_Hi,Xanomeline High Dose,Xanomeline High Dose,2013-07-19,2013-07-19T00:00:00Z,H,2014-01-14,2014-01-14T23:59:59Z,H,,180,2013-11-06,111,Week 16,,,,Head Circumference-for-age percentile,HDCPCTL,12,99.95448663623846,94.30920209751427,,,,,Y,Epoch,,90,HDCIRC,Head Circumference,,54.48,cm,54.48,54.48,cm,,,,10,WEEK 16,,2013-11-06,,,,,,1207,DAYS,101.48,cm
257,CDISCPILOT01,01-701-1028,1028,701,USA,VS,2013-07-19,2014-01-14,2013-07-19,2014-01-14,2014-01-14T11:10,,,53,2010-07-19,2010-07-19,2013-07-11,-8,3,YEARS,M,WHITE,NOT HISPANIC OR LATINO,Xanomeline High Dose,Xan_Hi,Xanomeline High Dose,Xan_Hi,Xanomeline High Dose,Xanomeline High Dose,2013-07-19,2013-07-19T00:00:00Z,H,2014-01-14,2014-01-14T23:59:59Z,H,,180,2013-12-04,139,Week 20,,,,Head Circumference-for-age percentile,HDCPCTL,12,99.98450264918647,94.30920209751427,,,,,Y,Epoch,,94,HDCIRC,Head Circumference,,54.97,cm,54.97,54.97,cm,,,,11,WEEK 20,,2013-12-04,,,,,,1235,DAYS,101.97,cm
258,CDISCPILOT01,01-701-1028,1028,701,USA,VS,2013-07-19,2014-01-14,2013-07-19,2014-01-14,2014-01-14T11:10,,,54,2010-07-19,2010-07-19,2013-07-11,-8,3,YEARS,M,WHITE,NOT HISPANIC OR LATINO,Xanomeline High Dose,Xan_Hi,Xanomeline High Dose,Xan_Hi,Xanomeline High Dose,Xanomeline High Dose,2013-07-19,2013-07-19T00:00:00Z,H,2014-01-14,2014-01-14T23:59:59Z,H,,180,2014-01-06,172,Week 24,,,,Head Circumference-for-age percentile,HDCPCTL,12,99.99469637031028,94.30920209751427,,,,,Y,Epoch,,98,HDCIRC,Head Circumference,,55.44,cm,55.44,55.44,cm,,,,12,WEEK 24,,2014-01-06,,,,,,1268,DAYS,102.44,cm
259,CDISCPILOT01,01-701-1028,1028,701,USA,VS,2013-07-19,2014-01-14,2013-07-19,2014-01-14,2014-01-14T11:10,,,55,2010-07-19,2010-07-19,2013-07-11,-8,3,YEARS,M,WHITE,NOT HISPANIC OR LATINO,Xanomeline High Dose,Xan_Hi,Xanomeline High Dose,Xan_Hi,Xanomeline High Dose,Xanomeline High Dose,2013-07-19,2013-07-19T00:00:00Z,H,2014-01-14,2014-01-14T23:59:59Z,H,,180,2014-01-14,180,Week 26,,,,Head Circumference-for-age percentile,HDCPCTL,12,99.99815242680616,94.30920209751427,,,,,Y,Epoch,,102,HDCIRC,Head Circumference,,55.82,cm,55.82,55.82,cm,,,,13,WEEK 26,,2014-01-14,,,,,,1276,DAYS,102.82,cm
260,CDISCPILOT01,01-701-1028,1028,701,USA,VS,2013-07-19,2014-01-14,2013-07-19,2014-01-14,2014-01-14T11:10,,,56,2010-07-19,2010-07-19,2013-07-11,-8,3,YEARS,M,WHITE,NOT HISPANIC OR LATINO,Xanomeline High Dose,Xan_Hi,Xanomeline High Dose,Xan_Hi,Xanomeline High Dose,Xanomeline High Dose,2013-07-19,2013-07-19T00:00:00Z,H,2014-01-14,2014-01-14T23:59:59Z,H,,180,2013-07-11,-8,Screening 1,-1,,,Head Circumference-for-age z-score,HDCSDS,11,1.3360387477874534,1.5812715660380439,,,,,,Epoch,,62,HDCIRC,Head Circumference,,51.34,cm,51.34,51.34,cm,,,,1,SCREENING 1,,2013-07-11,,,,,,1089,DAYS,98.32,cm
261,CDISCPILOT01,01-701-1028,1028,701,USA,VS,2013-07-19,2014-01-14,2013-07-19,2014-01-14,2014-01-14T11:10,,,57,2010-07-19,2010-07-19,2013-07-11,-8,3,YEARS,M,WHITE,NOT HISPANIC OR LATINO,Xanomeline High Dose,Xan_Hi,Xanomeline High Dose,Xan_Hi,Xanomeline High Dose,Xanomeline High Dose,2013-07-19,2013-07-19T00:00:00Z,H,2014-01-14,2014-01-14T23:59:59Z,H,,180,2013-07-19,1,Baseline,0,,,Head Circumference-for-age z-score,HDCSDS,11,1.5812715660380439,1.5812715660380439,,,Y,Y,,Epoch,,66,HDCIRC,Head Circumference,,51.71,cm,51.71,51.71,cm,,,,3,BASELINE,,2013-07-19,,,,,,1097,DAYS,98.95,cm
262,CDISCPILOT01,01-701-1028,1028,701,USA,VS,2013-07-19,2014-01-14,2013-07-19,2014-01-14,2014-01-14T11:10,,,58,2010-07-19,2010-07-19,2013-07-11,-8,3,YEARS,M,WHITE,NOT HISPANIC OR LATINO,Xanomeline High Dose,Xan_Hi,Xanomeline High Dose,Xan_Hi,Xanomeline High Dose,Xanomeline High Dose,2013-07-19,2013-07-19T00:00:00Z,H,2014-01-14,2014-01-14T23:59:59Z,H,,180,2013-08-01,14,Week 2,,,,Head Circumference-for-age z-score,HDCSDS,11,1.844595826161419,1.5812715660380439,,,,,Y,Epoch,,70,HDCIRC,Head Circumference,,52.12,cm,52.12,52.12,cm,,,,4,WEEK 2,,2013-08-01,,,,,,1110,DAYS,99.34,cm
263,CDISCPILOT01,01-701-1028,1028,701,USA,VS,2013-07-19,2014-01-14,2013-07-19,2014-01-14,2014-01-14T11:10,,,59,2010-07-19,2010-07-19,2013-07-11,-8,3,YEARS,M,WHITE,NOT HISPANIC OR LATINO,Xanomeline High Dose,Xan_Hi,Xanomeline High Dose,Xan_Hi,Xanomeline High Dose,Xanomeline High Dose,2013-07-19,2013-07-19T00:00:00Z,H,2014-01-14,2014-01-14T23:59:59Z,H,,180,2013-08-14,27,Week 4,,,,Head Circumference-for-age z-score,HDCSDS,11,2.129388077064753,1.5812715660380439,,,,,Y,Epoch,,74,HDCIRC,Head Circumference,,52.56,cm,52.56,52.56,cm,,,,5,WEEK 4,,2013-08-14,,,,,,1123,DAYS,99.68,cm
264,CDISCPILOT01,01-701-1028,1028,701,USA,VS,2013-07-19,2014-01-14,2013-07-19,2014-01-14,2014-01-14T11:10,,,60,2010-07-19,2010-07-19,2013-07-11,-8,3,YEARS,M,WHITE,NOT HISPANIC OR LATINO,Xanomeline High Dose,Xan_Hi,Xanomeline High Dose,Xan_Hi,Xanomeline High Dose,Xanomeline High Dose,2013-07-19,2013-07-19T00:00:00Z,H,2014-01-14,2014-01-14T23:59:59Z,H,,180,2013-08-29,42,Week 6,,,,Head Circumference-for-age z-score,HDCSDS,11,2.3604429627691914,1.5812715660380439,,,,,Y,Epoch,,78,HDCIRC,Head Circumference,,52.93,cm,52.93,52.93,cm,,,,7,WEEK 6,,2013-08-29,,,,,,1138,DAYS,100.13,cm
265,CDISCPILOT01,01-701-1028,1028,701,USA,VS,2013-07-19,2014-01-14,2013-07-19,2014-01-14,2014-01-14T11:10,,,61,2010-07-19,2010-07-19,2013-07-11,-8,3,YEARS,M,WHITE,NOT HISPANIC OR LATINO,Xanomeline High Dose,Xan_Hi,Xanomeline High Dose,Xan_Hi,Xanomeline High Dose,Xanomeline High Dose,2013-07-19,2013-07-19T00:00:00Z,H,2014-01-14,2014-01-14T23:59:59Z,H,,180,2013-09-10,54,Week 8,,,,Head Circumference-for-age z-score,HDCSDS,11,2.701801958769784,1.5812715660380439,,,,,Y,Epoch,,82,HDCIRC,Head Circumference,,53.45,cm,53.45,53.45,cm,,,,8,WEEK 8,,2013-09-10,,,,,,1150,DAYS,100.45,cm
266,CDISCPILOT01,01-701-1028,1028,701,USA,VS,2013-07-19,2014-01-14,2013-07-19,2014-01-14,2014-01-14T11:10,,,62,2010-07-19,2010-07-19,2013-07-11,-8,3,YEARS,M,WHITE,NOT HISPANIC OR LATINO,Xanomeline High Dose,Xan_Hi,Xanomeline High Dose,Xan_Hi,Xanomeline High Dose,Xanomeline High Dose,2013-07-19,2013-07-19T00:00:00Z,H,2014-01-14,2014-01-14T23:59:59Z,H,,180,2013-10-09,83,Week 12,,,,Head Circumference-for-age z-score,HDCSDS,11,3.0467652095512134,1.5812715660380439,,,,,Y,Epoch,,86,HDCIRC,Head Circumference,,54.02,cm,54.02,54.02,cm,,,,9,WEEK 12,,2013-10-09,,,,,,1179,DAYS,101.02,cm
267,CDISCPILOT01,01-701-1028,1028,701,USA,VS,2013-07-19,2014-01-14,2013-07-19,2014-01-14,2014-01-14T11:10,,,63,2010-07-19,2010-07-19,2013-07-11,-8,3,YEARS,M,WHITE,NOT HISPANIC OR LATINO,Xanomeline High Dose,Xan_Hi,Xanomeline High Dose,Xan_Hi,Xanomeline High Dose,Xanomeline High Dose,2013-07-19,2013-07-19T00:00:00Z,H,2014-01-14,2014-01-14T23:59:59Z,H,,180,2013-11-06,111,Week 16,,,,Head Circumference-for-age z-score,HDCSDS,11,3.3168860692835205,1.5812715660380439,,,,,Y,Epoch,,90,HDCIRC,Head Circumference,,54.48,cm,54.48,54.48,cm,,,,10,WEEK 16,,2013-11-06,,,,,,1207,DAYS,101.48,cm
268,CDISCPILOT01,01-701-1028,1028,701,USA,VS,2013-07-19,2014-01-14,2013-07-19,2014-01-14,2014-01-14T11:10,,,64,2010-07-19,2010-07-19,2013-07-11,-8,3,YEARS,M,WHITE,NOT HISPANIC OR LATINO,Xanomeline High Dose,Xan_Hi,Xanomeline High Dose,Xan_Hi,Xanomeline High Dose,Xanomeline High Dose,2013-07-19,2013-07-19T00:00:00Z,H,2014-01-14,2014-01-14T23:59:59Z,H,,180,2013-12-04,139,Week 20,,,,Head Circumference-for-age z-score,HDCSDS,11,3.6068413655609053,1.5812715660380439,,,,,Y,Epoch,,94,HDCIRC,Head Circumference,,54.97,cm,54.97,54.97,cm,,,,11,WEEK 20,,2013-12-04,,,,,,1235,DAYS,101.97,cm
269,CDISCPILOT01,01-701-1028,1028,701,USA,VS,2013-07-19,2014-01-14,2013-07-19,2014-01-14,2014-01-14T11:10,,,65,2010-07-19,2010-07-19,2013-07-11,-8,3,YEARS,M,WHITE,NOT HISPANIC OR LATINO,Xanomeline High Dose,Xan_Hi,Xanomeline High Dose,Xan_Hi,Xanomeline High Dose,Xanomeline High Dose,2013-07-19,2013-07-19T00:00:00Z,H,2014-01-14,2014-01-14T23:59:59Z,H,,180,2014-01-06,172,Week 24,,,,Head Circumference-for-age z-score,HDCSDS,11,3.876263999737461,1.5812715660380439,,,,,Y,Epoch,,98,HDCIRC,Head Circumference,,55.44,cm,55.44,55.44,cm,,,,12,WEEK 24,,2014-01-06,,,,,,1268,DAYS,102.44,cm
270,CDISCPILOT01,01-701-1028,1028,701,USA,VS,2013-07-19,2014-01-14,2013-07-19,2014-01-14,2014-01-14T11:10,,,66,2010-07-19,2010-07-19,2013-07-11,-8,3,YEARS,M,WHITE,NOT HISPANIC OR LATINO,Xanomeline High Dose,Xan_Hi,Xanomeline High Dose,Xan_Hi,Xanomeline High Dose,Xanomeline High Dose,2013-07-19,2013-07-19T00:00:00Z,H,2014-01-14,2014-01-14T23:59:59Z,H,,180,2014-01-14,180,Week 26,,,,Head Circumference-for-age z-score,HDCSDS,11,4.12575864265207,1.5812715660380439,,,,,Y,Epoch,,102,HDCIRC,Head Circumference,,55.82,cm,55.82,55.82,cm,,,,13,WEEK 26,,2014-01-14,,,,,,1276,DAYS,102.82,cm
271,CDISCPILOT01,01-701-1028,1028,701,USA,VS,2013-07-19,2014-01-14,2013-07-19,2014-01-14,2014-01-14T11:10,,,67,2010-07-19,2010-07-19,2013-07-11,-8,3,YEARS,M,WHITE,NOT HISPANIC OR LATINO,Xanomeline High Dose,Xan_Hi,Xanomeline High Dose,Xan_Hi,Xanomeline High Dose,Xanomeline High Dose,2013-07-19,2013-07-19T00:00:00Z,H,2014-01-14,2014-01-14T23:59:59Z,H,,180,2013-07-11,-8,Screening 1,-1,,,Height (cm),HEIGHT,2,98.32,98.95,,,,,,Epoch,,63,HEIGHT,Height,,98.32,cm,98.32,98.32,cm,,,,1,SCREENING 1,,2013-07-11,,,,,,1089,DAYS,98.32,cm
272,CDISCPILOT01,01-701-1028,1028,701,USA,VS,2013-07-19,2014-01-14,2013-07-19,2014-01-14,2014-01-14T11:10,,,68,2010-07-19,2010-07-19,2013-07-11,-8,3,YEARS,M,WHITE,NOT HISPANIC OR LATINO,Xanomeline High Dose,Xan_Hi,Xanomeline High Dose,Xan_Hi,Xanomeline High Dose,Xanomeline High Dose,2013-07-19,2013-07-19T00:00:00Z,H,2014-01-14,2014-01-14T23:59:59Z,H,,180,2013-07-19,1,Baseline,0,,,Height (cm),HEIGHT,2,98.95,98.95,,,Y,Y,,Epoch,,67,HEIGHT,Height,,98.95,cm,98.95,98.95,cm,,,,3,BASELINE,,2013-07-19,,,,,,1097,DAYS,98.95,cm
273,CDISCPILOT01,01-701-1028,1028,701,USA,VS,2013-07-19,2014-01-14,2013-07-19,2014-01-14,2014-01-14T11:10,,,69,2010-07-19,2010-07-19,2013-07-11,-8,3,YEARS,M,WHITE,NOT HISPANIC OR LATINO,Xanomeline High Dose,Xan_Hi,Xanomeline High Dose,Xan_Hi,Xanomeline High Dose,Xanomeline High Dose,2013-07-19,2013-07-19T00:00:00Z,H,2014-01-14,2014-01-14T23:59:59Z,H,,180,2013-08-01,14,Week 2,,,,Height (cm),HEIGHT,2,99.34,98.95,,,,,Y,Epoch,,71,HEIGHT,Height,,99.34,cm,99.34,99.34,cm,,,,4,WEEK 2,,2013-08-01,,,,,,1110,DAYS,99.34,cm
274,CDISCPILOT01,01-701-1028,1028,701,USA,VS,2013-07-19,2014-01-14,2013-07-19,2014-01-14,2014-01-14T11:10,,,70,2010-07-19,2010-07-19,2013-07-11,-8,3,YEARS,M,WHITE,NOT HISPANIC OR LATINO,Xanomeline High Dose,Xan_Hi,Xanomeline High Dose,Xan_Hi,Xanomeline High Dose,Xanomeline High Dose,2013-07-19,2013-07-19T00:00:00Z,H,2014-01-14,2014-01-14T23:59:59Z,H,,180,2013-08-14,27,Week 4,,,,Height (cm),HEIGHT,2,99.68,98.95,,,,,Y,Epoch,,75,HEIGHT,Height,,99.68,cm,99.68,99.68,cm,,,,5,WEEK 4,,2013-08-14,,,,,,1123,DAYS,99.68,cm
275,CDISCPILOT01,01-701-1028,1028,701,USA,VS,2013-07-19,2014-01-14,2013-07-19,2014-01-14,2014-01-14T11:10,,,71,2010-07-19,2010-07-19,2013-07-11,-8,3,YEARS,M,WHITE,NOT HISPANIC OR LATINO,Xanomeline High Dose,Xan_Hi,Xanomeline High Dose,Xan_Hi,Xanomeline High Dose,Xanomeline High Dose,2013-07-19,2013-07-19T00:00:00Z,H,2014-01-14,2014-01-14T23:59:59Z,H,,180,2013-08-29,42,Week 6,,,,Height (cm),HEIGHT,2,100.13,98.95,,,,,Y,Epoch,,79,HEIGHT,Height,,100.13,cm,100.13,100.13,cm,,,,7,WEEK 6,,2013-08-29,,,,,,1138,DAYS,100.13,cm
276,CDISCPILOT01,01-701-1028,1028,701,USA,VS,2013-07-19,2014-01-14,2013-07-19,2014-01-14,2014-01-14T11:10,,,72,2010-07-19,2010-07-19,2013-07-11,-8,3,YEARS,M,WHITE,NOT HISPANIC OR LATINO,Xanomeline High Dose,Xan_Hi,Xanomeline High Dose,Xan_Hi,Xanomeline High Dose,Xanomeline High Dose,2013-07-19,2013-07-19T00:00:00Z,H,2014-01-14,2014-01-14T23:59:59Z,H,,180,2013-09-10,54,Week 8,,,,Height (cm),HEIGHT,2,100.45,98.95,,,,,Y,Epoch,,83,HEIGHT,Height,,100.45,cm,100.45,100.45,cm,,,,8,WEEK 8,,2013-09-10,,,,,,1150,DAYS,100.45,cm
277,CDISCPILOT01,01-701-1028,1028,701,USA,VS,2013-07-19,2014-01-14,2013-07-19,2014-01-14,2014-01-14T11:10,,,73,2010-07-19,2010-07-19,2013-07-11,-8,3,YEARS,M,WHITE,NOT HISPANIC OR LATINO,Xanomeline High Dose,Xan_Hi,Xanomeline High Dose,Xan_Hi,Xanomeline High Dose,Xanomeline High Dose,2013-07-19,2013-07-19T00:00:00Z,H,2014-01-14,2014-01-14T23:59:59Z,H,,180,2013-10-09,83,Week 12,,,,Height (cm),HEIGHT,2,101.02,98.95,,,,,Y,Epoch,,87,HEIGHT,Height,,101.02,cm,101.02,101.02,cm,,,,9,WEEK 12,,2013-10-09,,,,,,1179,DAYS,101.02,cm
278,CDISCPILOT01,01-701-1028,1028,701,USA,VS,2013-07-19,2014-01-14,2013-07-19,2014-01-14,2014-01-14T11:10,,,74,2010-07-19,2010-07-19,2013-07-11,-8,3,YEARS,M,WHITE,NOT HISPANIC OR LATINO,Xanomeline High Dose,Xan_Hi,Xanomeline High Dose,Xan_Hi,Xanomeline High Dose,Xanomeline High Dose,2013-07-19,2013-07-19T00:00:00Z,H,2014-01-14,2014-01-14T23:59:59Z,H,,180,2013-11-06,111,Week 16,,,,Height (cm),HEIGHT,2,101.48,98.95,,,,,Y,Epoch,,91,HEIGHT,Height,,101.48,cm,101.48,101.48,cm,,,,10,WEEK 16,,2013-11-06,,,,,,1207,DAYS,101.48,cm
279,CDISCPILOT01,01-701-1028,1028,701,USA,VS,2013-07-19,2014-01-14,2013-07-19,2014-01-14,2014-01-14T11:10,,,75,2010-07-19,2010-07-19,2013-07-11,-8,3,YEARS,M,WHITE,NOT HISPANIC OR LATINO,Xanomeline High Dose,Xan_Hi,Xanomeline High Dose,Xan_Hi,Xanomeline High Dose,Xanomeline High Dose,2013-07-19,2013-07-19T00:00:00Z,H,2014-01-14,2014-01-14T23:59:59Z,H,,180,2013-12-04,139,Week 20,,,,Height (cm),HEIGHT,2,101.97,98.95,,,,,Y,Epoch,,95,HEIGHT,Height,,101.97,cm,101.97,101.97,cm,,,,11,WEEK 20,,2013-12-04,,,,,,1235,DAYS,101.97,cm
280,CDISCPILOT01,01-701-1028,1028,701,USA,VS,2013-07-19,2014-01-14,2013-07-19,2014-01-14,2014-01-14T11:10,,,76,2010-07-19,2010-07-19,2013-07-11,-8,3,YEARS,M,WHITE,NOT HISPANIC OR LATINO,Xanomeline High Dose,Xan_Hi,Xanomeline High Dose,Xan_Hi,Xanomeline High Dose,Xanomeline High Dose,2013-07-19,2013-07-19T00:00:00Z,H,2014-01-14,2014-01-14T23:59:59Z,H,,180,2014-01-06,172,Week 24,,,,Height (cm),HEIGHT,2,102.44,98.95,,,,,Y,Epoch,,99,HEIGHT,Height,,102.44,cm,102.44,102.44,cm,,,,12,WEEK 24,,2014-01-06,,,,,,1268,DAYS,102.44,cm
281,CDISCPILOT01,01-701-1028,1028,701,USA,VS,2013-07-19,2014-01-14,2013-07-19,2014-01-14,2014-01-14T11:10,,,77,2010-07-19,2010-07-19,2013-07-11,-8,3,YEARS,M,WHITE,NOT HISPANIC OR LATINO,Xanomeline High Dose,Xan_Hi,Xanomeline High Dose,Xan_Hi,Xanomeline High Dose,Xanomeline High Dose,2013-07-19,2013-07-19T00:00:00Z,H,2014-01-14,2014-01-14T23:59:59Z,H,,180,2014-01-14,180,Week 26,,,,Height (cm),HEIGHT,2,102.82,98.95,,,,,Y,Epoch,,103,HEIGHT,Height,,102.82,cm,102.82,102.82,cm,,,,13,WEEK 26,,2014-01-14,,,,,,1276,DAYS,102.82,cm
282,CDISCPILOT01,01-701-1028,1028,701,USA,VS,2013-07-19,2014-01-14,2013-07-19,2014-01-14,2014-01-14T11:10,,,78,2010-07-19,2010-07-19,2013-07-11,-8,3,YEARS,M,WHITE,NOT HISPANIC OR LATINO,Xanomeline High Dose,Xan_Hi,Xanomeline High Dose,Xan_Hi,Xanomeline High Dose,Xanomeline High Dose,2013-07-19,2013-07-19T00:00:00Z,H,2014-01-14,2014-01-14T23:59:59Z,H,,180,2013-07-11,-8,Screening 1,-1,,,Height-for-age percentile,HGTPCTL,8,81.29078523784226,84.16820899048439,,,,,,Epoch,,63,HEIGHT,Height,,98.32,cm,98.32,98.32,cm,,,,1,SCREENING 1,,2013-07-11,,,,,,1089,DAYS,98.32,cm
283,CDISCPILOT01,01-701-1028,1028,701,USA,VS,2013-07-19,2014-01-14,2013-07-19,2014-01-14,2014-01-14T11:10,,,79,2010-07-19,2010-07-19,2013-07-11,-8,3,YEARS,M,WHITE,NOT HISPANIC OR LATINO,Xanomeline High Dose,Xan_Hi,Xanomeline High Dose,Xan_Hi,Xanomeline High Dose,Xanomeline High Dose,2013-07-19,2013-07-19T00:00:00Z,H,2014-01-14,2014-01-14T23:59:59Z,H,,180,2013-07-19,1,Baseline,0,,,Height-for-age percentile,HGTPCTL,8,84.16820899048439,84.16820899048439,,,Y,Y,,Epoch,,67,HEIGHT,Height,,98.95,cm,98.95,98.95,cm,,,,3,BASELINE,,2013-07-19,,,,,,1097,DAYS,98.95,cm
284,CDISCPILOT01,01-701-1028,1028,701,USA,VS,2013-07-19,2014-01-14,2013-07-19,2014-01-14,2014-01-14T11:10,,,80,2010-07-19,2010-07-19,2013-07-11,-8,3,YEARS,M,WHITE,NOT HISPANIC OR LATINO,Xanomeline High Dose,Xan_Hi,Xanomeline High Dose,Xan_Hi,Xanomeline High Dose,Xanomeline High Dose,2013-07-19,2013-07-19T00:00:00Z,H,2014-01-14,2014-01-14T23:59:59Z,H,,180,2013-08-01,14,Week 2,,,,Height-for-age percentile,HGTPCTL,8,84.80326499204777,84.16820899048439,,,,,Y,Epoch,,71,HEIGHT,Height,,99.34,cm,99.34,99.34,cm,,,,4,WEEK 2,,2013-08-01,,,,,,1110,DAYS,99.34,cm
285,CDISCPILOT01,01-701-1028,1028,701,USA,VS,2013-07-19,2014-01-14,2013-07-19,2014-01-14,2014-01-14T11:10,,,81,2010-07-19,2010-07-19,2013-07-11,-8,3,YEARS,M,WHITE,NOT HISPANIC OR LATINO,Xanomeline High Dose,Xan_Hi,Xanomeline High Dose,Xan_Hi,Xanomeline High Dose,Xanomeline High Dose,2013-07-19,2013-07-19T00:00:00Z,H,2014-01-14,2014-01-14T23:59:59Z,H,,180,2013-08-14,27,Week 4,,,,Height-for-age percentile,HGTPCTL,8,85.11149798526978,84.16820899048439,,,,,Y,Epoch,,75,HEIGHT,Height,,99.68,cm,99.68,99.68,cm,,,,5,WEEK 4,,2013-08-14,,,,,,1123,DAYS,99.68,cm
286,CDISCPILOT01,01-701-1028,1028,701,USA,VS,2013-07-19,2014-01-14,2013-07-19,2014-01-14,2014-01-14T11:10,,,82,2010-07-19,2010-07-19,2013-07-11,-8,3,YEARS,M,WHITE,NOT HISPANIC OR LATINO,Xanomeline High Dose,Xan_Hi,Xanomeline High Dose,Xan_Hi,Xanomeline High Dose,Xanomeline High Dose,2013-07-19,2013-07-19T00:00:00Z,H,2014-01-14,2014-01-14T23:59:59Z,H,,180,2013-08-29,42,Week 6,,,,Height-for-age percentile,HGTPCTL,8,85.77701753752159,84.16820899048439,,,,,Y,Epoch,,79,HEIGHT,Height,,100.13,cm,100.13,100.13,cm,,,,7,WEEK 6,,2013-08-29,,,,,,1138,DAYS,100.13,cm
287,CDISCPILOT01,01-701-1028,1028,701,USA,VS,2013-07-19,2014-01-14,2013-07-19,2014-01-14,2014-01-14T11:10,,,83,2010-07-19,2010-07-19,2013-07-11,-8,3,YEARS,M,WHITE,NOT HISPANIC OR LATINO,Xanomeline High Dose,Xan_Hi,Xanomeline High Dose,Xan_Hi,Xanomeline High Dose,Xanomeline High Dose,2013-07-19,2013-07-19T00:00:00Z,H,2014-01-14,2014-01-14T23:59:59Z,H,,180,2013-09-10,54,Week 8,,,,Height-for-age percentile,HGTPCTL,8,86.1254572389161,84.16820899048439,,,,,Y,Epoch,,83,HEIGHT,Height,,100.45,cm,100.45,100.45,cm,,,,8,WEEK 8,,2013-09-10,,,,,,1150,DAYS,100.45,cm
288,CDISCPILOT01,01-701-1028,1028,701,USA,VS,2013-07-19,2014-01-14,2013-07-19,2014-01-14,2014-01-14T11:10,,,84,2010-07-19,2010-07-19,2013-07-11,-8,3,YEARS,M,WHITE,NOT HISPANIC OR LATINO,Xanomeline High Dose,Xan_Hi,Xanomeline High Dose,Xan_Hi,Xanomeline High Dose,Xanomeline High Dose,2013-07-19,2013-07-19T00:00:00Z,H,2014-01-14,2014-01-14T23:59:59Z,H,,180,2013-10-09,83,Week 12,,,,Height-for-age percentile,HGTPCTL,8,85.8858016429185,84.16820899048439,,,,,Y,Epoch,,87,HEIGHT,Height,,101.02,cm,101.02,101.02,cm,,,,9,WEEK 12,,2013-10-09,,,,,,1179,DAYS,101.02,cm
289,CDISCPILOT01,01-701-1028,1028,701,USA,VS,2013-07-19,2014-01-14,2013-07-19,2014-01-14,2014-01-14T11:10,,,85,2010-07-19,2010-07-19,2013-07-11,-8,3,YEARS,M,WHITE,NOT HISPANIC OR LATINO,Xanomeline High Dose,Xan_Hi,Xanomeline High Dose,Xan_Hi,Xanomeline High Dose,Xanomeline High Dose,2013-07-19,2013-07-19T00:00:00Z,H,2014-01-14,2014-01-14T23:59:59Z,H,,180,2013-11-06,111,Week 16,,,,Height-for-age percentile,HGTPCTL,8,85.12178866182755,84.16820899048439,,,,,Y,Epoch,,91,HEIGHT,Height,,101.48,cm,101.48,101.48,cm,,,,10,WEEK 16,,2013-11-06,,,,,,1207,DAYS,101.48,cm
290,CDISCPILOT01,01-701-1028,1028,701,USA,VS,2013-07-19,2014-01-14,2013-07-19,2014-01-14,2014-01-14T11:10,,,86,2010-07-19,2010-07-19,2013-07-11,-8,3,YEARS,M,WHITE,NOT HISPANIC OR LATINO,Xanomeline High Dose,Xan_Hi,Xanomeline High Dose,Xan_Hi,Xanomeline High Dose,Xanomeline High Dose,2013-07-19,2013-07-19T00:00:00Z,H,2014-01-14,2014-01-14T23:59:59Z,H,,180,2013-12-04,139,Week 20,,,,Height-for-age percentile,HGTPCTL,8,84.62197634942268,84.16820899048439,,,,,Y,Epoch,,95,HEIGHT,Height,,101.97,cm,101.97,101.97,cm,,,,11,WEEK 20,,2013-12-04,,,,,,1235,DAYS,101.97,cm
291,CDISCPILOT01,01-701-1028,1028,701,USA,VS,2013-07-19,2014-01-14,2013-07-19,2014-01-14,2014-01-14T11:10,,,87,2010-07-19,2010-07-19,2013-07-11,-8,3,YEARS,M,WHITE,NOT HISPANIC OR LATINO,Xanomeline High Dose,Xan_Hi,Xanomeline High Dose,Xan_Hi,Xanomeline High Dose,Xanomeline High Dose,2013-07-19,2013-07-19T00:00:00Z,H,2014-01-14,2014-01-14T23:59:59Z,H,,180,2014-01-06,172,Week 24,,,,Height-for-age percentile,HGTPCTL,8,83.32045091494561,84.16820899048439,,,,,Y,Epoch,,99,HEIGHT,Height,,102.44,cm,102.44,102.44,cm,,,,12,WEEK 24,,2014-01-06,,,,,,1268,DAYS,102.44,cm
292,CDISCPILOT01,01-701-1028,1028,701,USA,VS,2013-07-19,2014-01-14,2013-07-19,2014-01-14,2014-01-14T11:10,,,88,2010-07-19,2010-07-19,2013-07-11,-8,3,YEARS,M,WHITE,NOT HISPANIC OR LATINO,Xanomeline High Dose,Xan_Hi,Xanomeline High Dose,Xan_Hi,Xanomeline High Dose,Xanomeline High Dose,2013-07-19,2013-07-19T00:00:00Z,H,2014-01-14,2014-01-14T23:59:59Z,H,,180,2014-01-14,180,Week 26,,,,Height-for-age percentile,HGTPCTL,8,84.60376026451443,84.16820899048439,,,,,Y,Epoch,,103,HEIGHT,Height,,102.82,cm,102.82,102.82,cm,,,,13,WEEK 26,,2014-01-14,,,,,,1276,DAYS,102.82,cm
293,CDISCPILOT01,01-701-1028,1028,701,USA,VS,2013-07-19,2014-01-14,2013-07-19,2014-01-14,2014-01-14T11:10,,,89,2010-07-19,2010-07-19,2013-07-11,-8,3,YEARS,M,WHITE,NOT HISPANIC OR LATINO,Xanomeline High Dose,Xan_Hi,Xanomeline High Dose,Xan_Hi,Xanomeline High Dose,Xanomeline High Dose,2013-07-19,2013-07-19T00:00:00Z,H,2014-01-14,2014-01-14T23:59:59Z,H,,180,2013-07-11,-8,Screening 1,-1,,,Height-for-age z-score,HGTSDS,7,0.8886628632600393,1.001395124635459,,,,,,Epoch,,63,HEIGHT,Height,,98.32,cm,98.32,98.32,cm,,,,1,SCREENING 1,,2013-07-11,,,,,,1089,DAYS,98.32,cm
294,CDISCPILOT01,01-701-1028,1028,701,USA,VS,2013-07-19,2014-01-14,2013-07-19,2014-01-14,2014-01-14T11:10,,,90,2010-07-19,2010-07-19,2013-07-11,-8,3,YEARS,M,WHITE,NOT HISPANIC OR LATINO,Xanomeline High Dose,Xan_Hi,Xanomeline High Dose,Xan_Hi,Xanomeline High Dose,Xanomeline High Dose,2013-07-19,2013-07-19T00:00:00Z,H,2014-01-14,2014-01-14T23:59:59Z,H,,180,2013-07-19,1,Baseline,0,,,Height-for-age z-score,HGTSDS,7,1.001395124635459,1.001395124635459,,,Y,Y,,Epoch,,67,HEIGHT,Height,,98.95,cm,98.95,98.95,cm,,,,3,BASELINE,,2013-07-19,,,,,,1097,DAYS,98.95,cm
295,CDISCPILOT01,01-701-1028,1028,701,USA,VS,2013-07-19,2014-01-14,2013-07-19,2014-01-14,2014-01-14T11:10,,,91,2010-07-19,2010-07-19,2013-07-11,-8,3,YEARS,M,WHITE,NOT HISPANIC OR LATINO,Xanomeline High Dose,Xan_Hi,Xanomeline High Dose,Xan_Hi,Xanomeline High Dose,Xanomeline High Dose,2013-07-19,2013-07-19T00:00:00Z,H,2014-01-14,2014-01-14T23:59:59Z,H,,180,2013-08-01,14,Week 2,,,,Height-for-age z-score,HGTSDS,7,1.0280321597683135,1.001395124635459,,,,,Y,Epoch,,71,HEIGHT,Height,,99.34,cm,99.34,99.34,cm,,,,4,WEEK 2,,2013-08-01,,,,,,1110,DAYS,99.34,cm
296,CDISCPILOT01,01-701-1028,1028,701,USA,VS,2013-07-19,2014-01-14,2013-07-19,2014-01-14,2014-01-14T11:10,,,92,2010-07-19,2010-07-19,2013-07-11,-8,3,YEARS,M,WHITE,NOT HISPANIC OR LATINO,Xanomeline High Dose,Xan_Hi,Xanomeline High Dose,Xan_Hi,Xanomeline High Dose,Xanomeline High Dose,2013-07-19,2013-07-19T00:00:00Z,H,2014-01-14,2014-01-14T23:59:59Z,H,,180,2013-08-14,27,Week 4,,,,Height-for-age z-score,HGTSDS,7,1.0412273603979254,1.001395124635459,,,,,Y,Epoch,,75,HEIGHT,Height,,99.68,cm,99.68,99.68,cm,,,,5,WEEK 4,,2013-08-14,,,,,,1123,DAYS,99.68,cm
297,CDISCPILOT01,01-701-1028,1028,701,USA,VS,2013-07-19,2014-01-14,2013-07-19,2014-01-14,2014-01-14T11:10,,,93,2010-07-19,2010-07-19,2013-07-11,-8,3,YEARS,M,WHITE,NOT HISPANIC OR LATINO,Xanomeline High Dose,Xan_Hi,Xanomeline High Dose,Xan_Hi,Xanomeline High Dose,Xanomeline High Dose,2013-07-19,2013-07-19T00:00:00Z,H,2014-01-14,2014-01-14T23:59:59Z,H,,180,2013-08-29,42,Week 6,,,,Height-for-age z-score,HGTSDS,7,1.0703547716549224,1.001395124635459,,,,,Y,Epoch,,79,HEIGHT,Height,,100.13,cm,100.13,100.13,cm,,,,7,WEEK 6,,2013-08-29,,,,,,1138,DAYS,100.13,cm
298,CDISCPILOT01,01-701-1028,1028,701,USA,VS,2013-07-19,2014-01-14,2013-07-19,2014-01-14,2014-01-14T11:10,,,94,2010-07-19,2010-07-19,2013-07-11,-8,3,YEARS,M,WHITE,NOT HISPANIC OR LATINO,Xanomeline High Dose,Xan_Hi,Xanomeline High Dose,Xan_Hi,Xanomeline High Dose,Xanomeline High Dose,2013-07-19,2013-07-19T00:00:00Z,H,2014-01-14,2014-01-14T23:59:59Z,H,,180,2013-09-10,54,Week 8,,,,Height-for-age z-score,HGTSDS,7,1.0859731867249414,1.001395124635459,,,,,Y,Epoch,,83,HEIGHT,Height,,100.45,cm,100.45,100.45,cm,,,,8,WEEK 8,,2013-09-10,,,,,,1150,DAYS,100.45,cm
299,CDISCPILOT01,01-701-1028,1028,701,USA,VS,2013-07-19,2014-01-14,2013-07-19,2014-01-14,2014-01-14T11:10,,,95,2010-07-19,2010-07-19,2013-07-11,-8,3,YEARS,M,WHITE,NOT HISPANIC OR LATINO,Xanomeline High Dose,Xan_Hi,Xanomeline High Dose,Xan_Hi,Xanomeline High Dose,Xanomeline High Dose,2013-07-19,2013-07-19T00:00:00Z,H,2014-01-14,2014-01-14T23:59:59Z,H,,180,2013-10-09,83,Week 12,,,,Height-for-age z-score,HGTSDS,7,1.0752027440991854,1.001395124635459,,,,,Y,Epoch,,87,HEIGHT,Height,,101.02,cm,101.02,101.02,cm,,,,9,WEEK 12,,2013-10-09,,,,,,1179,DAYS,101.02,cm
300,CDISCPILOT01,01-701-1028,1028,701,USA,VS,2013-07-19,2014-01-14,2013-07-19,2014-01-14,2014-01-14T11:10,,,96,2010-07-19,2010-07-19,2013-07-11,-8,3,YEARS,M,WHITE,NOT HISPANIC OR LATINO,Xanomeline High Dose,Xan_Hi,Xanomeline High Dose,Xan_Hi,Xanomeline High Dose,Xanomeline High Dose,2013-07-19,2013-07-19T00:00:00Z,H,2014-01-14,2014-01-14T23:59:59Z,H,,180,2013-11-06,111,Week 16,,,,Height-for-age z-score,HGTSDS,7,1.0416710255575894,1.001395124635459,,,,,Y,Epoch,,91,HEIGHT,Height,,101.48,cm,101.48,101.48,cm,,,,10,WEEK 16,,2013-11-06,,,,,,1207,DAYS,101.48,cm
301,CDISCPILOT01,01-701-1028,1028,701,USA,VS,2013-07-19,2014-01-14,2013-07-19,2014-01-14,2014-01-14T11:10,,,97,2010-07-19,2010-07-19,2013-07-11,-8,3,YEARS,M,WHITE,NOT HISPANIC OR LATINO,Xanomeline High Dose,Xan_Hi,Xanomeline High Dose,Xan_Hi,Xanomeline High Dose,Xanomeline High Dose,2013-07-19,2013-07-19T00:00:00Z,H,2014-01-14,2014-01-14T23:59:59Z,H,,180,2013-12-04,139,Week 20,,,,Height-for-age z-score,HGTSDS,7,1.0203542713025042,1.001395124635459,,,,,Y,Epoch,,95,HEIGHT,Height,,101.97,cm,101.97,101.97,cm,,,,11,WEEK 20,,2013-12-04,,,,,,1235,DAYS,101.97,cm
302,CDISCPILOT01,01-701-1028,1028,701,USA,VS,2013-07-19,2014-01-14,2013-07-19,2014-01-14,2014-01-14T11:10,,,98,2010-07-19,2010-07-19,2013-07-11,-8,3,YEARS,M,WHITE,NOT HISPANIC OR LATINO,Xanomeline High Dose,Xan_Hi,Xanomeline High Dose,Xan_Hi,Xanomeline High Dose,Xanomeline High Dose,2013-07-19,2013-07-19T00:00:00Z,H,2014-01-14,2014-01-14T23:59:59Z,H,,180,2014-01-06,172,Week 24,,,,Height-for-age z-score,HGTSDS,7,0.9669060904714374,1.001395124635459,,,,,Y,Epoch,,99,HEIGHT,Height,,102.44,cm,102.44,102.44,cm,,,,12,WEEK 24,,2014-01-06,,,,,,1268,DAYS,102.44,cm
303,CDISCPILOT01,01-701-1028,1028,701,USA,VS,2013-07-19,2014-01-14,2013-07-19,2014-01-14,2014-01-14T11:10,,,99,2010-07-19,2010-07-19,2013-07-11,-8,3,YEARS,M,WHITE,NOT HISPANIC OR LATINO,Xanomeline High Dose,Xan_Hi,Xanomeline High Dose,Xan_Hi,Xanomeline High Dose,Xanomeline High Dose,2013-07-19,2013-07-19T00:00:00Z,H,2014-01-14,2014-01-14T23:59:59Z,H,,180,2014-01-14,180,Week 26,,,,Height-for-age z-score,HGTSDS,7,1.0195861111750875,1.001395124635459,,,,,Y,Epoch,,103,HEIGHT,Height,,102.82,cm,102.82,102.82,cm,,,,13,WEEK 26,,2014-01-14,,,,,,1276,DAYS,102.82,cm
304,CDISCPILOT01,01-701-1028,1028,701,USA,VS,2013-07-19,2014-01-14,2013-07-19,2014-01-14,2014-01-14T11:10,,,100,2010-07-19,2010-07-19,2013-07-11,-8,3,YEARS,M,WHITE,NOT HISPANIC OR LATINO,Xanomeline High Dose,Xan_Hi,Xanomeline High Dose,Xan_Hi,Xanomeline High Dose,Xanomeline High Dose,2013-07-19,2013-07-19T00:00:00Z,H,2014-01-14,2014-01-14T23:59:59Z,H,,180,2013-07-11,-8,Screening 1,-1,,,Weight (kg),WEIGHT,1,14.65,14.95,,,,,,Epoch,,64,WEIGHT,Weight,,14.65,kg,14.65,14.65,kg,,,,1,SCREENING 1,,2013-07-11,,,,,,1089,DAYS,98.32,cm
305,CDISCPILOT01,01-701-1028,1028,701,USA,VS,2013-07-19,2014-01-14,2013-07-19,2014-01-14,2014-01-14T11:10,,,101,2010-07-19,2010-07-19,2013-07-11,-8,3,YEARS,M,WHITE,NOT HISPANIC OR LATINO,Xanomeline High Dose,Xan_Hi,Xanomeline High Dose,Xan_Hi,Xanomeline High Dose,Xanomeline High Dose,2013-07-19,2013-07-19T00:00:00Z,H,2014-01-14,2014-01-14T23:59:59Z,H,,180,2013-07-19,1,Baseline,0,,,Weight (kg),WEIGHT,1,14.95,14.95,,,Y,Y,,Epoch,,68,WEIGHT,Weight,,14.95,kg,14.95,14.95,kg,,,,3,BASELINE,,2013-07-19,,,,,,1097,DAYS,98.95,cm
306,CDISCPILOT01,01-701-1028,1028,701,USA,VS,2013-07-19,2014-01-14,2013-07-19,2014-01-14,2014-01-14T11:10,,,102,2010-07-19,2010-07-19,2013-07-11,-8,3,YEARS,M,WHITE,NOT HISPANIC OR LATINO,Xanomeline High Dose,Xan_Hi,Xanomeline High Dose,Xan_Hi,Xanomeline High Dose,Xanomeline High Dose,2013-07-19,2013-07-19T00:00:00Z,H,2014-01-14,2014-01-14T23:59:59Z,H,,180,2013-08-01,14,Week 2,,,,Weight (kg),WEIGHT,1,15.17,14.95,,,,,Y,Epoch,,72,WEIGHT,Weight,,15.17,kg,15.17,15.17,kg,,,,4,WEEK 2,,2013-08-01,,,,,,1110,DAYS,99.34,cm
307,CDISCPILOT01,01-701-1028,1028,701,USA,VS,2013-07-19,2014-01-14,2013-07-19,2014-01-14,2014-01-14T11:10,,,103,2010-07-19,2010-07-19,2013-07-11,-8,3,YEARS,M,WHITE,NOT HISPANIC OR LATINO,Xanomeline High Dose,Xan_Hi,Xanomeline High Dose,Xan_Hi,Xanomeline High Dose,Xanomeline High Dose,2013-07-19,2013-07-19T00:00:00Z,H,2014-01-14,2014-01-14T23:59:59Z,H,,180,2013-08-14,27,Week 4,,,,Weight (kg),WEIGHT,1,15.43,14.95,,,,,Y,Epoch,,76,WEIGHT,Weight,,15.43,kg,15.43,15.43,kg,,,,5,WEEK 4,,2013-08-14,,,,,,1123,DAYS,99.68,cm
308,CDISCPILOT01,01-701-1028,1028,701,USA,VS,2013-07-19,2014-01-14,2013-07-19,2014-01-14,2014-01-14T11:10,,,104,2010-07-19,2010-07-19,2013-07-11,-8,3,YEARS,M,WHITE,NOT HISPANIC OR LATINO,Xanomeline High Dose,Xan_Hi,Xanomeline High Dose,Xan_Hi,Xanomeline High Dose,Xanomeline High Dose,2013-07-19,2013-07-19T00:00:00Z,H,2014-01-14,2014-01-14T23:59:59Z,H,,180,2013-08-29,42,Week 6,,,,Weight (kg),WEIGHT,1,15.66,14.95,,,,,Y,Epoch,,80,WEIGHT,Weight,,15.66,kg,15.66,15.66,kg,,,,7,WEEK 6,,2013-08-29,,,,,,1138,DAYS,100.13,cm
309,CDISCPILOT01,01-701-1028,1028,701,USA,VS,2013-07-19,2014-01-14,2013-07-19,2014-01-14,2014-01-14T11:10,,,105,2010-07-19,2010-07-19,2013-07-11,-8,3,YEARS,M,WHITE,NOT HISPANIC OR LATINO,Xanomeline High Dose,Xan_Hi,Xanomeline High Dose,Xan_Hi,Xanomeline High Dose,Xanomeline High Dose,2013-07-19,2013-07-19T00:00:00Z,H,2014-01-14,2014-01-14T23:59:59Z,H,,180,2013-09-10,54,Week 8,,,,Weight (kg),WEIGHT,1,15.84,14.95,,,,,Y,Epoch,,84,WEIGHT,Weight,,15.84,kg,15.84,15.84,kg,,,,8,WEEK 8,,2013-09-10,,,,,,1150,DAYS,100.45,cm
310,CDISCPILOT01,01-701-1028,1028,701,USA,VS,2013-07-19,2014-01-14,2013-07-19,2014-01-14,2014-01-14T11:10,,,106,2010-07-19,2010-07-19,2013-07-11,-8,3,YEARS,M,WHITE,NOT HISPANIC OR LATINO,Xanomeline High Dose,Xan_Hi,Xanomeline High Dose,Xan_Hi,Xanomeline High Dose,Xanomeline High Dose,2013-07-19,2013-07-19T00:00:00Z,H,2014-01-14,2014-01-14T23:59:59Z,H,,180,2013-10-09,83,Week 12,,,,Weight (kg),WEIGHT,1,16.34,14.95,,,,,Y,Epoch,,88,WEIGHT,Weight,,16.34,kg,16.34,16.34,kg,,,,9,WEEK 12,,2013-10-09,,,,,,1179,DAYS,101.02,cm
311,CDISCPILOT01,01-701-1028,1028,701,USA,VS,2013-07-19,2014-01-14,2013-07-19,2014-01-14,2014-01-14T11:10,,,107,2010-07-19,2010-07-19,2013-07-11,-8,3,YEARS,M,WHITE,NOT HISPANIC OR LATINO,Xanomeline High Dose,Xan_Hi,Xanomeline High Dose,Xan_Hi,Xanomeline High Dose,Xanomeline High Dose,2013-07-19,2013-07-19T00:00:00Z,H,2014-01-14,2014-01-14T23:59:59Z,H,,180,2013-11-06,111,Week 16,,,,Weight (kg),WEIGHT,1,16.73,14.95,,,,,Y,Epoch,,92,WEIGHT,Weight,,16.73,kg,16.73,16.73,kg,,,,10,WEEK 16,,2013-11-06,,,,,,1207,DAYS,101.48,cm
312,CDISCPILOT01,01-701-1028,1028,701,USA,VS,2013-07-19,2014-01-14,2013-07-19,2014-01-14,2014-01-14T11:10,,,108,2010-07-19,2010-07-19,2013-07-11,-8,3,YEARS,M,WHITE,NOT HISPANIC OR LATINO,Xanomeline High Dose,Xan_Hi,Xanomeline High Dose,Xan_Hi,Xanomeline High Dose,Xanomeline High Dose,2013-07-19,2013-07-19T00:00:00Z,H,2014-01-14,2014-01-14T23:59:59Z,H,,180,2013-12-04,139,Week 20,,,,Weight (kg),WEIGHT,1,17.11,14.95,,,,,Y,Epoch,,96,WEIGHT,Weight,,17.11,kg,17.11,17.11,kg,,,,11,WEEK 20,,2013-12-04,,,,,,1235,DAYS,101.97,cm
313,CDISCPILOT01,01-701-1028,1028,701,USA,VS,2013-07-19,2014-01-14,2013-07-19,2014-01-14,2014-01-14T11:10,,,109,2010-07-19,2010-07-19,2013-07-11,-8,3,YEARS,M,WHITE,NOT HISPANIC OR LATINO,Xanomeline High Dose,Xan_Hi,Xanomeline High Dose,Xan_Hi,Xanomeline High Dose,Xanomeline High Dose,2013-07-19,2013-07-19T00:00:00Z,H,2014-01-14,2014-01-14T23:59:59Z,H,,180,2014-01-06,172,Week 24,,,,Weight (kg),WEIGHT,1,17.56,14.95,,,,,Y,Epoch,,100,WEIGHT,Weight,,17.56,kg,17.56,17.56,kg,,,,12,WEEK 24,,2014-01-06,,,,,,1268,DAYS,102.44,cm
314,CDISCPILOT01,01-701-1028,1028,701,USA,VS,2013-07-19,2014-01-14,2013-07-19,2014-01-14,2014-01-14T11:10,,,110,2010-07-19,2010-07-19,2013-07-11,-8,3,YEARS,M,WHITE,NOT HISPANIC OR LATINO,Xanomeline High Dose,Xan_Hi,Xanomeline High Dose,Xan_Hi,Xanomeline High Dose,Xanomeline High Dose,2013-07-19,2013-07-19T00:00:00Z,H,2014-01-14,2014-01-14T23:59:59Z,H,,180,2014-01-14,180,Week 26,,,,Weight (kg),WEIGHT,1,17.85,14.95,,,,,Y,Epoch,,104,WEIGHT,Weight,,17.85,kg,17.85,17.85,kg,,,,13,WEEK 26,,2014-01-14,,,,,,1276,DAYS,102.82,cm
315,CDISCPILOT01,01-701-1028,1028,701,USA,VS,2013-07-19,2014-01-14,2013-07-19,2014-01-14,2014-01-14T11:10,,,111,2010-07-19,2010-07-19,2013-07-11,-8,3,YEARS,M,WHITE,NOT HISPANIC OR LATINO,Xanomeline High Dose,Xan_Hi,Xanomeline High Dose,Xan_Hi,Xanomeline High Dose,Xanomeline High Dose,2013-07-19,2013-07-19T00:00:00Z,H,2014-01-14,2014-01-14T23:59:59Z,H,,180,2013-07-11,-8,Screening 1,-1,,,Weight-for-age percentile,WGTAPCTL,6,58.609654724258995,64.48707011006101,,,,,,Epoch,,64,WEIGHT,Weight,,14.65,kg,14.65,14.65,kg,,,,1,SCREENING 1,,2013-07-11,,,,,,1089,DAYS,98.32,cm
316,CDISCPILOT01,01-701-1028,1028,701,USA,VS,2013-07-19,2014-01-14,2013-07-19,2014-01-14,2014-01-14T11:10,,,112,2010-07-19,2010-07-19,2013-07-11,-8,3,YEARS,M,WHITE,NOT HISPANIC OR LATINO,Xanomeline High Dose,Xan_Hi,Xanomeline High Dose,Xan_Hi,Xanomeline High Dose,Xanomeline High Dose,2013-07-19,2013-07-19T00:00:00Z,H,2014-01-14,2014-01-14T23:59:59Z,H,,180,2013-07-19,1,Baseline,0,,,Weight-for-age percentile,WGTAPCTL,6,64.48707011006101,64.48707011006101,,,Y,Y,,Epoch,,68,WEIGHT,Weight,,14.95,kg,14.95,14.95,kg,,,,3,BASELINE,,2013-07-19,,,,,,1097,DAYS,98.95,cm
317,CDISCPILOT01,01-701-1028,1028,701,USA,VS,2013-07-19,2014-01-14,2013-07-19,2014-01-14,2014-01-14T11:10,,,113,2010-07-19,2010-07-19,2013-07-11,-8,3,YEARS,M,WHITE,NOT HISPANIC OR LATINO,Xanomeline High Dose,Xan_Hi,Xanomeline High Dose,Xan_Hi,Xanomeline High Dose,Xanomeline High Dose,2013-07-19,2013-07-19T00:00:00Z,H,2014-01-14,2014-01-14T23:59:59Z,H,,180,2013-08-01,14,Week 2,,,,Weight-for-age percentile,WGTAPCTL,6,67.70896451020452,64.48707011006101,,,,,Y,Epoch,,72,WEIGHT,Weight,,15.17,kg,15.17,15.17,kg,,,,4,WEEK 2,,2013-08-01,,,,,,1110,DAYS,99.34,cm
318,CDISCPILOT01,01-701-1028,1028,701,USA,VS,2013-07-19,2014-01-14,2013-07-19,2014-01-14,2014-01-14T11:10,,,114,2010-07-19,2010-07-19,2013-07-11,-8,3,YEARS,M,WHITE,NOT HISPANIC OR LATINO,Xanomeline High Dose,Xan_Hi,Xanomeline High Dose,Xan_Hi,Xanomeline High Dose,Xanomeline High Dose,2013-07-19,2013-07-19T00:00:00Z,H,2014-01-14,2014-01-14T23:59:59Z,H,,180,2013-08-14,27,Week 4,,,,Weight-for-age percentile,WGTAPCTL,6,71.4515701330603,64.48707011006101,,,,,Y,Epoch,,76,WEIGHT,Weight,,15.43,kg,15.43,15.43,kg,,,,5,WEEK 4,,2013-08-14,,,,,,1123,DAYS,99.68,cm
319,CDISCPILOT01,01-701-1028,1028,701,USA,VS,2013-07-19,2014-01-14,2013-07-19,2014-01-14,2014-01-14T11:10,,,115,2010-07-19,2010-07-19,2013-07-11,-8,3,YEARS,M,WHITE,NOT HISPANIC OR LATINO,Xanomeline High Dose,Xan_Hi,Xanomeline High Dose,Xan_Hi,Xanomeline High Dose,Xanomeline High Dose,2013-07-19,2013-07-19T00:00:00Z,H,2014-01-14,2014-01-14T23:59:59Z,H,,180,2013-08-29,42,Week 6,,,,Weight-for-age percentile,WGTAPCTL,6,74.14049835783774,64.48707011006101,,,,,Y,Epoch,,80,WEIGHT,Weight,,15.66,kg,15.66,15.66,kg,,,,7,WEEK 6,,2013-08-29,,,,,,1138,DAYS,100.13,cm
320,CDISCPILOT01,01-701-1028,1028,701,USA,VS,2013-07-19,2014-01-14,2013-07-19,2014-01-14,2014-01-14T11:10,,,116,2010-07-19,2010-07-19,2013-07-11,-8,3,YEARS,M,WHITE,NOT HISPANIC OR LATINO,Xanomeline High Dose,Xan_Hi,Xanomeline High Dose,Xan_Hi,Xanomeline High Dose,Xanomeline High Dose,2013-07-19,2013-07-19T00:00:00Z,H,2014-01-14,2014-01-14T23:59:59Z,H,,180,2013-09-10,54,Week 8,,,,Weight-for-age percentile,WGTAPCTL,6,76.08027601888756,64.48707011006101,,,,,Y,Epoch,,84,WEIGHT,Weight,,15.84,kg,15.84,15.84,kg,,,,8,WEEK 8,,2013-09-10,,,,,,1150,DAYS,100.45,cm
321,CDISCPILOT01,01-701-1028,1028,701,USA,VS,2013-07-19,2014-01-14,2013-07-19,2014-01-14,2014-01-14T11:10,,,117,2010-07-19,2010-07-19,2013-07-11,-8,3,YEARS,M,WHITE,NOT HISPANIC OR LATINO,Xanomeline High Dose,Xan_Hi,Xanomeline High Dose,Xan_Hi,Xanomeline High Dose,Xanomeline High Dose,2013-07-19,2013-07-19T00:00:00Z,H,2014-01-14,2014-01-14T23:59:59Z,H,,180,2013-10-09,83,Week 12,,,,Weight-for-age percentile,WGTAPCTL,6,81.12008836175984,64.48707011006101,,,,,Y,Epoch,,88,WEIGHT,Weight,,16.34,kg,16.34,16.34,kg,,,,9,WEEK 12,,2013-10-09,,,,,,1179,DAYS,101.02,cm
322,CDISCPILOT01,01-701-1028,1028,701,USA,VS,2013-07-19,2014-01-14,2013-07-19,2014-01-14,2014-01-14T11:10,,,118,2010-07-19,2010-07-19,2013-07-11,-8,3,YEARS,M,WHITE,NOT HISPANIC OR LATINO,Xanomeline High Dose,Xan_Hi,Xanomeline High Dose,Xan_Hi,Xanomeline High Dose,Xanomeline High Dose,2013-07-19,2013-07-19T00:00:00Z,H,2014-01-14,2014-01-14T23:59:59Z,H,,180,2013-11-06,111,Week 16,,,,Weight-for-age percentile,WGTAPCTL,6,83.91320726181613,64.48707011006101,,,,,Y,Epoch,,92,WEIGHT,Weight,,16.73,kg,16.73,16.73,kg,,,,10,WEEK 16,,2013-11-06,,,,,,1207,DAYS,101.48,cm
323,CDISCPILOT01,01-701-1028,1028,701,USA,VS,2013-07-19,2014-01-14,2013-07-19,2014-01-14,2014-01-14T11:10,,,119,2010-07-19,2010-07-19,2013-07-11,-8,3,YEARS,M,WHITE,NOT HISPANIC OR LATINO,Xanomeline High Dose,Xan_Hi,Xanomeline High Dose,Xan_Hi,Xanomeline High Dose,Xanomeline High Dose,2013-07-19,2013-07-19T00:00:00Z,H,2014-01-14,2014-01-14T23:59:59Z,H,,180,2013-12-04,139,Week 20,,,,Weight-for-age percentile,WGTAPCTL,6,86.19528968876953,64.48707011006101,,,,,Y,Epoch,,96,WEIGHT,Weight,,17.11,kg,17.11,17.11,kg,,,,11,WEEK 20,,2013-12-04,,,,,,1235,DAYS,101.97,cm
324,CDISCPILOT01,01-701-1028,1028,701,USA,VS,2013-07-19,2014-01-14,2013-07-19,2014-01-14,2014-01-14T11:10,,,120,2010-07-19,2010-07-19,2013-07-11,-8,3,YEARS,M,WHITE,NOT HISPANIC OR LATINO,Xanomeline High Dose,Xan_Hi,Xanomeline High Dose,Xan_Hi,Xanomeline High Dose,Xanomeline High Dose,2013-07-19,2013-07-19T00:00:00Z,H,2014-01-14,2014-01-14T23:59:59Z,H,,180,2014-01-06,172,Week 24,,,,Weight-for-age percentile,WGTAPCTL,6,88.38379168897613,64.48707011006101,,,,,Y,Epoch,,100,WEIGHT,Weight,,17.56,kg,17.56,17.56,kg,,,,12,WEEK 24,,2014-01-06,,,,,,1268,DAYS,102.44,cm
325,CDISCPILOT01,01-701-1028,1028,701,USA,VS,2013-07-19,2014-01-14,2013-07-19,2014-01-14,2014-01-14T11:10,,,121,2010-07-19,2010-07-19,2013-07-11,-8,3,YEARS,M,WHITE,NOT HISPANIC OR LATINO,Xanomeline High Dose,Xan_Hi,Xanomeline High Dose,Xan_Hi,Xanomeline High Dose,Xanomeline High Dose,2013-07-19,2013-07-19T00:00:00Z,H,2014-01-14,2014-01-14T23:59:59Z,H,,180,2014-01-14,180,Week 26,,,,Weight-for-age percentile,WGTAPCTL,6,90.27704060291197,64.48707011006101,,,,,Y,Epoch,,104,WEIGHT,Weight,,17.85,kg,17.85,17.85,kg,,,,13,WEEK 26,,2014-01-14,,,,,,1276,DAYS,102.82,cm
326,CDISCPILOT01,01-701-1028,1028,701,USA,VS,2013-07-19,2014-01-14,2013-07-19,2014-01-14,2014-01-14T11:10,,,122,2010-07-19,2010-07-19,2013-07-11,-8,3,YEARS,M,WHITE,NOT HISPANIC OR LATINO,Xanomeline High Dose,Xan_Hi,Xanomeline High Dose,Xan_Hi,Xanomeline High Dose,Xanomeline High Dose,2013-07-19,2013-07-19T00:00:00Z,H,2014-01-14,2014-01-14T23:59:59Z,H,,180,2013-07-11,-8,Screening 1,-1,,,Weight-for-age z-score,WGTASDS,5,0.21751514501243577,0.3715088066549904,,,,,,Epoch,,64,WEIGHT,Weight,,14.65,kg,14.65,14.65,kg,,,,1,SCREENING 1,,2013-07-11,,,,,,1089,DAYS,98.32,cm
327,CDISCPILOT01,01-701-1028,1028,701,USA,VS,2013-07-19,2014-01-14,2013-07-19,2014-01-14,2014-01-14T11:10,,,123,2010-07-19,2010-07-19,2013-07-11,-8,3,YEARS,M,WHITE,NOT HISPANIC OR LATINO,Xanomeline High Dose,Xan_Hi,Xanomeline High Dose,Xan_Hi,Xanomeline High Dose,Xanomeline High Dose,2013-07-19,2013-07-19T00:00:00Z,H,2014-01-14,2014-01-14T23:59:59Z,H,,180,2013-07-19,1,Baseline,0,,,Weight-for-age z-score,WGTASDS,5,0.3715088066549904,0.3715088066549904,,,Y,Y,,Epoch,,68,WEIGHT,Weight,,14.95,kg,14.95,14.95,kg,,,,3,BASELINE,,2013-07-19,,,,,,1097,DAYS,98.95,cm
328,CDISCPILOT01,01-701-1028,1028,701,USA,VS,2013-07-19,2014-01-14,2013-07-19,2014-01-14,2014-01-14T11:10,,,124,2010-07-19,2010-07-19,2013-07-11,-8,3,YEARS,M,WHITE,NOT HISPANIC OR LATINO,Xanomeline High Dose,Xan_Hi,Xanomeline High Dose,Xan_Hi,Xanomeline High Dose,Xanomeline High Dose,2013-07-19,2013-07-19T00:00:00Z,H,2014-01-14,2014-01-14T23:59:59Z,H,,180,2013-08-01,14,Week 2,,,,Weight-for-age z-score,WGTASDS,5,0.45957583193617846,0.3715088066549904,,,,,Y,Epoch,,72,WEIGHT,Weight,,15.17,kg,15.17,15.17,kg,,,,4,WEEK 2,,2013-08-01,,,,,,1110,DAYS,99.34,cm
329,CDISCPILOT01,01-701-1028,1028,701,USA,VS,2013-07-19,2014-01-14,2013-07-19,2014-01-14,2014-01-14T11:10,,,125,2010-07-19,2010-07-19,2013-07-11,-8,3,YEARS,M,WHITE,NOT HISPANIC OR LATINO,Xanomeline High Dose,Xan_Hi,Xanomeline High Dose,Xan_Hi,Xanomeline High Dose,Xanomeline High Dose,2013-07-19,2013-07-19T00:00:00Z,H,2014-01-14,2014-01-14T23:59:59Z,H,,180,2013-08-14,27,Week 4,,,,Weight-for-age z-score,WGTASDS,5,0.5666255720635988,0.3715088066549904,,,,,Y,Epoch,,76,WEIGHT,Weight,,15.43,kg,15.43,15.43,kg,,,,5,WEEK 4,,2013-08-14,,,,,,1123,DAYS,99.68,cm
330,CDISCPILOT01,01-701-1028,1028,701,USA,VS,2013-07-19,2014-01-14,2013-07-19,2014-01-14,2014-01-14T11:10,,,126,2010-07-19,2010-07-19,2013-07-11,-8,3,YEARS,M,WHITE,NOT HISPANIC OR LATINO,Xanomeline High Dose,Xan_Hi,Xanomeline High Dose,Xan_Hi,Xanomeline High Dose,Xanomeline High Dose,2013-07-19,2013-07-19T00:00:00Z,H,2014-01-14,2014-01-14T23:59:59Z,H,,180,2013-08-29,42,Week 6,,,,Weight-for-age z-score,WGTASDS,5,0.6476829519665307,0.3715088066549904,,,,,Y,Epoch,,80,WEIGHT,Weight,,15.66,kg,15.66,15.66,kg,,,,7,WEEK 6,,2013-08-29,,,,,,1138,DAYS,100.13,cm
331,CDISCPILOT01,01-701-1028,1028,701,USA,VS,2013-07-19,2014-01-14,2013-07-19,2014-01-14,2014-01-14T11:10,,,127,2010-07-19,2010-07-19,2013-07-11,-8,3,YEARS,M,WHITE,NOT HISPANIC OR LATINO,Xanomeline High Dose,Xan_Hi,Xanomeline High Dose,Xan_Hi,Xanomeline High Dose,Xanomeline High Dose,2013-07-19,2013-07-19T00:00:00Z,H,2014-01-14,2014-01-14T23:59:59Z,H,,180,2013-09-10,54,Week 8,,,,Weight-for-age z-score,WGTASDS,5,0.7088871988157351,0.3715088066549904,,,,,Y,Epoch,,84,WEIGHT,Weight,,15.84,kg,15.84,15.84,kg,,,,8,WEEK 8,,2013-09-10,,,,,,1150,DAYS,100.45,cm
332,CDISCPILOT01,01-701-1028,1028,701,USA,VS,2013-07-19,2014-01-14,2013-07-19,2014-01-14,2014-01-14T11:10,,,128,2010-07-19,2010-07-19,2013-07-11,-8,3,YEARS,M,WHITE,NOT HISPANIC OR LATINO,Xanomeline High Dose,Xan_Hi,Xanomeline High Dose,Xan_Hi,Xanomeline High Dose,Xanomeline High Dose,2013-07-19,2013-07-19T00:00:00Z,H,2014-01-14,2014-01-14T23:59:59Z,H,,180,2013-10-09,83,Week 12,,,,Weight-for-age z-score,WGTASDS,5,0.88233026815778,0.3715088066549904,,,,,Y,Epoch,,88,WEIGHT,Weight,,16.34,kg,16.34,16.34,kg,,,,9,WEEK 12,,2013-10-09,,,,,,1179,DAYS,101.02,cm
333,CDISCPILOT01,01-701-1028,1028,701,USA,VS,2013-07-19,2014-01-14,2013-07-19,2014-01-14,2014-01-14T11:10,,,129,2010-07-19,2010-07-19,2013-07-11,-8,3,YEARS,M,WHITE,NOT HISPANIC OR LATINO,Xanomeline High Dose,Xan_Hi,Xanomeline High Dose,Xan_Hi,Xanomeline High Dose,Xanomeline High Dose,2013-07-19,2013-07-19T00:00:00Z,H,2014-01-14,2014-01-14T23:59:59Z,H,,180,2013-11-06,111,Week 16,,,,Weight-for-age z-score,WGTASDS,5,0.9908970463643818,0.3715088066549904,,,,,Y,Epoch,,92,WEIGHT,Weight,,16.73,kg,16.73,16.73,kg,,,,10,WEEK 16,,2013-11-06,,,,,,1207,DAYS,101.48,cm
334,CDISCPILOT01,01-701-1028,1028,701,USA,VS,2013-07-19,2014-01-14,2013-07-19,2014-01-14,2014-01-14T11:10,,,130,2010-07-19,2010-07-19,2013-07-11,-8,3,YEARS,M,WHITE,NOT HISPANIC OR LATINO,Xanomeline High Dose,Xan_Hi,Xanomeline High Dose,Xan_Hi,Xanomeline High Dose,Xanomeline High Dose,2013-07-19,2013-07-19T00:00:00Z,H,2014-01-14,2014-01-14T23:59:59Z,H,,180,2013-12-04,139,Week 20,,,,Weight-for-age z-score,WGTASDS,5,1.0891353431568258,0.3715088066549904,,,,,Y,Epoch,,96,WEIGHT,Weight,,17.11,kg,17.11,17.11,kg,,,,11,WEEK 20,,2013-12-04,,,,,,1235,DAYS,101.97,cm
335,CDISCPILOT01,01-701-1028,1028,701,USA,VS,2013-07-19,2014-01-14,2013-07-19,2014-01-14,2014-01-14T11:10,,,131,2010-07-19,2010-07-19,2013-07-11,-8,3,YEARS,M,WHITE,NOT HISPANIC OR LATINO,Xanomeline High Dose,Xan_Hi,Xanomeline High Dose,Xan_Hi,Xanomeline High Dose,Xanomeline High Dose,2013-07-19,2013-07-19T00:00:00Z,H,2014-01-14,2014-01-14T23:59:59Z,H,,180,2014-01-06,172,Week 24,,,,Weight-for-age z-score,WGTASDS,5,1.1943932750060302,0.3715088066549904,,,,,Y,Epoch,,100,WEIGHT,Weight,,17.56,kg,17.56,17.56,kg,,,,12,WEEK 24,,2014-01-06,,,,,,1268,DAYS,102.44,cm
336,CDISCPILOT01,01-701-1028,1028,701,USA,VS,2013-07-19,2014-01-14,2013-07-19,2014-01-14,2014-01-14T11:10,,,132,2010-07-19,2010-07-19,2013-07-11,-8,3,YEARS,M,WHITE,NOT HISPANIC OR LATINO,Xanomeline High Dose,Xan_Hi,Xanomeline High Dose,Xan_Hi,Xanomeline High Dose,Xanomeline High Dose,2013-07-19,2013-07-19T00:00:00Z,H,2014-01-14,2014-01-14T23:59:59Z,H,,180,2014-01-14,180,Week 26,,,,Weight-for-age z-score,WGTASDS,5,1.2975000499471396,0.3715088066549904,,,,,Y,Epoch,,104,WEIGHT,Weight,,17.85,kg,17.85,17.85,kg,,,,13,WEEK 26,,2014-01-14,,,,,,1276,DAYS,102.82,cm
337,CDISCPILOT01,01-701-1033,1033,701,USA,VS,2014-03-18,2014-04-14,2014-03-18,2014-03-31,2014-09-15,,,1,2014-01-01,2014-01-01,2014-03-10,-8,0,YEARS,M,WHITE,NOT HISPANIC OR LATINO,Xanomeline Low Dose,Xan_Lo,Xanomeline Low Dose,Xan_Lo,Xanomeline Low Dose,Xanomeline Low Dose,2014-03-18,2014-03-18T00:00:00Z,H,2014-03-31,2014-03-31T23:59:59Z,H,,14,2014-03-10,-8,Screening 1,-1,,,Body Mass Index(kg/m^2),BMI,3,15.901298771115373,16.075850063794373,,,,,,Epoch,,105,BMI,BMI,,15.9012987711154,kg/m2,15.9012987711154,15.901298771115373,kg/m2,,,,1,SCREENING 1,,2014-03-10,,,,,,69,DAYS,59.45,cm
338,CDISCPILOT01,01-701-1033,1033,701,USA,VS,2014-03-18,2014-04-14,2014-03-18,2014-03-31,2014-09-15,,,2,2014-01-01,2014-01-01,2014-03-10,-8,0,YEARS,M,WHITE,NOT HISPANIC OR LATINO,Xanomeline Low Dose,Xan_Lo,Xanomeline Low Dose,Xan_Lo,Xanomeline Low Dose,Xanomeline Low Dose,2014-03-18,2014-03-18T00:00:00Z,H,2014-03-31,2014-03-31T23:59:59Z,H,,14,2014-03-18,1,Baseline,0,,,Body Mass Index(kg/m^2),BMI,3,16.075850063794373,16.075850063794373,,,Y,Y,,Epoch,,109,BMI,BMI,,16.0758500637944,kg/m2,16.0758500637944,16.075850063794373,kg/m2,,,,3,BASELINE,,2014-03-18,,,,,,77,DAYS,60.53,cm
339,CDISCPILOT01,01-701-1033,1033,701,USA,VS,2014-03-18,2014-04-14,2014-03-18,2014-03-31,2014-09-15,,,3,2014-01-01,2014-01-01,2014-03-10,-8,0,YEARS,M,WHITE,NOT HISPANIC OR LATINO,Xanomeline Low Dose,Xan_Lo,Xanomeline Low Dose,Xan_Lo,Xanomeline Low Dose,Xanomeline Low Dose,2014-03-18,2014-03-18T00:00:00Z,H,2014-03-31,2014-03-31T23:59:59Z,H,,14,2014-04-01,15,Week 2,,,,Body Mass Index(kg/m^2),BMI,3,16.19695327171106,16.075850063794373,,,,,,Epoch,,113,BMI,BMI,,16.1969532717111,kg/m2,16.1969532717111,16.19695327171106,kg/m2,,,,4,WEEK 2,,2014-04-01,,,,,,91,DAYS,61.72,cm
340,CDISCPILOT01,01-701-1033,1033,701,USA,VS,2014-03-18,2014-04-14,2014-03-18,2014-03-31,2014-09-15,,,4,2014-01-01,2014-01-01,2014-03-10,-8,0,YEARS,M,WHITE,NOT HISPANIC OR LATINO,Xanomeline Low Dose,Xan_Lo,Xanomeline Low Dose,Xan_Lo,Xanomeline Low Dose,Xanomeline Low Dose,2014-03-18,2014-03-18T00:00:00Z,H,2014-03-31,2014-03-31T23:59:59Z,H,,14,2014-04-14,28,Week 4,,,,Body Mass Index(kg/m^2),BMI,3,16.2974757787294,16.075850063794373,,,,,,Epoch,,117,BMI,BMI,,16.2974757787294,kg/m2,16.2974757787294,16.2974757787294,kg/m2,,,,5,WEEK 4,,2014-04-14,,,,,,104,DAYS,62.91,cm
341,CDISCPILOT01,01-701-1033,1033,701,USA,VS,2014-03-18,2014-04-14,2014-03-18,2014-03-31,2014-09-15,,,5,2014-01-01,2014-01-01,2014-03-10,-8,0,YEARS,M,WHITE,NOT HISPANIC OR LATINO,Xanomeline Low Dose,Xan_Lo,Xanomeline Low Dose,Xan_Lo,Xanomeline Low Dose,Xanomeline Low Dose,2014-03-18,2014-03-18T00:00:00Z,H,2014-03-31,2014-03-31T23:59:59Z,H,,14,2014-03-10,-8,Screening 1,-1,,,BMI-for-age percentile,BMIPCTL,10,32.73789925452129,33.147517873156495,,,,,,Epoch,,105,BMI,BMI,,15.9012987711154,kg/m2,15.9012987711154,15.901298771115373,kg/m2,,,,1,SCREENING 1,,2014-03-10,,,,,,69,DAYS,59.45,cm
342,CDISCPILOT01,01-701-1033,1033,701,USA,VS,2014-03-18,2014-04-14,2014-03-18,2014-03-31,2014-09-15,,,6,2014-01-01,2014-01-01,2014-03-10,-8,0,YEARS,M,WHITE,NOT HISPANIC OR LATINO,Xanomeline Low Dose,Xan_Lo,Xanomeline Low Dose,Xan_Lo,Xanomeline Low Dose,Xanomeline Low Dose,2014-03-18,2014-03-18T00:00:00Z,H,2014-03-31,2014-03-31T23:59:59Z,H,,14,2014-03-18,1,Baseline,0,,,BMI-for-age percentile,BMIPCTL,10,33.147517873156495,33.147517873156495,,,Y,Y,,Epoch,,109,BMI,BMI,,16.0758500637944,kg/m2,16.0758500637944,16.075850063794373,kg/m2,,,,3,BASELINE,,2014-03-18,,,,,,77,DAYS,60.53,cm
343,CDISCPILOT01,01-701-1033,1033,701,USA,VS,2014-03-18,2014-04-14,2014-03-18,2014-03-31,2014-09-15,,,7,2014-01-01,2014-01-01,2014-03-10,-8,0,YEARS,M,WHITE,NOT HISPANIC OR LATINO,Xanomeline Low Dose,Xan_Lo,Xanomeline Low Dose,Xan_Lo,Xanomeline Low Dose,Xanomeline Low Dose,2014-03-18,2014-03-18T00:00:00Z,H,2014-03-31,2014-03-31T23:59:59Z,H,,14,2014-04-01,15,Week 2,,,,BMI-for-age percentile,BMIPCTL,10,30.97497913942241,33.147517873156495,,,,,,Epoch,,113,BMI,BMI,,16.1969532717111,kg/m2,16.1969532717111,16.19695327171106,kg/m2,,,,4,WEEK 2,,2014-04-01,,,,,,91,DAYS,61.72,cm
344,CDISCPILOT01,01-701-1033,1033,701,USA,VS,2014-03-18,2014-04-14,2014-03-18,2014-03-31,2014-09-15,,,8,2014-01-01,2014-01-01,2014-03-10,-8,0,YEARS,M,WHITE,NOT HISPANIC OR LATINO,Xanomeline Low Dose,Xan_Lo,Xanomeline Low Dose,Xan_Lo,Xanomeline Low Dose,Xanomeline Low Dose,2014-03-18,2014-03-18T00:00:00Z,H,2014-03-31,2014-03-31T23:59:59Z,H,,14,2014-04-14,28,Week 4,,,,BMI-for-age percentile,BMIPCTL,10,30.13583522598353,33.147517873156495,,,,,,Epoch,,117,BMI,BMI,,16.2974757787294,kg/m2,16.2974757787294,16.2974757787294,kg/m2,,,,5,WEEK 4,,2014-04-14,,,,,,104,DAYS,62.91,cm
345,CDISCPILOT01,01-701-1033,1033,701,USA,VS,2014-03-18,2014-04-14,2014-03-18,2014-03-31,2014-09-15,,,9,2014-01-01,2014-01-01,2014-03-10,-8,0,YEARS,M,WHITE,NOT HISPANIC OR LATINO,Xanomeline Low Dose,Xan_Lo,Xanomeline Low Dose,Xan_Lo,Xanomeline Low Dose,Xanomeline Low Dose,2014-03-18,2014-03-18T00:00:00Z,H,2014-03-31,2014-03-31T23:59:59Z,H,,14,2014-03-10,-8,Screening 1,-1,,,BMI-for-age z-score,BMISDS,9,-0.44716215378515534,-0.4358433938233689,,,,,,Epoch,,105,BMI,BMI,,15.9012987711154,kg/m2,15.9012987711154,15.901298771115373,kg/m2,,,,1,SCREENING 1,,2014-03-10,,,,,,69,DAYS,59.45,cm
346,CDISCPILOT01,01-701-1033,1033,701,USA,VS,2014-03-18,2014-04-14,2014-03-18,2014-03-31,2014-09-15,,,10,2014-01-01,2014-01-01,2014-03-10,-8,0,YEARS,M,WHITE,NOT HISPANIC OR LATINO,Xanomeline Low Dose,Xan_Lo,Xanomeline Low Dose,Xan_Lo,Xanomeline Low Dose,Xanomeline Low Dose,2014-03-18,2014-03-18T00:00:00Z,H,2014-03-31,2014-03-31T23:59:59Z,H,,14,2014-03-18,1,Baseline,0,,,BMI-for-age z-score,BMISDS,9,-0.4358433938233689,-0.4358433938233689,,,Y,Y,,Epoch,,109,BMI,BMI,,16.0758500637944,kg/m2,16.0758500637944,16.075850063794373,kg/m2,,,,3,BASELINE,,2014-03-18,,,,,,77,DAYS,60.53,cm
347,CDISCPILOT01,01-701-1033,1033,701,USA,VS,2014-03-18,2014-04-14,2014-03-18,2014-03-31,2014-09-15,,,11,2014-01-01,2014-01-01,2014-03-10,-8,0,YEARS,M,WHITE,NOT HISPANIC OR LATINO,Xanomeline Low Dose,Xan_Lo,Xanomeline Low Dose,Xan_Lo,Xanomeline Low Dose,Xanomeline Low Dose,2014-03-18,2014-03-18T00:00:00Z,H,2014-03-31,2014-03-31T23:59:59Z,H,,14,2014-04-01,15,Week 2,,,,BMI-for-age z-score,BMISDS,9,-0.4965596932299427,-0.4358433938233689,,,,,,Epoch,,113,BMI,BMI,,16.1969532717111,kg/m2,16.1969532717111,16.19695327171106,kg/m2,,,,4,WEEK 2,,2014-04-01,,,,,,91,DAYS,61.72,cm
348,CDISCPILOT01,01-701-1033,1033,701,USA,VS,2014-03-18,2014-04-14,2014-03-18,2014-03-31,2014-09-15,,,12,2014-01-01,2014-01-01,2014-03-10,-8,0,YEARS,M,WHITE,NOT HISPANIC OR LATINO,Xanomeline Low Dose,Xan_Lo,Xanomeline Low Dose,Xan_Lo,Xanomeline Low Dose,Xanomeline Low Dose,2014-03-18,2014-03-18T00:00:00Z,H,2014-03-31,2014-03-31T23:59:59Z,H,,14,2014-04-14,28,Week 4,,,,BMI-for-age z-score,BMISDS,9,-0.5204977373500645,-0.4358433938233689,,,,,,Epoch,,117,BMI,BMI,,16.2974757787294,kg/m2,16.2974757787294,16.2974757787294,kg/m2,,,,5,WEEK 4,,2014-04-14,,,,,,104,DAYS,62.91,cm
349,CDISCPILOT01,01-701-1033,1033,701,USA,VS,2014-03-18,2014-04-14,2014-03-18,2014-03-31,2014-09-15,,,13,2014-01-01,2014-01-01,2014-03-10,-8,0,YEARS,M,WHITE,NOT HISPANIC OR LATINO,Xanomeline Low Dose,Xan_Lo,Xanomeline Low Dose,Xan_Lo,Xanomeline Low Dose,Xanomeline Low Dose,2014-03-18,2014-03-18T00:00:00Z,H,2014-03-31,2014-03-31T23:59:59Z,H,,14,2014-03-10,-8,Screening 1,-1,,,Head Circumference (cm),HDCIRC,4,40.34,40.71,,,,,,Epoch,,106,HDCIRC,Head Circumference,,40.34,cm,40.34,40.34,cm,,,,1,SCREENING 1,,2014-03-10,,,,,,69,DAYS,59.45,cm
350,CDISCPILOT01,01-701-1033,1033,701,USA,VS,2014-03-18,2014-04-14,2014-03-18,2014-03-31,2014-09-15,,,14,2014-01-01,2014-01-01,2014-03-10,-8,0,YEARS,M,WHITE,NOT HISPANIC OR LATINO,Xanomeline Low Dose,Xan_Lo,Xanomeline Low Dose,Xan_Lo,Xanomeline Low Dose,Xanomeline Low Dose,2014-03-18,2014-03-18T00:00:00Z,H,2014-03-31,2014-03-31T23:59:59Z,H,,14,2014-03-18,1,Baseline,0,,,Head Circumference (cm),HDCIRC,4,40.71,40.71,,,Y,Y,,Epoch,,110,HDCIRC,Head Circumference,,40.71,cm,40.71,40.71,cm,,,,3,BASELINE,,2014-03-18,,,,,,77,DAYS,60.53,cm
351,CDISCPILOT01,01-701-1033,1033,701,USA,VS,2014-03-18,2014-04-14,2014-03-18,2014-03-31,2014-09-15,,,15,2014-01-01,2014-01-01,2014-03-10,-8,0,YEARS,M,WHITE,NOT HISPANIC OR LATINO,Xanomeline Low Dose,Xan_Lo,Xanomeline Low Dose,Xan_Lo,Xanomeline Low Dose,Xanomeline Low Dose,2014-03-18,2014-03-18T00:00:00Z,H,2014-03-31,2014-03-31T23:59:59Z,H,,14,2014-04-01,15,Week 2,,,,Head Circumference (cm),HDCIRC,4,41.12,40.71,,,,,,Epoch,,114,HDCIRC,Head Circumference,,41.12,cm,41.12,41.12,cm,,,,4,WEEK 2,,2014-04-01,,,,,,91,DAYS,61.72,cm
352,CDISCPILOT01,01-701-1033,1033,701,USA,VS,2014-03-18,2014-04-14,2014-03-18,2014-03-31,2014-09-15,,,16,2014-01-01,2014-01-01,2014-03-10,-8,0,YEARS,M,WHITE,NOT HISPANIC OR LATINO,Xanomeline Low Dose,Xan_Lo,Xanomeline Low Dose,Xan_Lo,Xanomeline Low Dose,Xanomeline Low Dose,2014-03-18,2014-03-18T00:00:00Z,H,2014-03-31,2014-03-31T23:59:59Z,H,,14,2014-04-14,28,Week 4,,,,Head Circumference (cm),HDCIRC,4,41.56,40.71,,,,,,Epoch,,118,HDCIRC,Head Circumference,,41.56,cm,41.56,41.56,cm,,,,5,WEEK 4,,2014-04-14,,,,,,104,DAYS,62.91,cm
353,CDISCPILOT01,01-701-1033,1033,701,USA,VS,2014-03-18,2014-04-14,2014-03-18,2014-03-31,2014-09-15,,,17,2014-01-01,2014-01-01,2014-03-10,-8,0,YEARS,M,WHITE,NOT HISPANIC OR LATINO,Xanomeline Low Dose,Xan_Lo,Xanomeline Low Dose,Xan_Lo,Xanomeline Low Dose,Xanomeline Low Dose,2014-03-18,2014-03-18T00:00:00Z,H,2014-03-31,2014-03-31T23:59:59Z,H,,14,2014-03-10,-8,Screening 1,-1,,,Head Circumference-for-age percentile,HDCPCTL,12,75.41864930444055,75.34229309195678,,,,,,Epoch,,106,HDCIRC,Head Circumference,,40.34,cm,40.34,40.34,cm,,,,1,SCREENING 1,,2014-03-10,,,,,,69,DAYS,59.45,cm
354,CDISCPILOT01,01-701-1033,1033,701,USA,VS,2014-03-18,2014-04-14,2014-03-18,2014-03-31,2014-09-15,,,18,2014-01-01,2014-01-01,2014-03-10,-8,0,YEARS,M,WHITE,NOT HISPANIC OR LATINO,Xanomeline Low Dose,Xan_Lo,Xanomeline Low Dose,Xan_Lo,Xanomeline Low Dose,Xanomeline Low Dose,2014-03-18,2014-03-18T00:00:00Z,H,2014-03-31,2014-03-31T23:59:59Z,H,,14,2014-03-18,1,Baseline,0,,,Head Circumference-for-age percentile,HDCPCTL,12,75.34229309195678,75.34229309195678,,,Y,Y,,Epoch,,110,HDCIRC,Head Circumference,,40.71,cm,40.71,40.71,cm,,,,3,BASELINE,,2014-03-18,,,,,,77,DAYS,60.53,cm
355,CDISCPILOT01,01-701-1033,1033,701,USA,VS,2014-03-18,2014-04-14,2014-03-18,2014-03-31,2014-09-15,,,19,2014-01-01,2014-01-01,2014-03-10,-8,0,YEARS,M,WHITE,NOT HISPANIC OR LATINO,Xanomeline Low Dose,Xan_Lo,Xanomeline Low Dose,Xan_Lo,Xanomeline Low Dose,Xanomeline Low Dose,2014-03-18,2014-03-18T00:00:00Z,H,2014-03-31,2014-03-31T23:59:59Z,H,,14,2014-04-01,15,Week 2,,,,Head Circumference-for-age percentile,HDCPCTL,12,69.98400746634013,75.34229309195678,,,,,,Epoch,,114,HDCIRC,Head Circumference,,41.12,cm,41.12,41.12,cm,,,,4,WEEK 2,,2014-04-01,,,,,,91,DAYS,61.72,cm
356,CDISCPILOT01,01-701-1033,1033,701,USA,VS,2014-03-18,2014-04-14,2014-03-18,2014-03-31,2014-09-15,,,20,2014-01-01,2014-01-01,2014-03-10,-8,0,YEARS,M,WHITE,NOT HISPANIC OR LATINO,Xanomeline Low Dose,Xan_Lo,Xanomeline Low Dose,Xan_Lo,Xanomeline Low Dose,Xanomeline Low Dose,2014-03-18,2014-03-18T00:00:00Z,H,2014-03-31,2014-03-31T23:59:59Z,H,,14,2014-04-14,28,Week 4,,,,Head Circumference-for-age percentile,HDCPCTL,12,67.9538412353852,75.34229309195678,,,,,,Epoch,,118,HDCIRC,Head Circumference,,41.56,cm,41.56,41.56,cm,,,,5,WEEK 4,,2014-04-14,,,,,,104,DAYS,62.91,cm
357,CDISCPILOT01,01-701-1033,1033,701,USA,VS,2014-03-18,2014-04-14,2014-03-18,2014-03-31,2014-09-15,,,21,2014-01-01,2014-01-01,2014-03-10,-8,0,YEARS,M,WHITE,NOT HISPANIC OR LATINO,Xanomeline Low Dose,Xan_Lo,Xanomeline Low Dose,Xan_Lo,Xanomeline Low Dose,Xanomeline Low Dose,2014-03-18,2014-03-18T00:00:00Z,H,2014-03-31,2014-03-31T23:59:59Z,H,,14,2014-03-10,-8,Screening 1,-1,,,Head Circumference-for-age z-score,HDCSDS,11,0.6877233483710999,0.6853007824381555,,,,,,Epoch,,106,HDCIRC,Head Circumference,,40.34,cm,40.34,40.34,cm,,,,1,SCREENING 1,,2014-03-10,,,,,,69,DAYS,59.45,cm
358,CDISCPILOT01,01-701-1033,1033,701,USA,VS,2014-03-18,2014-04-14,2014-03-18,2014-03-31,2014-09-15,,,22,2014-01-01,2014-01-01,2014-03-10,-8,0,YEARS,M,WHITE,NOT HISPANIC OR LATINO,Xanomeline Low Dose,Xan_Lo,Xanomeline Low Dose,Xan_Lo,Xanomeline Low Dose,Xanomeline Low Dose,2014-03-18,2014-03-18T00:00:00Z,H,2014-03-31,2014-03-31T23:59:59Z,H,,14,2014-03-18,1,Baseline,0,,,Head Circumference-for-age z-score,HDCSDS,11,0.6853007824381555,0.6853007824381555,,,Y,Y,,Epoch,,110,HDCIRC,Head Circumference,,40.71,cm,40.71,40.71,cm,,,,3,BASELINE,,2014-03-18,,,,,,77,DAYS,60.53,cm
359,CDISCPILOT01,01-701-1033,1033,701,USA,VS,2014-03-18,2014-04-14,2014-03-18,2014-03-31,2014-09-15,,,23,2014-01-01,2014-01-01,2014-03-10,-8,0,YEARS,M,WHITE,NOT HISPANIC OR LATINO,Xanomeline Low Dose,Xan_Lo,Xanomeline Low Dose,Xan_Lo,Xanomeline Low Dose,Xanomeline Low Dose,2014-03-18,2014-03-18T00:00:00Z,H,2014-03-31,2014-03-31T23:59:59Z,H,,14,2014-04-01,15,Week 2,,,,Head Circumference-for-age z-score,HDCSDS,11,0.523940606309481,0.6853007824381555,,,,,,Epoch,,114,HDCIRC,Head Circumference,,41.12,cm,41.12,41.12,cm,,,,4,WEEK 2,,2014-04-01,,,,,,91,DAYS,61.72,cm
360,CDISCPILOT01,01-701-1033,1033,701,USA,VS,2014-03-18,2014-04-14,2014-03-18,2014-03-31,2014-09-15,,,24,2014-01-01,2014-01-01,2014-03-10,-8,0,YEARS,M,WHITE,NOT HISPANIC OR LATINO,Xanomeline Low Dose,Xan_Lo,Xanomeline Low Dose,Xan_Lo,Xanomeline Low Dose,Xanomeline Low Dose,2014-03-18,2014-03-18T00:00:00Z,H,2014-03-31,2014-03-31T23:59:59Z,H,,14,2014-04-14,28,Week 4,,,,Head Circumference-for-age z-score,HDCSDS,11,0.4664084345318179,0.6853007824381555,,,,,,Epoch,,118,HDCIRC,Head Circumference,,41.56,cm,41.56,41.56,cm,,,,5,WEEK 4,,2014-04-14,,,,,,104,DAYS,62.91,cm
361,CDISCPILOT01,01-701-1033,1033,701,USA,VS,2014-03-18,2014-04-14,2014-03-18,2014-03-31,2014-09-15,,,25,2014-01-01,2014-01-01,2014-03-10,-8,0,YEARS,M,WHITE,NOT HISPANIC OR LATINO,Xanomeline Low Dose,Xan_Lo,Xanomeline Low Dose,Xan_Lo,Xanomeline Low Dose,Xanomeline Low Dose,2014-03-18,2014-03-18T00:00:00Z,H,2014-03-31,2014-03-31T23:59:59Z,H,,14,2014-03-10,-8,Screening 1,-1,,,Height (cm),HEIGHT,2,59.45,60.53,,,,,,Epoch,,107,HEIGHT,Height,,59.45,cm,59.45,59.45,cm,,,,1,SCREENING 1,,2014-03-10,,,,,,69,DAYS,59.45,cm
362,CDISCPILOT01,01-701-1033,1033,701,USA,VS,2014-03-18,2014-04-14,2014-03-18,2014-03-31,2014-09-15,,,26,2014-01-01,2014-01-01,2014-03-10,-8,0,YEARS,M,WHITE,NOT HISPANIC OR LATINO,Xanomeline Low Dose,Xan_Lo,Xanomeline Low Dose,Xan_Lo,Xanomeline Low Dose,Xanomeline Low Dose,2014-03-18,2014-03-18T00:00:00Z,H,2014-03-31,2014-03-31T23:59:59Z,H,,14,2014-03-18,1,Baseline,0,,,Height (cm),HEIGHT,2,60.53,60.53,,,Y,Y,,Epoch,,111,HEIGHT,Height,,60.53,cm,60.53,60.53,cm,,,,3,BASELINE,,2014-03-18,,,,,,77,DAYS,60.53,cm
363,CDISCPILOT01,01-701-1033,1033,701,USA,VS,2014-03-18,2014-04-14,2014-03-18,2014-03-31,2014-09-15,,,27,2014-01-01,2014-01-01,2014-03-10,-8,0,YEARS,M,WHITE,NOT HISPANIC OR LATINO,Xanomeline Low Dose,Xan_Lo,Xanomeline Low Dose,Xan_Lo,Xanomeline Low Dose,Xanomeline Low Dose,2014-03-18,2014-03-18T00:00:00Z,H,2014-03-31,2014-03-31T23:59:59Z,H,,14,2014-04-01,15,Week 2,,,,Height (cm),HEIGHT,2,61.72,60.53,,,,,,Epoch,,115,HEIGHT,Height,,61.72,cm,61.72,61.72,cm,,,,4,WEEK 2,,2014-04-01,,,,,,91,DAYS,61.72,cm
364,CDISCPILOT01,01-701-1033,1033,701,USA,VS,2014-03-18,2014-04-14,2014-03-18,2014-03-31,2014-09-15,,,28,2014-01-01,2014-01-01,2014-03-10,-8,0,YEARS,M,WHITE,NOT HISPANIC OR LATINO,Xanomeline Low Dose,Xan_Lo,Xanomeline Low Dose,Xan_Lo,Xanomeline Low Dose,Xanomeline Low Dose,2014-03-18,2014-03-18T00:00:00Z,H,2014-03-31,2014-03-31T23:59:59Z,H,,14,2014-04-14,28,Week 4,,,,Height (cm),HEIGHT,2,62.91,60.53,,,,,,Epoch,,119,HEIGHT,Height,,62.91,cm,62.91,62.91,cm,,,,5,WEEK 4,,2014-04-14,,,,,,104,DAYS,62.91,cm
365,CDISCPILOT01,01-701-1033,1033,701,USA,VS,2014-03-18,2014-04-14,2014-03-18,2014-03-31,2014-09-15,,,29,2014-01-01,2014-01-01,2014-03-10,-8,0,YEARS,M,WHITE,NOT HISPANIC OR LATINO,Xanomeline Low Dose,Xan_Lo,Xanomeline Low Dose,Xan_Lo,Xanomeline Low Dose,Xanomeline Low Dose,2014-03-18,2014-03-18T00:00:00Z,H,2014-03-31,2014-03-31T23:59:59Z,H,,14,2014-03-10,-8,Screening 1,-1,,,Height-for-age percentile,HGTPCTL,8,53.28067138401534,58.614653863990576,,,,,,Epoch,,107,HEIGHT,Height,,59.45,cm,59.45,59.45,cm,,,,1,SCREENING 1,,2014-03-10,,,,,,69,DAYS,59.45,cm
366,CDISCPILOT01,01-701-1033,1033,701,USA,VS,2014-03-18,2014-04-14,2014-03-18,2014-03-31,2014-09-15,,,30,2014-01-01,2014-01-01,2014-03-10,-8,0,YEARS,M,WHITE,NOT HISPANIC OR LATINO,Xanomeline Low Dose,Xan_Lo,Xanomeline Low Dose,Xan_Lo,Xanomeline Low Dose,Xanomeline Low Dose,2014-03-18,2014-03-18T00:00:00Z,H,2014-03-31,2014-03-31T23:59:59Z,H,,14,2014-03-18,1,Baseline,0,,,Height-for-age percentile,HGTPCTL,8,58.614653863990576,58.614653863990576,,,Y,Y,,Epoch,,111,HEIGHT,Height,,60.53,cm,60.53,60.53,cm,,,,3,BASELINE,,2014-03-18,,,,,,77,DAYS,60.53,cm
367,CDISCPILOT01,01-701-1033,1033,701,USA,VS,2014-03-18,2014-04-14,2014-03-18,2014-03-31,2014-09-15,,,31,2014-01-01,2014-01-01,2014-03-10,-8,0,YEARS,M,WHITE,NOT HISPANIC OR LATINO,Xanomeline Low Dose,Xan_Lo,Xanomeline Low Dose,Xan_Lo,Xanomeline Low Dose,Xanomeline Low Dose,2014-03-18,2014-03-18T00:00:00Z,H,2014-03-31,2014-03-31T23:59:59Z,H,,14,2014-04-01,15,Week 2,,,,Height-for-age percentile,HGTPCTL,8,56.19503858063871,58.614653863990576,,,,,,Epoch,,115,HEIGHT,Height,,61.72,cm,61.72,61.72,cm,,,,4,WEEK 2,,2014-04-01,,,,,,91,DAYS,61.72,cm
368,CDISCPILOT01,01-701-1033,1033,701,USA,VS,2014-03-18,2014-04-14,2014-03-18,2014-03-31,2014-09-15,,,32,2014-01-01,2014-01-01,2014-03-10,-8,0,YEARS,M,WHITE,NOT HISPANIC OR LATINO,Xanomeline Low Dose,Xan_Lo,Xanomeline Low Dose,Xan_Lo,Xanomeline Low Dose,Xanomeline Low Dose,2014-03-18,2014-03-18T00:00:00Z,H,2014-03-31,2014-03-31T23:59:59Z,H,,14,2014-04-14,28,Week 4,,,,Height-for-age percentile,HGTPCTL,8,57.60311387828836,58.614653863990576,,,,,,Epoch,,119,HEIGHT,Height,,62.91,cm,62.91,62.91,cm,,,,5,WEEK 4,,2014-04-14,,,,,,104,DAYS,62.91,cm
369,CDISCPILOT01,01-701-1033,1033,701,USA,VS,2014-03-18,2014-04-14,2014-03-18,2014-03-31,2014-09-15,,,33,2014-01-01,2014-01-01,2014-03-10,-8,0,YEARS,M,WHITE,NOT HISPANIC OR LATINO,Xanomeline Low Dose,Xan_Lo,Xanomeline Low Dose,Xan_Lo,Xanomeline Low Dose,Xanomeline Low Dose,2014-03-18,2014-03-18T00:00:00Z,H,2014-03-31,2014-03-31T23:59:59Z,H,,14,2014-03-10,-8,Screening 1,-1,,,Height-for-age z-score,HGTSDS,7,0.08232714094530863,0.21764345637714014,,,,,,Epoch,,107,HEIGHT,Height,,59.45,cm,59.45,59.45,cm,,,,1,SCREENING 1,,2014-03-10,,,,,,69,DAYS,59.45,cm
370,CDISCPILOT01,01-701-1033,1033,701,USA,VS,2014-03-18,2014-04-14,2014-03-18,2014-03-31,2014-09-15,,,34,2014-01-01,2014-01-01,2014-03-10,-8,0,YEARS,M,WHITE,NOT HISPANIC OR LATINO,Xanomeline Low Dose,Xan_Lo,Xanomeline Low Dose,Xan_Lo,Xanomeline Low Dose,Xanomeline Low Dose,2014-03-18,2014-03-18T00:00:00Z,H,2014-03-31,2014-03-31T23:59:59Z,H,,14,2014-03-18,1,Baseline,0,,,Height-for-age z-score,HGTSDS,7,0.21764345637714014,0.21764345637714014,,,Y,Y,,Epoch,,111,HEIGHT,Height,,60.53,cm,60.53,60.53,cm,,,,3,BASELINE,,2014-03-18,,,,,,77,DAYS,60.53,cm
371,CDISCPILOT01,01-701-1033,1033,701,USA,VS,2014-03-18,2014-04-14,2014-03-18,2014-03-31,2014-09-15,,,35,2014-01-01,2014-01-01,2014-03-10,-8,0,YEARS,M,WHITE,NOT HISPANIC OR LATINO,Xanomeline Low Dose,Xan_Lo,Xanomeline Low Dose,Xan_Lo,Xanomeline Low Dose,Xanomeline Low Dose,2014-03-18,2014-03-18T00:00:00Z,H,2014-03-31,2014-03-31T23:59:59Z,H,,14,2014-04-01,15,Week 2,,,,Height-for-age z-score,HGTSDS,7,0.15591600632434555,0.21764345637714014,,,,,,Epoch,,115,HEIGHT,Height,,61.72,cm,61.72,61.72,cm,,,,4,WEEK 2,,2014-04-01,,,,,,91,DAYS,61.72,cm
372,CDISCPILOT01,01-701-1033,1033,701,USA,VS,2014-03-18,2014-04-14,2014-03-18,2014-03-31,2014-09-15,,,36,2014-01-01,2014-01-01,2014-03-10,-8,0,YEARS,M,WHITE,NOT HISPANIC OR LATINO,Xanomeline Low Dose,Xan_Lo,Xanomeline Low Dose,Xan_Lo,Xanomeline Low Dose,Xanomeline Low Dose,2014-03-18,2014-03-18T00:00:00Z,H,2014-03-31,2014-03-31T23:59:59Z,H,,14,2014-04-14,28,Week 4,,,,Height-for-age z-score,HGTSDS,7,0.19175040320873174,0.21764345637714014,,,,,,Epoch,,119,HEIGHT,Height,,62.91,cm,62.91,62.91,cm,,,,5,WEEK 4,,2014-04-14,,,,,,104,DAYS,62.91,cm
373,CDISCPILOT01,01-701-1033,1033,701,USA,VS,2014-03-18,2014-04-14,2014-03-18,2014-03-31,2014-09-15,,,37,2014-01-01,2014-01-01,2014-03-10,-8,0,YEARS,M,WHITE,NOT HISPANIC OR LATINO,Xanomeline Low Dose,Xan_Lo,Xanomeline Low Dose,Xan_Lo,Xanomeline Low Dose,Xanomeline Low Dose,2014-03-18,2014-03-18T00:00:00Z,H,2014-03-31,2014-03-31T23:59:59Z,H,,14,2014-03-10,-8,Screening 1,-1,,,Weight (kg),WEIGHT,1,5.62,5.89,,,,,,Epoch,,108,WEIGHT,Weight,,5.62,kg,5.62,5.62,kg,,,,1,SCREENING 1,,2014-03-10,,,,,,69,DAYS,59.45,cm
374,CDISCPILOT01,01-701-1033,1033,701,USA,VS,2014-03-18,2014-04-14,2014-03-18,2014-03-31,2014-09-15,,,38,2014-01-01,2014-01-01,2014-03-10,-8,0,YEARS,M,WHITE,NOT HISPANIC OR LATINO,Xanomeline Low Dose,Xan_Lo,Xanomeline Low Dose,Xan_Lo,Xanomeline Low Dose,Xanomeline Low Dose,2014-03-18,2014-03-18T00:00:00Z,H,2014-03-31,2014-03-31T23:59:59Z,H,,14,2014-03-18,1,Baseline,0,,,Weight (kg),WEIGHT,1,5.89,5.89,,,Y,Y,,Epoch,,112,WEIGHT,Weight,,5.89,kg,5.89,5.89,kg,,,,3,BASELINE,,2014-03-18,,,,,,77,DAYS,60.53,cm
375,CDISCPILOT01,01-701-1033,1033,701,USA,VS,2014-03-18,2014-04-14,2014-03-18,2014-03-31,2014-09-15,,,39,2014-01-01,2014-01-01,2014-03-10,-8,0,YEARS,M,WHITE,NOT HISPANIC OR LATINO,Xanomeline Low Dose,Xan_Lo,Xanomeline Low Dose,Xan_Lo,Xanomeline Low Dose,Xanomeline Low Dose,2014-03-18,2014-03-18T00:00:00Z,H,2014-03-31,2014-03-31T23:59:59Z,H,,14,2014-04-01,15,Week 2,,,,Weight (kg),WEIGHT,1,6.17,5.89,,,,,,Epoch,,116,WEIGHT,Weight,,6.17,kg,6.17,6.17,kg,,,,4,WEEK 2,,2014-04-01,,,,,,91,DAYS,61.72,cm
376,CDISCPILOT01,01-701-1033,1033,701,USA,VS,2014-03-18,2014-04-14,2014-03-18,2014-03-31,2014-09-15,,,40,2014-01-01,2014-01-01,2014-03-10,-8,0,YEARS,M,WHITE,NOT HISPANIC OR LATINO,Xanomeline Low Dose,Xan_Lo,Xanomeline Low Dose,Xan_Lo,Xanomeline Low Dose,Xanomeline Low Dose,2014-03-18,2014-03-18T00:00:00Z,H,2014-03-31,2014-03-31T23:59:59Z,H,,14,2014-04-14,28,Week 4,,,,Weight (kg),WEIGHT,1,6.45,5.89,,,,,,Epoch,,120,WEIGHT,Weight,,6.45,kg,6.45,6.45,kg,,,,5,WEEK 4,,2014-04-14,,,,,,104,DAYS,62.91,cm
377,CDISCPILOT01,01-701-1033,1033,701,USA,VS,2014-03-18,2014-04-14,2014-03-18,2014-03-31,2014-09-15,,,41,2014-01-01,2014-01-01,2014-03-10,-8,0,YEARS,M,WHITE,NOT HISPANIC OR LATINO,Xanomeline Low Dose,Xan_Lo,Xanomeline Low Dose,Xan_Lo,Xanomeline Low Dose,Xanomeline Low Dose,2014-03-18,2014-03-18T00:00:00Z,H,2014-03-31,2014-03-31T23:59:59Z,H,,14,2014-03-10,-8,Screening 1,-1,,,Weight-for-age percentile,WGTAPCTL,6,39.46653705849768,42.569902383332256,,,,,,Epoch,,108,WEIGHT,Weight,,5.62,kg,5.62,5.62,kg,,,,1,SCREENING 1,,2014-03-10,,,,,,69,DAYS,59.45,cm
378,CDISCPILOT01,01-701-1033,1033,701,USA,VS,2014-03-18,2014-04-14,2014-03-18,2014-03-31,2014-09-15,,,42,2014-01-01,2014-01-01,2014-03-10,-8,0,YEARS,M,WHITE,NOT HISPANIC OR LATINO,Xanomeline Low Dose,Xan_Lo,Xanomeline Low Dose,Xan_Lo,Xanomeline Low Dose,Xanomeline Low Dose,2014-03-18,2014-03-18T00:00:00Z,H,2014-03-31,2014-03-31T23:59:59Z,H,,14,2014-03-18,1,Baseline,0,,,Weight-for-age percentile,WGTAPCTL,6,42.569902383332256,42.569902383332256,,,Y,Y,,Epoch,,112,WEIGHT,Weight,,5.89,kg,5.89,5.89,kg,,,,3,BASELINE,,2014-03-18,,,,,,77,DAYS,60.53,cm
