rownames,STUDYID,DOMAIN,USUBJID,AESEQ,AESPID,AETERM,AELLT,AELLTCD,AEDECOD,AEPTCD,AEHLT,AEHLTCD,AEHLGT,AEHLGTCD,AEBODSYS,AEBDSYCD,AESOC,AESOCCD,AESEV,AESER,AEACN,AEREL,AEOUT,AESCAN,AESCONG,AESDISAB,AESDTH,AESHOSP,AESLIFE,AESOD,AEDTC,AESTDTC,AEENDTC,AESTDY,AEENDY
1,CDISCPILOT01,AE,01-701-1015,1,E07,APPLICATION SITE ERYTHEMA,APPLICATION SITE REDNESS,,APPLICATION SITE ERYTHEMA,,HLT_0617,,HLGT_0152,,GENERAL DISORDERS AND ADMINISTRATION SITE CONDITIONS,,GENERAL DISORDERS AND ADMINISTRATION SITE CONDITIONS,,MILD,N,,PROBABLE,NOT RECOVERED/NOT RESOLVED,N,N,N,N,N,N,N,2014-01-16,2014-01-03,,2,
2,CDISCPILOT01,AE,01-701-1015,2,E08,APPLICATION SITE PRURITUS,APPLICATION SITE ITCHING,,APPLICATION SITE PRURITUS,,HLT_0317,,HLGT_0338,,GENERAL DISORDERS AND ADMINISTRATION SITE CONDITIONS,,GENERAL DISORDERS AND ADMINISTRATION SITE CONDITIONS,,MILD,N,,PROBABLE,NOT RECOVERED/NOT RESOLVED,N,N,N,N,N,N,N,2014-01-16,2014-01-03,,2,
3,CDISCPILOT01,AE,01-701-1015,3,E06,DIARRHOEA,DIARRHEA,,DIARRHOEA,,HLT_0148,,HLGT_0588,,GASTROINTESTINAL DISORDERS,,GASTROINTESTINAL DISORDERS,,MILD,N,,REMOTE,RECOVERED/RESOLVED,N,N,N,N,N,N,N,2014-01-16,2014-01-09,2014-01-11,8,10
4,CDISCPILOT01,AE,01-701-1023,3,E10,ATRIOVENTRICULAR BLOCK SECOND DEGREE,AV BLOCK SECOND DEGREE,,ATRIOVENTRICULAR BLOCK SECOND DEGREE,,HLT_0415,,HLGT_0086,,CARDIAC DISORDERS,,CARDIAC DISORDERS,,MILD,N,,POSSIBLE,NOT RECOVERED/NOT RESOLVED,N,N,N,N,N,N,N,2012-08-27,2012-08-26,,22,
5,CDISCPILOT01,AE,01-701-1023,1,E08,ERYTHEMA,ERYTHEMA,,ERYTHEMA,,HLT_0284,,HLGT_0192,,SKIN AND SUBCUTANEOUS TISSUE DISORDERS,,SKIN AND SUBCUTANEOUS TISSUE DISORDERS,,MILD,N,,POSSIBLE,NOT RECOVERED/NOT RESOLVED,N,N,N,N,N,N,N,2012-08-27,2012-08-07,2012-08-30,3,26
6,CDISCPILOT01,AE,01-701-1023,2,E09,ERYTHEMA,LOCALIZED ERYTHEMA,,ERYTHEMA,,HLT_0284,,HLGT_0192,,SKIN AND SUBCUTANEOUS TISSUE DISORDERS,,SKIN AND SUBCUTANEOUS TISSUE DISORDERS,,MODERATE,N,,PROBABLE,NOT RECOVERED/NOT RESOLVED,N,N,N,N,N,N,N,2012-08-27,2012-08-07,,3,
7,CDISCPILOT01,AE,01-701-1023,4,E08,ERYTHEMA,ERYTHEMA,,ERYTHEMA,,HLT_0284,,HLGT_0192,,SKIN AND SUBCUTANEOUS TISSUE DISORDERS,,SKIN AND SUBCUTANEOUS TISSUE DISORDERS,,MILD,N,,POSSIBLE,RECOVERED/RESOLVED,N,N,N,N,N,N,N,2012-09-02,2012-08-07,2012-08-30,3,26
8,CDISCPILOT01,AE,01-701-1028,1,E04,APPLICATION SITE ERYTHEMA,APPLICATION SITE ERYTHEMA,,APPLICATION SITE ERYTHEMA,,HLT_0617,,HLGT_0152,,GENERAL DISORDERS AND ADMINISTRATION SITE CONDITIONS,,GENERAL DISORDERS AND ADMINISTRATION SITE CONDITIONS,,MILD,N,,POSSIBLE,NOT RECOVERED/NOT RESOLVED,N,N,N,N,N,N,N,2013-08-01,2013-07-21,,3,
9,CDISCPILOT01,AE,01-701-1028,2,E05,APPLICATION SITE PRURITUS,APPLICATION SITE ITCHING,,APPLICATION SITE PRURITUS,,HLT_0317,,HLGT_0338,,GENERAL DISORDERS AND ADMINISTRATION SITE CONDITIONS,,GENERAL DISORDERS AND ADMINISTRATION SITE CONDITIONS,,MILD,N,,PROBABLE,NOT RECOVERED/NOT RESOLVED,N,N,N,N,N,N,N,2013-08-14,2013-08-08,,21,
10,CDISCPILOT01,AE,01-701-1034,1,E08,APPLICATION SITE PRURITUS,APPLICATION SITE ITCHING,,APPLICATION SITE PRURITUS,,HLT_0317,,HLGT_0338,,GENERAL DISORDERS AND ADMINISTRATION SITE CONDITIONS,,GENERAL DISORDERS AND ADMINISTRATION SITE CONDITIONS,,MILD,N,,PROBABLE,NOT RECOVERED/NOT RESOLVED,N,N,N,N,N,N,N,2014-09-25,2014-08-27,,58,
11,CDISCPILOT01,AE,01-701-1034,2,E07,FATIGUE,FATIGUE,,FATIGUE,,HLT_0043,,HLGT_0181,,GENERAL DISORDERS AND ADMINISTRATION SITE CONDITIONS,,GENERAL DISORDERS AND ADMINISTRATION SITE CONDITIONS,,MILD,N,,POSSIBLE,NOT RECOVERED/NOT RESOLVED,N,N,N,N,N,N,N,2014-11-18,2014-11-02,,125,
12,CDISCPILOT01,AE,01-701-1047,4,E09,BUNDLE BRANCH BLOCK LEFT,LEFT BUNDLE BRANCH BLOCK,,BUNDLE BRANCH BLOCK LEFT,,HLT_0281,,HLGT_0721,,CARDIAC DISORDERS,,CARDIAC DISORDERS,,MILD,N,,NONE,NOT RECOVERED/NOT RESOLVED,N,N,N,N,N,N,N,2013-03-10,2013-03-10,,27,
13,CDISCPILOT01,AE,01-701-1047,1,E06,HIATUS HERNIA,HERNIA HIATAL,,HIATUS HERNIA,,HLT_0159,,HLGT_0109,,GASTROINTESTINAL DISORDERS,,GASTROINTESTINAL DISORDERS,,MODERATE,N,,NONE,NOT RECOVERED/NOT RESOLVED,N,N,N,N,N,N,N,2013-02-12,2013-02-12,2013-02-12,1,1
14,CDISCPILOT01,AE,01-701-1047,2,E06,HIATUS HERNIA,HERNIA HIATAL,,HIATUS HERNIA,,HLT_0159,,HLGT_0109,,GASTROINTESTINAL DISORDERS,,GASTROINTESTINAL DISORDERS,,MODERATE,N,,NONE,RECOVERED/RESOLVED,N,N,N,N,N,N,N,2013-02-25,2013-02-12,2013-02-12,1,1
15,CDISCPILOT01,AE,01-701-1047,3,E08,UPPER RESPIRATORY TRACT INFECTION,UPPER RESPIRATORY INFECTION,,UPPER RESPIRATORY TRACT INFECTION,,HLT_0520,,HLGT_0489,,INFECTIONS AND INFESTATIONS,,INFECTIONS AND INFESTATIONS,,MILD,N,,NONE,NOT RECOVERED/NOT RESOLVED,N,N,N,N,N,N,N,2013-03-10,2013-03-06,,23,
16,CDISCPILOT01,AE,01-701-1097,4,E06,APPLICATION SITE PRURITUS,APPLICATION SITE ITCHING,,APPLICATION SITE PRURITUS,,HLT_0317,,HLGT_0338,,GENERAL DISORDERS AND ADMINISTRATION SITE CONDITIONS,,GENERAL DISORDERS AND ADMINISTRATION SITE CONDITIONS,,MILD,N,,POSSIBLE,NOT RECOVERED/NOT RESOLVED,N,N,N,N,N,N,N,2014-02-26,2014-02-21,,52,
17,CDISCPILOT01,AE,01-701-1097,10,E06,APPLICATION SITE PRURITUS,APPLICATION SITE ITCHING,,APPLICATION SITE PRURITUS,,HLT_0317,,HLGT_0338,,GENERAL DISORDERS AND ADMINISTRATION SITE CONDITIONS,,GENERAL DISORDERS AND ADMINISTRATION SITE CONDITIONS,,MODERATE,N,,POSSIBLE,NOT RECOVERED/NOT RESOLVED,N,N,N,N,N,N,N,2014-05-21,2014-02-21,,52,
18,CDISCPILOT01,AE,01-701-1097,3,E07,APPLICATION SITE VESICLES,APPLICATION SITE BLISTER,,APPLICATION SITE VESICLES,,HLT_0180,,HLGT_0576,,GENERAL DISORDERS AND ADMINISTRATION SITE CONDITIONS,,GENERAL DISORDERS AND ADMINISTRATION SITE CONDITIONS,,MILD,N,,PROBABLE,RECOVERED/RESOLVED,N,N,N,N,N,N,N,2014-02-26,2014-02-20,2014-02-22,51,53
19,CDISCPILOT01,AE,01-701-1097,1,E04,ERYTHEMA,ERYTHEMA,,ERYTHEMA,,HLT_0284,,HLGT_0192,,SKIN AND SUBCUTANEOUS TISSUE DISORDERS,,SKIN AND SUBCUTANEOUS TISSUE DISORDERS,,MILD,N,,POSSIBLE,NOT RECOVERED/NOT RESOLVED,N,N,N,N,N,N,N,2014-01-15,2014-01-03,,3,
20,CDISCPILOT01,AE,01-701-1097,9,E11,NASAL CONGESTION,NASAL CONGESTION,,NASAL CONGESTION,,HLT_0118,,HLGT_0549,,"RESPIRATORY, THORACIC AND MEDIASTINAL DISORDERS",,"RESPIRATORY, THORACIC AND MEDIASTINAL DISORDERS",,MILD,N,,NONE,RECOVERED/RESOLVED,N,N,N,N,N,N,N,2014-04-23,2014-04-19,2014-04-22,109,112
21,CDISCPILOT01,AE,01-701-1097,8,E10,PHARYNGOLARYNGEAL PAIN,SORE THROAT,,PHARYNGOLARYNGEAL PAIN,,HLT_0130,,HLGT_0402,,"RESPIRATORY, THORACIC AND MEDIASTINAL DISORDERS",,"RESPIRATORY, THORACIC AND MEDIASTINAL DISORDERS",,MILD,N,,NONE,RECOVERED/RESOLVED,N,N,N,N,N,N,N,2014-04-23,2014-04-19,2014-04-22,109,112
22,CDISCPILOT01,AE,01-701-1097,2,E05,PRURITUS GENERALISED,GENERALIZED PRURITUS,,PRURITUS GENERALISED,,HLT_0123,,HLGT_0689,,SKIN AND SUBCUTANEOUS TISSUE DISORDERS,,SKIN AND SUBCUTANEOUS TISSUE DISORDERS,,MODERATE,N,,POSSIBLE,RECOVERED/RESOLVED,N,N,N,N,N,N,N,2014-02-26,2014-02-20,2014-02-20,51,51
23,CDISCPILOT01,AE,01-701-1097,5,E08,PRURITUS GENERALISED,GENERALIZED PRURITUS,,PRURITUS GENERALISED,,HLT_0123,,HLGT_0689,,SKIN AND SUBCUTANEOUS TISSUE DISORDERS,,SKIN AND SUBCUTANEOUS TISSUE DISORDERS,,MODERATE,N,,POSSIBLE,RECOVERED/RESOLVED,N,N,N,N,N,N,N,2014-03-26,2014-03-21,2014-03-21,80,80
24,CDISCPILOT01,AE,01-701-1097,6,E12,PRURITUS GENERALISED,GENERALIZED PRURITUS,,PRURITUS GENERALISED,,HLT_0123,,HLGT_0689,,SKIN AND SUBCUTANEOUS TISSUE DISORDERS,,SKIN AND SUBCUTANEOUS TISSUE DISORDERS,,MODERATE,N,,POSSIBLE,RECOVERED/RESOLVED,N,N,N,N,N,N,N,2014-04-23,2014-03-31,2014-03-31,90,90
25,CDISCPILOT01,AE,01-701-1097,7,E09,PRURITUS GENERALISED,GENERALIZED PRURITUS,,PRURITUS GENERALISED,,HLT_0123,,HLGT_0689,,SKIN AND SUBCUTANEOUS TISSUE DISORDERS,,SKIN AND SUBCUTANEOUS TISSUE DISORDERS,,MODERATE,N,,POSSIBLE,RECOVERED/RESOLVED,N,N,N,N,N,N,N,2014-04-23,2014-04-19,2014-04-20,109,110
26,CDISCPILOT01,AE,01-701-1111,7,E16,ARTHRALGIA,GENERALIZED JOINT PAIN,,ARTHRALGIA,,HLT_0375,,HLGT_0610,,MUSCULOSKELETAL AND CONNECTIVE TISSUE DISORDERS,,MUSCULOSKELETAL AND CONNECTIVE TISSUE DISORDERS,,MODERATE,N,,NONE,NOT RECOVERED/NOT RESOLVED,N,N,N,N,N,N,N,2012-09-17,2012-09-13,,7,
27,CDISCPILOT01,AE,01-701-1111,8,E17,CELLULITIS,CELLULITIS OF LEG,,CELLULITIS,,HLT_0613,,HLGT_0066,,INFECTIONS AND INFESTATIONS,,INFECTIONS AND INFESTATIONS,,MODERATE,N,,NONE,NOT RECOVERED/NOT RESOLVED,N,N,N,N,N,N,N,2012-09-17,2012-09-13,,7,
28,CDISCPILOT01,AE,01-701-1111,1,E14,ERYTHEMA,ERYTHEMA,,ERYTHEMA,,HLT_0284,,HLGT_0192,,SKIN AND SUBCUTANEOUS TISSUE DISORDERS,,SKIN AND SUBCUTANEOUS TISSUE DISORDERS,,MILD,N,,NONE,NOT RECOVERED/NOT RESOLVED,N,N,N,N,N,N,N,2012-09-05,2012-09-02,2012-09-07,-5,1
29,CDISCPILOT01,AE,01-701-1111,4,E14,ERYTHEMA,ERYTHEMA,,ERYTHEMA,,HLT_0284,,HLGT_0192,,SKIN AND SUBCUTANEOUS TISSUE DISORDERS,,SKIN AND SUBCUTANEOUS TISSUE DISORDERS,,MILD,N,,NONE,RECOVERED/RESOLVED,N,N,N,N,N,N,N,2012-09-17,2012-09-02,2012-09-07,-5,1
30,CDISCPILOT01,AE,01-701-1111,3,E06,LOCALISED INFECTION,LOCALIZED INFECTION,,LOCALISED INFECTION,,HLT_0435,,HLGT_0557,,INFECTIONS AND INFESTATIONS,,INFECTIONS AND INFESTATIONS,,MODERATE,N,,NONE,NOT RECOVERED/NOT RESOLVED,N,N,N,N,N,N,N,2012-09-17,2012-07-08,,-61,
31,CDISCPILOT01,AE,01-701-1111,6,E18,MICTURITION URGENCY,URINARY URGENCY,,MICTURITION URGENCY,,HLT_0294,,HLGT_0483,,RENAL AND URINARY DISORDERS,,RENAL AND URINARY DISORDERS,,MILD,N,,NONE,NOT RECOVERED/NOT RESOLVED,N,N,N,N,N,N,N,2012-09-17,2012-09-07,,1,
32,CDISCPILOT01,AE,01-701-1111,2,E15,PRURITUS,ITCHING,,PRURITUS,,HLT_0778,,HLGT_0695,,SKIN AND SUBCUTANEOUS TISSUE DISORDERS,,SKIN AND SUBCUTANEOUS TISSUE DISORDERS,,MILD,N,,NONE,NOT RECOVERED/NOT RESOLVED,N,N,N,N,N,N,N,2012-09-05,2012-09-02,2012-09-07,-5,1
33,CDISCPILOT01,AE,01-701-1111,5,E15,PRURITUS,ITCHING,,PRURITUS,,HLT_0778,,HLGT_0695,,SKIN AND SUBCUTANEOUS TISSUE DISORDERS,,SKIN AND SUBCUTANEOUS TISSUE DISORDERS,,MILD,N,,NONE,RECOVERED/RESOLVED,N,N,N,N,N,N,N,2012-09-17,2012-09-02,2012-09-07,-5,1
34,CDISCPILOT01,AE,01-701-1115,9,E14,APPLICATION SITE DERMATITIS,APPLICATION SITE RASH,,APPLICATION SITE DERMATITIS,,HLT_0343,,HLGT_0241,,GENERAL DISORDERS AND ADMINISTRATION SITE CONDITIONS,,GENERAL DISORDERS AND ADMINISTRATION SITE CONDITIONS,,MODERATE,N,,PROBABLE,NOT RECOVERED/NOT RESOLVED,N,N,N,N,N,N,N,2013-01-23,2013-01-19,,51,
35,CDISCPILOT01,AE,01-701-1115,1,E09,APPLICATION SITE ERYTHEMA,APPLICATION SITE REDNESS,,APPLICATION SITE ERYTHEMA,,HLT_0617,,HLGT_0152,,GENERAL DISORDERS AND ADMINISTRATION SITE CONDITIONS,,GENERAL DISORDERS AND ADMINISTRATION SITE CONDITIONS,,MILD,N,,PROBABLE,NOT RECOVERED/NOT RESOLVED,N,N,N,N,N,N,N,2012-12-13,2012-12-02,,3,
36,CDISCPILOT01,AE,01-701-1115,5,E09,APPLICATION SITE ERYTHEMA,APPLICATION SITE REDNESS,,APPLICATION SITE ERYTHEMA,,HLT_0617,,HLGT_0152,,GENERAL DISORDERS AND ADMINISTRATION SITE CONDITIONS,,GENERAL DISORDERS AND ADMINISTRATION SITE CONDITIONS,,MODERATE,N,,PROBABLE,NOT RECOVERED/NOT RESOLVED,N,N,N,N,N,N,N,2013-01-23,2012-12-02,,3,
37,CDISCPILOT01,AE,01-701-1115,3,E10,APPLICATION SITE IRRITATION,APPLICATION SITE BURNING,,APPLICATION SITE IRRITATION,,HLT_0061,,HLGT_0346,,GENERAL DISORDERS AND ADMINISTRATION SITE CONDITIONS,,GENERAL DISORDERS AND ADMINISTRATION SITE CONDITIONS,,MILD,N,,POSSIBLE,NOT RECOVERED/NOT RESOLVED,N,N,N,N,N,N,N,2012-12-26,2012-12-26,2012-12-26,27,27
38,CDISCPILOT01,AE,01-701-1115,4,E10,APPLICATION SITE IRRITATION,APPLICATION SITE BURNING,,APPLICATION SITE IRRITATION,,HLT_0061,,HLGT_0346,,GENERAL DISORDERS AND ADMINISTRATION SITE CONDITIONS,,GENERAL DISORDERS AND ADMINISTRATION SITE CONDITIONS,,MILD,N,,POSSIBLE,RECOVERED/RESOLVED,N,N,N,N,N,N,N,2012-12-28,2012-12-26,2012-12-26,27,27
39,CDISCPILOT01,AE,01-701-1115,8,E12,APPLICATION SITE IRRITATION,APPLICATION SITE BURNING,,APPLICATION SITE IRRITATION,,HLT_0061,,HLGT_0346,,GENERAL DISORDERS AND ADMINISTRATION SITE CONDITIONS,,GENERAL DISORDERS AND ADMINISTRATION SITE CONDITIONS,,MODERATE,N,,PROBABLE,NOT RECOVERED/NOT RESOLVED,N,N,N,N,N,N,N,2013-01-23,2013-01-19,,51,
40,CDISCPILOT01,AE,01-701-1115,2,E11,APPLICATION SITE PRURITUS,APPLICATION SITE ITCHING,,APPLICATION SITE PRURITUS,,HLT_0317,,HLGT_0338,,GENERAL DISORDERS AND ADMINISTRATION SITE CONDITIONS,,GENERAL DISORDERS AND ADMINISTRATION SITE CONDITIONS,,MILD,N,,PROBABLE,NOT RECOVERED/NOT RESOLVED,N,N,N,N,N,N,N,2012-12-13,2012-12-02,,3,
41,CDISCPILOT01,AE,01-701-1115,6,E11,APPLICATION SITE PRURITUS,APPLICATION SITE ITCHING,,APPLICATION SITE PRURITUS,,HLT_0317,,HLGT_0338,,GENERAL DISORDERS AND ADMINISTRATION SITE CONDITIONS,,GENERAL DISORDERS AND ADMINISTRATION SITE CONDITIONS,,MODERATE,N,,PROBABLE,NOT RECOVERED/NOT RESOLVED,N,N,N,N,N,N,N,2013-01-23,2012-12-02,,3,
42,CDISCPILOT01,AE,01-701-1115,7,E13,FATIGUE,FATIGUE,,FATIGUE,,HLT_0043,,HLGT_0181,,GENERAL DISORDERS AND ADMINISTRATION SITE CONDITIONS,,GENERAL DISORDERS AND ADMINISTRATION SITE CONDITIONS,,MODERATE,N,,REMOTE,NOT RECOVERED/NOT RESOLVED,N,N,N,N,N,N,N,2013-01-23,2013-01-14,,46,
43,CDISCPILOT01,AE,01-701-1118,1,E06,COUGH,COUGH,,COUGH,,HLT_0701,,HLGT_0280,,"RESPIRATORY, THORACIC AND MEDIASTINAL DISORDERS",,"RESPIRATORY, THORACIC AND MEDIASTINAL DISORDERS",,MILD,N,,NONE,NOT RECOVERED/NOT RESOLVED,N,N,N,N,N,N,N,2014-03-10,2003,,,
44,CDISCPILOT01,AE,01-701-1130,5,E09,EYE ALLERGY,EYE ALLERGY,,EYE ALLERGY,,HLT_0256,,HLGT_0071,,EYE DISORDERS,,EYE DISORDERS,,MILD,N,,NONE,RECOVERED/RESOLVED,N,N,N,N,N,N,N,2014-05-16,2014-05-09,2014-05-09,84,84
45,CDISCPILOT01,AE,01-701-1130,6,E10,EYE PRURITUS,EYE ITCHING,,EYE PRURITUS,,HLT_0523,,HLGT_0240,,EYE DISORDERS,,EYE DISORDERS,,MILD,N,,REMOTE,NOT RECOVERED/NOT RESOLVED,N,N,N,N,N,N,N,2014-06-07,2014-05-22,,97,
46,CDISCPILOT01,AE,01-701-1130,4,E08,EYE SWELLING,EYES SWOLLEN,,EYE SWELLING,,HLT_0008,,HLGT_0466,,EYE DISORDERS,,EYE DISORDERS,,MILD,N,,NONE,RECOVERED/RESOLVED,N,N,N,N,N,N,N,2014-05-16,2014-05-09,2014-05-09,84,84
47,CDISCPILOT01,AE,01-701-1130,8,E12,NASAL CONGESTION,NASAL CONGESTION,,NASAL CONGESTION,,HLT_0118,,HLGT_0549,,"RESPIRATORY, THORACIC AND MEDIASTINAL DISORDERS",,"RESPIRATORY, THORACIC AND MEDIASTINAL DISORDERS",,MILD,N,,REMOTE,NOT RECOVERED/NOT RESOLVED,N,N,N,N,N,N,N,2014-06-07,2014-05-22,,97,
48,CDISCPILOT01,AE,01-701-1130,7,E11,PRURITUS,ITCHING BOTH HANDS,,PRURITUS,,HLT_0778,,HLGT_0695,,SKIN AND SUBCUTANEOUS TISSUE DISORDERS,,SKIN AND SUBCUTANEOUS TISSUE DISORDERS,,MILD,N,,REMOTE,NOT RECOVERED/NOT RESOLVED,N,N,N,N,N,N,N,2014-06-07,2014-05-22,,97,
49,CDISCPILOT01,AE,01-701-1130,2,E07,PYREXIA,FEVER,,PYREXIA,,HLT_0310,,HLGT_0652,,GENERAL DISORDERS AND ADMINISTRATION SITE CONDITIONS,,GENERAL DISORDERS AND ADMINISTRATION SITE CONDITIONS,,MILD,N,,NONE,RECOVERED/RESOLVED,N,N,N,N,N,N,N,2014-03-15,2014-03-09,2014-03-09,23,23
50,CDISCPILOT01,AE,01-701-1130,1,E06,URINARY TRACT INFECTION,URINARY TRACT INFECTION,,URINARY TRACT INFECTION,,HLT_0161,,HLGT_0093,,INFECTIONS AND INFESTATIONS,,INFECTIONS AND INFESTATIONS,,MILD,N,,NONE,NOT RECOVERED/NOT RESOLVED,N,N,N,N,N,N,N,2014-03-15,2014-03-09,2014-03-16,23,30
51,CDISCPILOT01,AE,01-701-1130,3,E06,URINARY TRACT INFECTION,URINARY TRACT INFECTION,,URINARY TRACT INFECTION,,HLT_0161,,HLGT_0093,,INFECTIONS AND INFESTATIONS,,INFECTIONS AND INFESTATIONS,,MILD,N,,NONE,RECOVERED/RESOLVED,N,N,N,N,N,N,N,2014-03-17,2014-03-09,2014-03-16,23,30
52,CDISCPILOT01,AE,01-701-1133,1,E04,APPLICATION SITE ERYTHEMA,APPLICATION SITE REDNESS,,APPLICATION SITE ERYTHEMA,,HLT_0617,,HLGT_0152,,GENERAL DISORDERS AND ADMINISTRATION SITE CONDITIONS,,GENERAL DISORDERS AND ADMINISTRATION SITE CONDITIONS,,MILD,N,,PROBABLE,NOT RECOVERED/NOT RESOLVED,N,N,N,N,N,N,N,2013-01-22,2012-12-27,,61,
53,CDISCPILOT01,AE,01-701-1133,3,E04,APPLICATION SITE ERYTHEMA,APPLICATION SITE REDNESS,,APPLICATION SITE ERYTHEMA,,HLT_0617,,HLGT_0152,,GENERAL DISORDERS AND ADMINISTRATION SITE CONDITIONS,,GENERAL DISORDERS AND ADMINISTRATION SITE CONDITIONS,,MODERATE,N,,PROBABLE,NOT RECOVERED/NOT RESOLVED,N,N,N,N,N,N,N,2013-02-18,2012-12-27,,61,
54,CDISCPILOT01,AE,01-701-1133,2,E05,APPLICATION SITE PRURITUS,APPLICATION SITE ITCHING,,APPLICATION SITE PRURITUS,,HLT_0317,,HLGT_0338,,GENERAL DISORDERS AND ADMINISTRATION SITE CONDITIONS,,GENERAL DISORDERS AND ADMINISTRATION SITE CONDITIONS,,MILD,N,,PROBABLE,NOT RECOVERED/NOT RESOLVED,N,N,N,N,N,N,N,2013-01-22,2012-12-27,,61,
55,CDISCPILOT01,AE,01-701-1133,4,E05,APPLICATION SITE PRURITUS,APPLICATION SITE ITCHING,,APPLICATION SITE PRURITUS,,HLT_0317,,HLGT_0338,,GENERAL DISORDERS AND ADMINISTRATION SITE CONDITIONS,,GENERAL DISORDERS AND ADMINISTRATION SITE CONDITIONS,,MODERATE,N,,PROBABLE,NOT RECOVERED/NOT RESOLVED,N,N,N,N,N,N,N,2013-02-18,2012-12-27,,61,
56,CDISCPILOT01,AE,01-701-1146,5,E12,APPLICATION SITE ERYTHEMA,APPLICATION SITE ERYTHEMA,,APPLICATION SITE ERYTHEMA,,HLT_0617,,HLGT_0152,,GENERAL DISORDERS AND ADMINISTRATION SITE CONDITIONS,,GENERAL DISORDERS AND ADMINISTRATION SITE CONDITIONS,,MILD,N,,PROBABLE,NOT RECOVERED/NOT RESOLVED,N,N,N,N,N,N,N,2013-06-16,2013-06-10,,22,
57,CDISCPILOT01,AE,01-701-1146,7,E12,APPLICATION SITE ERYTHEMA,APPLICATION SITE ERYTHEMA,,APPLICATION SITE ERYTHEMA,,HLT_0617,,HLGT_0152,,GENERAL DISORDERS AND ADMINISTRATION SITE CONDITIONS,,GENERAL DISORDERS AND ADMINISTRATION SITE CONDITIONS,,MODERATE,N,,PROBABLE,NOT RECOVERED/NOT RESOLVED,N,N,N,N,N,N,N,2013-06-30,2013-06-10,,22,
58,CDISCPILOT01,AE,01-701-1146,3,E10,APPLICATION SITE IRRITATION,APPLICATION SITE IRRITATION,,APPLICATION SITE IRRITATION,,HLT_0061,,HLGT_0346,,GENERAL DISORDERS AND ADMINISTRATION SITE CONDITIONS,,GENERAL DISORDERS AND ADMINISTRATION SITE CONDITIONS,,MILD,N,,PROBABLE,RECOVERED/RESOLVED,N,N,N,N,N,N,N,2013-06-03,2013-06-01,2013-06-02,13,14
59,CDISCPILOT01,AE,01-701-1146,11,E16,APPLICATION SITE IRRITATION,APPLICATION SITE BURNING,,APPLICATION SITE IRRITATION,,HLT_0061,,HLGT_0346,,GENERAL DISORDERS AND ADMINISTRATION SITE CONDITIONS,,GENERAL DISORDERS AND ADMINISTRATION SITE CONDITIONS,,MODERATE,N,,PROBABLE,NOT RECOVERED/NOT RESOLVED,N,N,N,N,N,N,N,2013-06-30,2013-06-26,,38,
60,CDISCPILOT01,AE,01-701-1146,9,E14,APPLICATION SITE PAIN,APPLICATION SITE PAIN,,APPLICATION SITE PAIN,,HLT_0342,,HLGT_0085,,GENERAL DISORDERS AND ADMINISTRATION SITE CONDITIONS,,GENERAL DISORDERS AND ADMINISTRATION SITE CONDITIONS,,MODERATE,N,,PROBABLE,NOT RECOVERED/NOT RESOLVED,N,N,N,N,N,N,N,2013-06-30,2013-06-22,,34,
61,CDISCPILOT01,AE,01-701-1146,6,E13,APPLICATION SITE PRURITUS,APPLICATION SITE ITCHING,,APPLICATION SITE PRURITUS,,HLT_0317,,HLGT_0338,,GENERAL DISORDERS AND ADMINISTRATION SITE CONDITIONS,,GENERAL DISORDERS AND ADMINISTRATION SITE CONDITIONS,,MILD,N,,PROBABLE,NOT RECOVERED/NOT RESOLVED,N,N,N,N,N,N,N,2013-06-16,2013-06-10,,22,
62,CDISCPILOT01,AE,01-701-1146,8,E13,APPLICATION SITE PRURITUS,APPLICATION SITE ITCHING,,APPLICATION SITE PRURITUS,,HLT_0317,,HLGT_0338,,GENERAL DISORDERS AND ADMINISTRATION SITE CONDITIONS,,GENERAL DISORDERS AND ADMINISTRATION SITE CONDITIONS,,MODERATE,N,,PROBABLE,NOT RECOVERED/NOT RESOLVED,N,N,N,N,N,N,N,2013-06-30,2013-06-10,,22,
63,CDISCPILOT01,AE,01-701-1146,10,E15,APPLICATION SITE VESICLES,APPLICATION SITE VESICLES,,APPLICATION SITE VESICLES,,HLT_0180,,HLGT_0576,,GENERAL DISORDERS AND ADMINISTRATION SITE CONDITIONS,,GENERAL DISORDERS AND ADMINISTRATION SITE CONDITIONS,,MODERATE,N,,PROBABLE,NOT RECOVERED/NOT RESOLVED,N,N,N,N,N,N,N,2013-06-30,2013-06-26,,38,
64,CDISCPILOT01,AE,01-701-1146,4,E11,FATIGUE,FATIGUE,,FATIGUE,,HLT_0043,,HLGT_0181,,GENERAL DISORDERS AND ADMINISTRATION SITE CONDITIONS,,GENERAL DISORDERS AND ADMINISTRATION SITE CONDITIONS,,MILD,N,,POSSIBLE,NOT RECOVERED/NOT RESOLVED,N,N,N,N,N,N,N,2013-06-03,2013-06-03,,15,
65,CDISCPILOT01,AE,01-701-1146,1,E09,RASH,RASH,,RASH,,HLT_0762,,HLGT_0198,,SKIN AND SUBCUTANEOUS TISSUE DISORDERS,,SKIN AND SUBCUTANEOUS TISSUE DISORDERS,,MILD,N,,NONE,NOT RECOVERED/NOT RESOLVED,N,N,N,N,N,N,N,2013-05-18,2013-05-16,2013-06-02,-4,14
66,CDISCPILOT01,AE,01-701-1146,2,E09,RASH,RASH,,RASH,,HLT_0762,,HLGT_0198,,SKIN AND SUBCUTANEOUS TISSUE DISORDERS,,SKIN AND SUBCUTANEOUS TISSUE DISORDERS,,MILD,N,,NONE,RECOVERED/RESOLVED,N,N,N,N,N,N,N,2013-06-03,2013-05-16,2013-06-02,-4,14
67,CDISCPILOT01,AE,01-701-1148,10,E27,ACTINIC KERATOSIS,ACTINIC KERATOSIS,,ACTINIC KERATOSIS,,HLT_0609,,HLGT_0490,,SKIN AND SUBCUTANEOUS TISSUE DISORDERS,,SKIN AND SUBCUTANEOUS TISSUE DISORDERS,,MILD,N,,NONE,NOT RECOVERED/NOT RESOLVED,N,N,N,N,N,N,N,2014-02-20,2014-02-12,,174,
68,CDISCPILOT01,AE,01-701-1148,1,E20,APPLICATION SITE ERYTHEMA,APPLICATION SITE REDNESS,,APPLICATION SITE ERYTHEMA,,HLT_0617,,HLGT_0152,,GENERAL DISORDERS AND ADMINISTRATION SITE CONDITIONS,,GENERAL DISORDERS AND ADMINISTRATION SITE CONDITIONS,,MILD,N,,PROBABLE,NOT RECOVERED/NOT RESOLVED,N,N,N,N,N,N,N,2013-09-05,2013-08-25,,3,
69,CDISCPILOT01,AE,01-701-1148,2,E21,APPLICATION SITE PRURITUS,APPLICATION SITE ITCHING,,APPLICATION SITE PRURITUS,,HLT_0317,,HLGT_0338,,GENERAL DISORDERS AND ADMINISTRATION SITE CONDITIONS,,GENERAL DISORDERS AND ADMINISTRATION SITE CONDITIONS,,MILD,N,,PROBABLE,NOT RECOVERED/NOT RESOLVED,N,N,N,N,N,N,N,2013-09-05,2013-08-25,,3,
70,CDISCPILOT01,AE,01-701-1148,6,E25,CALCULUS URETHRAL,URETHRAL CALCULUS,,CALCULUS URETHRAL,,HLT_0550,,HLGT_0414,,RENAL AND URINARY DISORDERS,,RENAL AND URINARY DISORDERS,,MODERATE,N,,NONE,RECOVERED/RESOLVED,N,N,N,N,N,N,N,2014-01-10,2013-12-17,2013-12-17,117,117
71,CDISCPILOT01,AE,01-701-1148,9,E26,DEPRESSED MOOD,DEPRESSED MOOD,,DEPRESSED MOOD,,HLT_0784,,HLGT_0122,,PSYCHIATRIC DISORDERS,,PSYCHIATRIC DISORDERS,,MODERATE,N,,NONE,NOT RECOVERED/NOT RESOLVED,N,N,N,N,N,N,N,2014-02-08,2013-07-29,,-25,
72,CDISCPILOT01,AE,01-701-1148,8,E03,DYSPEPSIA,INDIGESTION,,DYSPEPSIA,,HLT_0244,,HLGT_0716,,GASTROINTESTINAL DISORDERS,,GASTROINTESTINAL DISORDERS,,MODERATE,N,,NONE,NOT RECOVERED/NOT RESOLVED,N,N,N,N,N,N,N,2014-02-08,2012-02,,,
73,CDISCPILOT01,AE,01-701-1148,7,E28,EPISTAXIS,NOSE BLEED,,EPISTAXIS,,HLT_0386,,HLGT_0577,,"RESPIRATORY, THORACIC AND MEDIASTINAL DISORDERS",,"RESPIRATORY, THORACIC AND MEDIASTINAL DISORDERS",,MILD,N,,NONE,RECOVERED/RESOLVED,N,N,N,N,N,N,N,2014-01-10,2014-01-03,2014-01-03,134,134
74,CDISCPILOT01,AE,01-701-1148,5,E24,FLANK PAIN,FLANK PAIN,,FLANK PAIN,,HLT_0484,,HLGT_0543,,MUSCULOSKELETAL AND CONNECTIVE TISSUE DISORDERS,,MUSCULOSKELETAL AND CONNECTIVE TISSUE DISORDERS,,MODERATE,N,,NONE,RECOVERED/RESOLVED,N,N,N,N,N,N,N,2014-01-10,2013-12-15,2013-12-17,115,117
75,CDISCPILOT01,AE,01-701-1148,3,E23,LOWER RESPIRATORY TRACT INFECTION,CHEST COLD,,LOWER RESPIRATORY TRACT INFECTION,,HLT_0052,,HLGT_0217,,INFECTIONS AND INFESTATIONS,,INFECTIONS AND INFESTATIONS,,MODERATE,N,,NONE,NOT RECOVERED/NOT RESOLVED,N,N,N,N,N,N,N,2013-10-18,2013-10-12,2013-11-10,51,80
76,CDISCPILOT01,AE,01-701-1148,4,E23,LOWER RESPIRATORY TRACT INFECTION,CHEST COLD,,LOWER RESPIRATORY TRACT INFECTION,,HLT_0052,,HLGT_0217,,INFECTIONS AND INFESTATIONS,,INFECTIONS AND INFESTATIONS,,MODERATE,N,,NONE,RECOVERED/RESOLVED,N,N,N,N,N,N,N,2013-11-17,2013-10-12,2013-11-10,51,80
77,CDISCPILOT01,AE,01-701-1153,1,E06,INCREASED APPETITE,INCREASED APPETITE,,INCREASED APPETITE,,HLT_0566,,HLGT_0769,,METABOLISM AND NUTRITION DISORDERS,,METABOLISM AND NUTRITION DISORDERS,,MILD,N,,POSSIBLE,NOT RECOVERED/NOT RESOLVED,N,N,N,N,N,N,N,2013-10-19,2013-10-13,2013-11-06,21,45
78,CDISCPILOT01,AE,01-701-1153,2,E06,INCREASED APPETITE,INCREASED APPETITE,,INCREASED APPETITE,,HLT_0566,,HLGT_0769,,METABOLISM AND NUTRITION DISORDERS,,METABOLISM AND NUTRITION DISORDERS,,MILD,N,,POSSIBLE,RECOVERED/RESOLVED,N,N,N,N,N,N,N,2013-11-18,2013-10-13,2013-11-06,21,45
79,CDISCPILOT01,AE,01-701-1180,9,E07,APPLICATION SITE ERYTHEMA,APPLICATION SITE ERYTHEMA,,APPLICATION SITE ERYTHEMA,,HLT_0617,,HLGT_0152,,GENERAL DISORDERS AND ADMINISTRATION SITE CONDITIONS,,GENERAL DISORDERS AND ADMINISTRATION SITE CONDITIONS,,MODERATE,N,,POSSIBLE,NOT RECOVERED/NOT RESOLVED,N,N,N,N,N,N,N,2013-03-23,2013-03-19,,36,
80,CDISCPILOT01,AE,01-701-1180,8,E06,APPLICATION SITE PRURITUS,APPLICATION SITE ITCHING,,APPLICATION SITE PRURITUS,,HLT_0317,,HLGT_0338,,GENERAL DISORDERS AND ADMINISTRATION SITE CONDITIONS,,GENERAL DISORDERS AND ADMINISTRATION SITE CONDITIONS,,MODERATE,N,,POSSIBLE,NOT RECOVERED/NOT RESOLVED,N,N,N,N,N,N,N,2013-03-23,2013-03-19,,36,
81,CDISCPILOT01,AE,01-701-1180,7,E05,APPLICATION SITE VESICLES,APPLICATION SITE BLISTER,,APPLICATION SITE VESICLES,,HLT_0180,,HLGT_0576,,GENERAL DISORDERS AND ADMINISTRATION SITE CONDITIONS,,GENERAL DISORDERS AND ADMINISTRATION SITE CONDITIONS,,MODERATE,N,,POSSIBLE,NOT RECOVERED/NOT RESOLVED,N,N,N,N,N,N,N,2013-03-23,2013-03-19,,36,
82,CDISCPILOT01,AE,01-701-1180,4,E04,HEADACHE,HEADACHE,,HEADACHE,,HLT_0064,,HLGT_0344,,NERVOUS SYSTEM DISORDERS,,NERVOUS SYSTEM DISORDERS,,MODERATE,N,,NONE,NOT RECOVERED/NOT RESOLVED,N,N,N,N,N,N,N,2013-03-11,2002,,,
83,CDISCPILOT01,AE,01-701-1180,3,E02,MICTURITION URGENCY,URINARY URGENCY,,MICTURITION URGENCY,,HLT_0294,,HLGT_0483,,RENAL AND URINARY DISORDERS,,RENAL AND URINARY DISORDERS,,MILD,N,,POSSIBLE,NOT RECOVERED/NOT RESOLVED,N,N,N,N,N,N,N,2013-02-25,2013-02-15,2013-03-19,4,36
84,CDISCPILOT01,AE,01-701-1180,6,E02,MICTURITION URGENCY,URINARY URGENCY,,MICTURITION URGENCY,,HLT_0294,,HLGT_0483,,RENAL AND URINARY DISORDERS,,RENAL AND URINARY DISORDERS,,MILD,N,,POSSIBLE,RECOVERED/RESOLVED,N,N,N,N,N,N,N,2013-03-23,2013-02-15,2013-03-19,4,36
85,CDISCPILOT01,AE,01-701-1180,5,E03,NASOPHARYNGITIS,COLD,,NASOPHARYNGITIS,,HLT_0036,,HLGT_0709,,INFECTIONS AND INFESTATIONS,,INFECTIONS AND INFESTATIONS,,MILD,N,,NONE,RECOVERED/RESOLVED,N,N,N,N,N,N,N,2013-03-11,2013-03-06,2013-03-07,23,24
86,CDISCPILOT01,AE,01-701-1180,1,E01,VOMITING,VOMITING,,VOMITING,,HLT_0016,,HLGT_0350,,GASTROINTESTINAL DISORDERS,,GASTROINTESTINAL DISORDERS,,MILD,N,,NONE,NOT RECOVERED/NOT RESOLVED,N,N,N,N,N,N,N,2013-02-12,2013-02-12,2013-02-12,1,1
87,CDISCPILOT01,AE,01-701-1180,2,E01,VOMITING,VOMITING,,VOMITING,,HLT_0016,,HLGT_0350,,GASTROINTESTINAL DISORDERS,,GASTROINTESTINAL DISORDERS,,MILD,N,,NONE,RECOVERED/RESOLVED,N,N,N,N,N,N,N,2013-02-25,2013-02-12,2013-02-12,1,1
88,CDISCPILOT01,AE,01-701-1181,1,E16,AGITATION,AGITATION,,AGITATION,,HLT_0140,,HLGT_0170,,PSYCHIATRIC DISORDERS,,PSYCHIATRIC DISORDERS,,MODERATE,N,,NONE,RECOVERED/RESOLVED,N,N,N,N,N,N,N,2013-12-12,2013-12-09,2013-12-09,5,5
89,CDISCPILOT01,AE,01-701-1188,7,E09,APPLICATION SITE URTICARIA,APPLICATION SITE URTICARIA,,APPLICATION SITE URTICARIA,,HLT_0196,,HLGT_0233,,GENERAL DISORDERS AND ADMINISTRATION SITE CONDITIONS,,GENERAL DISORDERS AND ADMINISTRATION SITE CONDITIONS,,MILD,N,,PROBABLE,NOT RECOVERED/NOT RESOLVED,N,N,N,N,N,N,N,2013-03-25,2013-03-21,,35,
90,CDISCPILOT01,AE,01-701-1188,1,E04,ERYTHEMA,ERYTHEMA,,ERYTHEMA,,HLT_0284,,HLGT_0192,,SKIN AND SUBCUTANEOUS TISSUE DISORDERS,,SKIN AND SUBCUTANEOUS TISSUE DISORDERS,,MILD,N,,PROBABLE,NOT RECOVERED/NOT RESOLVED,N,N,N,N,N,N,N,2013-03-02,2013-02-16,,2,
91,CDISCPILOT01,AE,01-701-1188,3,E04,ERYTHEMA,ERYTHEMA,,ERYTHEMA,,HLT_0284,,HLGT_0192,,SKIN AND SUBCUTANEOUS TISSUE DISORDERS,,SKIN AND SUBCUTANEOUS TISSUE DISORDERS,,MODERATE,N,,PROBABLE,NOT RECOVERED/NOT RESOLVED,N,N,N,N,N,N,N,2013-03-16,2013-02-16,,2,
92,CDISCPILOT01,AE,01-701-1188,2,E05,PRURITUS,ITCHING,,PRURITUS,,HLT_0778,,HLGT_0695,,SKIN AND SUBCUTANEOUS TISSUE DISORDERS,,SKIN AND SUBCUTANEOUS TISSUE DISORDERS,,MILD,N,,PROBABLE,NOT RECOVERED/NOT RESOLVED,N,N,N,N,N,N,N,2013-03-02,2013-02-16,,2,
93,CDISCPILOT01,AE,01-701-1188,4,E05,PRURITUS,ITCHING,,PRURITUS,,HLT_0778,,HLGT_0695,,SKIN AND SUBCUTANEOUS TISSUE DISORDERS,,SKIN AND SUBCUTANEOUS TISSUE DISORDERS,,MODERATE,N,,PROBABLE,NOT RECOVERED/NOT RESOLVED,N,N,N,N,N,N,N,2013-03-16,2013-02-16,,2,
94,CDISCPILOT01,AE,01-701-1188,5,E06,URTICARIA,WELTS,,URTICARIA,,HLT_0420,,HLGT_0705,,SKIN AND SUBCUTANEOUS TISSUE DISORDERS,,SKIN AND SUBCUTANEOUS TISSUE DISORDERS,,MILD,N,,PROBABLE,NOT RECOVERED/NOT RESOLVED,N,N,N,N,N,N,N,2013-03-16,2013-03-04,,18,
95,CDISCPILOT01,AE,01-701-1188,6,E06,URTICARIA,WELTS,,URTICARIA,,HLT_0420,,HLGT_0705,,SKIN AND SUBCUTANEOUS TISSUE DISORDERS,,SKIN AND SUBCUTANEOUS TISSUE DISORDERS,,MODERATE,N,,PROBABLE,NOT RECOVERED/NOT RESOLVED,N,N,N,N,N,N,N,2013-03-25,2013-03-04,,18,
96,CDISCPILOT01,AE,01-701-1188,8,E10,URTICARIA,WELTS,,URTICARIA,,HLT_0420,,HLGT_0705,,SKIN AND SUBCUTANEOUS TISSUE DISORDERS,,SKIN AND SUBCUTANEOUS TISSUE DISORDERS,,MILD,N,,PROBABLE,NOT RECOVERED/NOT RESOLVED,N,N,N,N,N,N,N,2013-03-25,2013-03-21,,35,
97,CDISCPILOT01,AE,01-701-1192,13,E13,APPLICATION SITE ERYTHEMA,APPLICATION SITE REDNESS,,APPLICATION SITE ERYTHEMA,,HLT_0617,,HLGT_0152,,GENERAL DISORDERS AND ADMINISTRATION SITE CONDITIONS,,GENERAL DISORDERS AND ADMINISTRATION SITE CONDITIONS,,MILD,N,,PROBABLE,NOT RECOVERED/NOT RESOLVED,N,N,N,N,N,N,N,2012-12-13,2012-12-05,,137,
98,CDISCPILOT01,AE,01-701-1192,12,E12,APPLICATION SITE IRRITATION,APPLICATION SITE BURNING,,APPLICATION SITE IRRITATION,,HLT_0061,,HLGT_0346,,GENERAL DISORDERS AND ADMINISTRATION SITE CONDITIONS,,GENERAL DISORDERS AND ADMINISTRATION SITE CONDITIONS,,MILD,N,,PROBABLE,NOT RECOVERED/NOT RESOLVED,N,N,N,N,N,N,N,2012-12-13,2012-12-05,2012-12-16,137,148
99,CDISCPILOT01,AE,01-701-1192,15,E12,APPLICATION SITE IRRITATION,APPLICATION SITE BURNING,,APPLICATION SITE IRRITATION,,HLT_0061,,HLGT_0346,,GENERAL DISORDERS AND ADMINISTRATION SITE CONDITIONS,,GENERAL DISORDERS AND ADMINISTRATION SITE CONDITIONS,,MILD,N,,PROBABLE,RECOVERED/RESOLVED,N,N,N,N,N,N,N,2013-01-11,2012-12-05,2012-12-16,137,148
100,CDISCPILOT01,AE,01-701-1192,14,E14,APPLICATION SITE PRURITUS,APPLICATION SITE ITCHING,,APPLICATION SITE PRURITUS,,HLT_0317,,HLGT_0338,,GENERAL DISORDERS AND ADMINISTRATION SITE CONDITIONS,,GENERAL DISORDERS AND ADMINISTRATION SITE CONDITIONS,,MILD,N,,PROBABLE,NOT RECOVERED/NOT RESOLVED,N,N,N,N,N,N,N,2012-12-13,2012-12-05,,137,
101,CDISCPILOT01,AE,01-701-1192,4,E01,COUGH,COUGH,,COUGH,,HLT_0701,,HLGT_0280,,"RESPIRATORY, THORACIC AND MEDIASTINAL DISORDERS",,"RESPIRATORY, THORACIC AND MEDIASTINAL DISORDERS",,MODERATE,N,,NONE,NOT RECOVERED/NOT RESOLVED,N,N,N,N,N,N,N,2012-09-23,2010-06,,,
102,CDISCPILOT01,AE,01-701-1192,9,E01,COUGH,COUGH,,COUGH,,HLT_0701,,HLGT_0280,,"RESPIRATORY, THORACIC AND MEDIASTINAL DISORDERS",,"RESPIRATORY, THORACIC AND MEDIASTINAL DISORDERS",,MILD,N,,NONE,NOT RECOVERED/NOT RESOLVED,N,N,N,N,N,N,N,2012-10-14,2010-06,,,
103,CDISCPILOT01,AE,01-701-1192,3,E09,ERYTHEMA,ERYTHEMA FACIAL,,ERYTHEMA,,HLT_0284,,HLGT_0192,,SKIN AND SUBCUTANEOUS TISSUE DISORDERS,,SKIN AND SUBCUTANEOUS TISSUE DISORDERS,,MILD,N,,NONE,NOT RECOVERED/NOT RESOLVED,N,N,N,N,N,N,N,2012-08-07,2012-08-07,2012-09-14,17,55
104,CDISCPILOT01,AE,01-701-1192,6,E09,ERYTHEMA,ERYTHEMA FACIAL,,ERYTHEMA,,HLT_0284,,HLGT_0192,,SKIN AND SUBCUTANEOUS TISSUE DISORDERS,,SKIN AND SUBCUTANEOUS TISSUE DISORDERS,,MILD,N,,NONE,RECOVERED/RESOLVED,N,N,N,N,N,N,N,2012-09-23,2012-08-07,2012-09-14,17,55
105,CDISCPILOT01,AE,01-701-1192,8,E11,MUSCULAR WEAKNESS,MUSCULAR WEAKNESS,,MUSCULAR WEAKNESS,,HLT_0444,,HLGT_0211,,MUSCULOSKELETAL AND CONNECTIVE TISSUE DISORDERS,,MUSCULOSKELETAL AND CONNECTIVE TISSUE DISORDERS,,MODERATE,N,,NONE,NOT RECOVERED/NOT RESOLVED,N,N,N,N,N,N,N,2012-09-23,2012-09-07,2012-09-30,48,71
106,CDISCPILOT01,AE,01-701-1192,11,E11,MUSCULAR WEAKNESS,MUSCULAR WEAKNESS,,MUSCULAR WEAKNESS,,HLT_0444,,HLGT_0211,,MUSCULOSKELETAL AND CONNECTIVE TISSUE DISORDERS,,MUSCULOSKELETAL AND CONNECTIVE TISSUE DISORDERS,,MODERATE,N,,NONE,RECOVERED/RESOLVED,N,N,N,N,N,N,N,2012-10-14,2012-09-07,2012-09-30,48,71
107,CDISCPILOT01,AE,01-701-1192,1,E06,NASAL MUCOSA BIOPSY,NASAL MUCOSA BIOPSY,,NASAL MUCOSA BIOPSY,,HLT_0680,,HLGT_0396,,INVESTIGATIONS,,INVESTIGATIONS,,MILD,N,,NONE,RECOVERED/RESOLVED,N,N,N,N,N,N,N,2012-08-07,2012-08-03,2012-08-03,13,13
108,CDISCPILOT01,AE,01-701-1192,7,E10,PNEUMONIA,PNEUMONIA,,PNEUMONIA,,HLT_0251,,HLGT_0671,,INFECTIONS AND INFESTATIONS,,INFECTIONS AND INFESTATIONS,,MODERATE,N,,NONE,NOT RECOVERED/NOT RESOLVED,N,N,N,N,Y,N,N,2012-09-23,2012-09-07,2012-10-06,48,77
109,CDISCPILOT01,AE,01-701-1192,10,E10,PNEUMONIA,PNEUMONIA,,PNEUMONIA,,HLT_0251,,HLGT_0671,,INFECTIONS AND INFESTATIONS,,INFECTIONS AND INFESTATIONS,,MODERATE,N,,NONE,RECOVERED/RESOLVED,N,N,N,N,Y,N,N,2012-10-14,2012-09-07,2012-10-06,48,77
110,CDISCPILOT01,AE,01-701-1192,2,E08,SECRETION DISCHARGE,SECRETION DISCHARGE,,SECRETION DISCHARGE,,HLT_0683,,HLGT_0575,,GENERAL DISORDERS AND ADMINISTRATION SITE CONDITIONS,,GENERAL DISORDERS AND ADMINISTRATION SITE CONDITIONS,,MILD,N,,NONE,NOT RECOVERED/NOT RESOLVED,N,N,N,N,N,N,N,2012-08-07,2012-08-07,2012-09-14,17,55
111,CDISCPILOT01,AE,01-701-1192,5,E08,SECRETION DISCHARGE,SECRETION DISCHARGE,,SECRETION DISCHARGE,,HLT_0683,,HLGT_0575,,GENERAL DISORDERS AND ADMINISTRATION SITE CONDITIONS,,GENERAL DISORDERS AND ADMINISTRATION SITE CONDITIONS,,MILD,N,,NONE,RECOVERED/RESOLVED,N,N,N,N,N,N,N,2012-09-23,2012-08-07,2012-09-14,17,55
112,CDISCPILOT01,AE,01-701-1203,1,E05,EYE LASER SURGERY,EYE LASER SURGERY,,EYE LASER SURGERY,,HLT_0355,,HLGT_0189,,SURGICAL AND MEDICAL PROCEDURES,,SURGICAL AND MEDICAL PROCEDURES,,MILD,N,,NONE,RECOVERED/RESOLVED,N,N,N,N,N,N,N,2013-03-30,2013-03-21,2013-03-21,48,48
113,CDISCPILOT01,AE,01-701-1211,5,E05,APPLICATION SITE ERYTHEMA,APPLICATION SITE REDNESS,,APPLICATION SITE ERYTHEMA,,HLT_0617,,HLGT_0152,,GENERAL DISORDERS AND ADMINISTRATION SITE CONDITIONS,,GENERAL DISORDERS AND ADMINISTRATION SITE CONDITIONS,,MILD,N,,POSSIBLE,NOT RECOVERED/NOT RESOLVED,N,N,N,N,N,N,N,2012-12-11,2012-11-29,,15,
114,CDISCPILOT01,AE,01-701-1211,1,E08,APPLICATION SITE PRURITUS,APPLICATION SITE ITCHING,,APPLICATION SITE PRURITUS,,HLT_0317,,HLGT_0338,,GENERAL DISORDERS AND ADMINISTRATION SITE CONDITIONS,,GENERAL DISORDERS AND ADMINISTRATION SITE CONDITIONS,,MILD,N,,POSSIBLE,NOT RECOVERED/NOT RESOLVED,N,N,N,N,N,N,N,2012-11-28,2012-11-16,,2,
115,CDISCPILOT01,AE,01-701-1211,7,E12,CONFUSIONAL STATE,CONFUSION,,CONFUSIONAL STATE,,HLT_0642,,HLGT_0329,,PSYCHIATRIC DISORDERS,,PSYCHIATRIC DISORDERS,,MODERATE,N,,NONE,NOT RECOVERED/NOT RESOLVED,N,N,N,N,N,N,N,2013-01-14,2013-01-11,,58,
116,CDISCPILOT01,AE,01-701-1211,8,E13,DYSPNOEA,SHORTNESS OF BREATH,,DYSPNOEA,,HLT_0296,,HLGT_0255,,"RESPIRATORY, THORACIC AND MEDIASTINAL DISORDERS",,"RESPIRATORY, THORACIC AND MEDIASTINAL DISORDERS",,MODERATE,N,,NONE,NOT RECOVERED/NOT RESOLVED,N,N,N,N,N,N,N,2013-01-14,2013-01-11,,58,
117,CDISCPILOT01,AE,01-701-1211,4,E09,INCONTINENCE,INCONTINENCE,,INCONTINENCE,,HLT_0560,,HLGT_0503,,RENAL AND URINARY DISORDERS,,RENAL AND URINARY DISORDERS,,MILD,N,,NONE,NOT RECOVERED/NOT RESOLVED,N,N,N,N,N,N,N,2012-11-28,2012-11-22,,8,
118,CDISCPILOT01,AE,01-701-1211,2,E03,JOINT DISLOCATION,SHOULDER DISLOCATION,,JOINT DISLOCATION,,HLT_0035,,HLGT_0227,,"INJURY, POISONING AND PROCEDURAL COMPLICATIONS",,"INJURY, POISONING AND PROCEDURAL COMPLICATIONS",,MODERATE,N,,NONE,RECOVERED/RESOLVED,N,N,N,N,N,N,N,2012-11-28,2012-11-21,2012-11-21,7,7
119,CDISCPILOT01,AE,01-701-1211,3,E04,SHOULDER PAIN,SHOULDER PAIN,,SHOULDER PAIN,,HLT_0527,,HLGT_0288,,MUSCULOSKELETAL AND CONNECTIVE TISSUE DISORDERS,,MUSCULOSKELETAL AND CONNECTIVE TISSUE DISORDERS,,MILD,N,,NONE,NOT RECOVERED/NOT RESOLVED,N,N,N,N,N,N,N,2012-11-28,2012-11-21,,7,
120,CDISCPILOT01,AE,01-701-1211,6,E06,SKIN LACERATION,LACERATION OF FACE,,SKIN LACERATION,,HLT_0075,,HLGT_0118,,"INJURY, POISONING AND PROCEDURAL COMPLICATIONS",,"INJURY, POISONING AND PROCEDURAL COMPLICATIONS",,MILD,N,,NONE,NOT RECOVERED/NOT RESOLVED,N,N,N,N,N,N,N,2012-12-11,2012-12-09,,25,
121,CDISCPILOT01,AE,01-701-1211,9,E11,SUDDEN DEATH,SUDDEN DEATH,,SUDDEN DEATH,,HLT_0142,,HLGT_0272,,GENERAL DISORDERS AND ADMINISTRATION SITE CONDITIONS,,GENERAL DISORDERS AND ADMINISTRATION SITE CONDITIONS,,SEVERE,N,,NONE,FATAL,N,N,N,Y,N,Y,N,2013-01-14,2013-01-14,2013-01-14,61,61
122,CDISCPILOT01,AE,01-701-1239,4,E13,APPLICATION SITE IRRITATION,APPLICATION SITE IRRITATION,,APPLICATION SITE IRRITATION,,HLT_0061,,HLGT_0346,,GENERAL DISORDERS AND ADMINISTRATION SITE CONDITIONS,,GENERAL DISORDERS AND ADMINISTRATION SITE CONDITIONS,,MILD,N,,PROBABLE,NOT RECOVERED/NOT RESOLVED,N,N,N,N,N,N,N,2014-01-25,2014-01-20,2014-02-08,10,29
123,CDISCPILOT01,AE,01-701-1239,5,E13,APPLICATION SITE IRRITATION,APPLICATION SITE IRRITATION,,APPLICATION SITE IRRITATION,,HLT_0061,,HLGT_0346,,GENERAL DISORDERS AND ADMINISTRATION SITE CONDITIONS,,GENERAL DISORDERS AND ADMINISTRATION SITE CONDITIONS,,MILD,N,,PROBABLE,RECOVERED/RESOLVED,N,N,N,N,N,N,N,2014-02-10,2014-01-20,2014-02-08,10,29
124,CDISCPILOT01,AE,01-701-1239,1,E11,ERYTHEMA,ERYTHEMA,,ERYTHEMA,,HLT_0284,,HLGT_0192,,SKIN AND SUBCUTANEOUS TISSUE DISORDERS,,SKIN AND SUBCUTANEOUS TISSUE DISORDERS,,MILD,N,,POSSIBLE,NOT RECOVERED/NOT RESOLVED,N,N,N,N,N,N,N,2014-01-25,2014-01-12,,2,
125,CDISCPILOT01,AE,01-701-1239,6,E11,ERYTHEMA,ERYTHEMA,,ERYTHEMA,,HLT_0284,,HLGT_0192,,SKIN AND SUBCUTANEOUS TISSUE DISORDERS,,SKIN AND SUBCUTANEOUS TISSUE DISORDERS,,MODERATE,N,,POSSIBLE,NOT RECOVERED/NOT RESOLVED,N,N,N,N,N,N,N,2014-02-19,2014-01-12,,2,
126,CDISCPILOT01,AE,01-701-1239,9,E16,FATIGUE,FATIGUE,,FATIGUE,,HLT_0043,,HLGT_0181,,GENERAL DISORDERS AND ADMINISTRATION SITE CONDITIONS,,GENERAL DISORDERS AND ADMINISTRATION SITE CONDITIONS,,MILD,N,,REMOTE,NOT RECOVERED/NOT RESOLVED,N,N,N,N,N,N,N,2014-04-02,2014-03,,,
127,CDISCPILOT01,AE,01-701-1239,10,E17,HORDEOLUM,STYE,,HORDEOLUM,,HLT_0604,,HLGT_0290,,INFECTIONS AND INFESTATIONS,,INFECTIONS AND INFESTATIONS,,MILD,N,,NONE,NOT RECOVERED/NOT RESOLVED,N,N,N,N,N,N,N,2014-05-02,2014-04,,,
128,CDISCPILOT01,AE,01-701-1239,3,E12,PRURITUS,ITCHING,,PRURITUS,,HLT_0778,,HLGT_0695,,SKIN AND SUBCUTANEOUS TISSUE DISORDERS,,SKIN AND SUBCUTANEOUS TISSUE DISORDERS,,MILD,N,,POSSIBLE,NOT RECOVERED/NOT RESOLVED,N,N,N,N,N,N,N,2014-01-25,2014-01-13,,3,
129,CDISCPILOT01,AE,01-701-1239,2,E15,SKIN ODOUR ABNORMAL,SKIN ODOR ABNORMAL,,SKIN ODOUR ABNORMAL,,HLT_0510,,HLGT_0184,,SKIN AND SUBCUTANEOUS TISSUE DISORDERS,,SKIN AND SUBCUTANEOUS TISSUE DISORDERS,,MILD,N,,REMOTE,NOT RECOVERED/NOT RESOLVED,N,N,N,N,N,N,N,2014-01-25,2014-01-12,,2,
130,CDISCPILOT01,AE,01-701-1239,7,E14,UPPER RESPIRATORY TRACT INFECTION,UPPER RESPIRATORY INFECTION,,UPPER RESPIRATORY TRACT INFECTION,,HLT_0520,,HLGT_0489,,INFECTIONS AND INFESTATIONS,,INFECTIONS AND INFESTATIONS,,MILD,N,,NONE,NOT RECOVERED/NOT RESOLVED,N,N,N,N,N,N,N,2014-03-06,2014-02-20,2014-03-12,41,61
131,CDISCPILOT01,AE,01-701-1239,8,E14,UPPER RESPIRATORY TRACT INFECTION,UPPER RESPIRATORY INFECTION,,UPPER RESPIRATORY TRACT INFECTION,,HLT_0520,,HLGT_0489,,INFECTIONS AND INFESTATIONS,,INFECTIONS AND INFESTATIONS,,MILD,N,,NONE,RECOVERED/RESOLVED,N,N,N,N,N,N,N,2014-04-02,2014-02-20,2014-03-12,41,61
132,CDISCPILOT01,AE,01-701-1275,7,E09,COUGH,COUGH,,COUGH,,HLT_0701,,HLGT_0280,,"RESPIRATORY, THORACIC AND MEDIASTINAL DISORDERS",,"RESPIRATORY, THORACIC AND MEDIASTINAL DISORDERS",,MILD,N,,NONE,NOT RECOVERED/NOT RESOLVED,N,N,N,N,N,N,N,2014-03-22,2014-03-12,2014-03-27,34,49
133,CDISCPILOT01,AE,01-701-1275,9,E09,COUGH,COUGH,,COUGH,,HLT_0701,,HLGT_0280,,"RESPIRATORY, THORACIC AND MEDIASTINAL DISORDERS",,"RESPIRATORY, THORACIC AND MEDIASTINAL DISORDERS",,MILD,N,,NONE,RECOVERED/RESOLVED,N,N,N,N,N,N,N,2014-04-05,2014-03-12,2014-03-27,34,49
134,CDISCPILOT01,AE,01-701-1275,3,E06,ERYTHEMA,ERYTHEMA,,ERYTHEMA,,HLT_0284,,HLGT_0192,,SKIN AND SUBCUTANEOUS TISSUE DISORDERS,,SKIN AND SUBCUTANEOUS TISSUE DISORDERS,,MILD,N,,POSSIBLE,NOT RECOVERED/NOT RESOLVED,N,N,N,N,N,N,N,2014-03-07,2014-02-24,2014-06-12,18,126
135,CDISCPILOT01,AE,01-701-1275,12,E06,ERYTHEMA,ERYTHEMA,,ERYTHEMA,,HLT_0284,,HLGT_0192,,SKIN AND SUBCUTANEOUS TISSUE DISORDERS,,SKIN AND SUBCUTANEOUS TISSUE DISORDERS,,MILD,N,,POSSIBLE,RECOVERED/RESOLVED,N,N,N,N,N,N,N,2014-06-14,2014-02-24,2014-06-12,18,126
136,CDISCPILOT01,AE,01-701-1275,8,E10,NASAL CONGESTION,NASAL CONGESTION,,NASAL CONGESTION,,HLT_0118,,HLGT_0549,,"RESPIRATORY, THORACIC AND MEDIASTINAL DISORDERS",,"RESPIRATORY, THORACIC AND MEDIASTINAL DISORDERS",,MILD,N,,NONE,NOT RECOVERED/NOT RESOLVED,N,N,N,N,N,N,N,2014-03-22,2014-03-12,2014-03-27,34,49
137,CDISCPILOT01,AE,01-701-1275,10,E10,NASAL CONGESTION,NASAL CONGESTION,,NASAL CONGESTION,,HLT_0118,,HLGT_0549,,"RESPIRATORY, THORACIC AND MEDIASTINAL DISORDERS",,"RESPIRATORY, THORACIC AND MEDIASTINAL DISORDERS",,MILD,N,,NONE,RECOVERED/RESOLVED,N,N,N,N,N,N,N,2014-04-05,2014-03-12,2014-03-27,34,49
138,CDISCPILOT01,AE,01-701-1275,1,E04,NAUSEA,NAUSEA,,NAUSEA,,HLT_0742,,HLGT_0326,,GASTROINTESTINAL DISORDERS,,GASTROINTESTINAL DISORDERS,,MILD,N,,POSSIBLE,NOT RECOVERED/NOT RESOLVED,N,N,N,N,N,N,N,2014-02-22,2014-02-13,2014-06-03,7,117
139,CDISCPILOT01,AE,01-701-1275,11,E04,NAUSEA,NAUSEA,,NAUSEA,,HLT_0742,,HLGT_0326,,GASTROINTESTINAL DISORDERS,,GASTROINTESTINAL DISORDERS,,MILD,N,,POSSIBLE,RECOVERED/RESOLVED,N,N,N,N,N,N,N,2014-06-14,2014-02-13,2014-06-03,7,117
140,CDISCPILOT01,AE,01-701-1275,5,E08,PAROSMIA,STRANGE SMELL SENSATION,,PAROSMIA,,HLT_0258,,HLGT_0471,,NERVOUS SYSTEM DISORDERS,,NERVOUS SYSTEM DISORDERS,,MILD,N,,POSSIBLE,NOT RECOVERED/NOT RESOLVED,N,N,N,N,N,N,N,2014-03-07,2014-02-24,2014-06-03,18,117
141,CDISCPILOT01,AE,01-701-1275,14,E08,PAROSMIA,STRANGE SMELL SENSATION,,PAROSMIA,,HLT_0258,,HLGT_0471,,NERVOUS SYSTEM DISORDERS,,NERVOUS SYSTEM DISORDERS,,MILD,N,,POSSIBLE,RECOVERED/RESOLVED,N,N,N,N,N,N,N,2014-06-14,2014-02-24,2014-06-03,18,117
142,CDISCPILOT01,AE,01-701-1275,6,E11,PRURITUS,ITCHING,,PRURITUS,,HLT_0778,,HLGT_0695,,SKIN AND SUBCUTANEOUS TISSUE DISORDERS,,SKIN AND SUBCUTANEOUS TISSUE DISORDERS,,MILD,N,,POSSIBLE,NOT RECOVERED/NOT RESOLVED,N,N,N,N,N,N,N,2014-03-07,2014-02-24,2014-06-12,18,126
143,CDISCPILOT01,AE,01-701-1275,15,E11,PRURITUS,ITCHING,,PRURITUS,,HLT_0778,,HLGT_0695,,SKIN AND SUBCUTANEOUS TISSUE DISORDERS,,SKIN AND SUBCUTANEOUS TISSUE DISORDERS,,MILD,N,,POSSIBLE,RECOVERED/RESOLVED,N,N,N,N,N,N,N,2014-06-14,2014-02-24,2014-06-12,18,126
144,CDISCPILOT01,AE,01-701-1275,4,E07,SALIVARY HYPERSECRETION,HYPERSALIVATION,,SALIVARY HYPERSECRETION,,HLT_0374,,HLGT_0488,,GASTROINTESTINAL DISORDERS,,GASTROINTESTINAL DISORDERS,,MILD,N,,POSSIBLE,NOT RECOVERED/NOT RESOLVED,N,N,N,N,N,N,N,2014-03-07,2014-02-24,2014-06-03,18,117
145,CDISCPILOT01,AE,01-701-1275,13,E07,SALIVARY HYPERSECRETION,HYPERSALIVATION,,SALIVARY HYPERSECRETION,,HLT_0374,,HLGT_0488,,GASTROINTESTINAL DISORDERS,,GASTROINTESTINAL DISORDERS,,MILD,N,,POSSIBLE,RECOVERED/RESOLVED,N,N,N,N,N,N,N,2014-06-14,2014-02-24,2014-06-03,18,117
146,CDISCPILOT01,AE,01-701-1275,2,E05,VOMITING,VOMITING,,VOMITING,,HLT_0016,,HLGT_0350,,GASTROINTESTINAL DISORDERS,,GASTROINTESTINAL DISORDERS,,MILD,N,,POSSIBLE,RECOVERED/RESOLVED,N,N,N,N,N,N,N,2014-03-07,2014-02-23,2014-02-23,17,17
147,CDISCPILOT01,AE,01-701-1287,3,E04,APPLICATION SITE ERYTHEMA,APPLICATION SITE REDNESS,,APPLICATION SITE ERYTHEMA,,HLT_0617,,HLGT_0152,,GENERAL DISORDERS AND ADMINISTRATION SITE CONDITIONS,,GENERAL DISORDERS AND ADMINISTRATION SITE CONDITIONS,,MILD,N,,PROBABLE,NOT RECOVERED/NOT RESOLVED,N,N,N,N,N,N,N,2014-03-21,2014-03-09,,44,
148,CDISCPILOT01,AE,01-701-1287,2,E03,APPLICATION SITE PRURITUS,APPLICATION SITE ITCHING,,APPLICATION SITE PRURITUS,,HLT_0317,,HLGT_0338,,GENERAL DISORDERS AND ADMINISTRATION SITE CONDITIONS,,GENERAL DISORDERS AND ADMINISTRATION SITE CONDITIONS,,MILD,N,,POSSIBLE,NOT RECOVERED/NOT RESOLVED,N,N,N,N,N,N,N,2014-03-06,2014-02-22,,29,
149,CDISCPILOT01,AE,01-701-1287,4,E05,RHINORRHOEA,RUNNY NOSE,,RHINORRHOEA,,HLT_0635,,HLGT_0460,,"RESPIRATORY, THORACIC AND MEDIASTINAL DISORDERS",,"RESPIRATORY, THORACIC AND MEDIASTINAL DISORDERS",,MILD,N,,NONE,NOT RECOVERED/NOT RESOLVED,N,N,N,N,N,N,N,2014-07-12,2014-07-09,2014-07-12,166,169
150,CDISCPILOT01,AE,01-701-1287,5,E05,RHINORRHOEA,RUNNY NOSE,,RHINORRHOEA,,HLT_0635,,HLGT_0460,,"RESPIRATORY, THORACIC AND MEDIASTINAL DISORDERS",,"RESPIRATORY, THORACIC AND MEDIASTINAL DISORDERS",,MILD,N,,NONE,RECOVERED/RESOLVED,N,N,N,N,N,N,N,2014-07-26,2014-07-09,2014-07-12,166,169
151,CDISCPILOT01,AE,01-701-1287,1,E02,SALIVARY HYPERSECRETION,INCREASED SALIVATION,,SALIVARY HYPERSECRETION,,HLT_0374,,HLGT_0488,,GASTROINTESTINAL DISORDERS,,GASTROINTESTINAL DISORDERS,,MILD,N,,NONE,NOT RECOVERED/NOT RESOLVED,N,N,N,N,N,N,N,2014-02-11,2014-01-26,,2,
152,CDISCPILOT01,AE,01-701-1294,3,E08,APPLICATION SITE ERYTHEMA,APPLICATION SITE REDNESS,,APPLICATION SITE ERYTHEMA,,HLT_0617,,HLGT_0152,,GENERAL DISORDERS AND ADMINISTRATION SITE CONDITIONS,,GENERAL DISORDERS AND ADMINISTRATION SITE CONDITIONS,,MILD,N,,PROBABLE,NOT RECOVERED/NOT RESOLVED,N,N,N,N,N,N,N,2013-05-22,2013-05-19,,57,
153,CDISCPILOT01,AE,01-701-1294,5,E08,APPLICATION SITE ERYTHEMA,APPLICATION SITE REDNESS,,APPLICATION SITE ERYTHEMA,,HLT_0617,,HLGT_0152,,GENERAL DISORDERS AND ADMINISTRATION SITE CONDITIONS,,GENERAL DISORDERS AND ADMINISTRATION SITE CONDITIONS,,MODERATE,N,,PROBABLE,NOT RECOVERED/NOT RESOLVED,N,N,N,N,N,N,N,2013-06-14,2013-05-19,,57,
154,CDISCPILOT01,AE,01-701-1294,1,E06,APPLICATION SITE PRURITUS,APPLICATION SITE ITCHING,,APPLICATION SITE PRURITUS,,HLT_0317,,HLGT_0338,,GENERAL DISORDERS AND ADMINISTRATION SITE CONDITIONS,,GENERAL DISORDERS AND ADMINISTRATION SITE CONDITIONS,,MODERATE,N,,NONE,RECOVERED/RESOLVED,N,N,N,N,N,N,N,2013-03-24,2013-03-22,2013-03-23,-2,-1
155,CDISCPILOT01,AE,01-701-1294,2,E07,APPLICATION SITE PRURITUS,APPLICATION SITE ITCHING,,APPLICATION SITE PRURITUS,,HLT_0317,,HLGT_0338,,GENERAL DISORDERS AND ADMINISTRATION SITE CONDITIONS,,GENERAL DISORDERS AND ADMINISTRATION SITE CONDITIONS,,MILD,N,,POSSIBLE,NOT RECOVERED/NOT RESOLVED,N,N,N,N,N,N,N,2013-05-22,2013-05-19,,57,
156,CDISCPILOT01,AE,01-701-1294,4,E07,APPLICATION SITE PRURITUS,APPLICATION SITE ITCHING,,APPLICATION SITE PRURITUS,,HLT_0317,,HLGT_0338,,GENERAL DISORDERS AND ADMINISTRATION SITE CONDITIONS,,GENERAL DISORDERS AND ADMINISTRATION SITE CONDITIONS,,MODERATE,N,,POSSIBLE,NOT RECOVERED/NOT RESOLVED,N,N,N,N,N,N,N,2013-06-14,2013-05-19,,57,
157,CDISCPILOT01,AE,01-701-1294,6,E09,RASH ERYTHEMATOUS,ERYTHEMATOUS RASH,,RASH ERYTHEMATOUS,,HLT_0336,,HLGT_0701,,SKIN AND SUBCUTANEOUS TISSUE DISORDERS,,SKIN AND SUBCUTANEOUS TISSUE DISORDERS,,MODERATE,N,,PROBABLE,NOT RECOVERED/NOT RESOLVED,N,N,N,N,N,N,N,2013-06-14,2013-06-10,,79,
158,CDISCPILOT01,AE,01-701-1302,16,E27,APPLICATION SITE ERYTHEMA,APPLICATION SITE REDNESS,,APPLICATION SITE ERYTHEMA,,HLT_0617,,HLGT_0152,,GENERAL DISORDERS AND ADMINISTRATION SITE CONDITIONS,,GENERAL DISORDERS AND ADMINISTRATION SITE CONDITIONS,,MILD,N,,PROBABLE,NOT RECOVERED/NOT RESOLVED,N,N,N,N,N,N,N,2013-10-22,2013-10-15,,48,
159,CDISCPILOT01,AE,01-701-1302,1,E21,APPLICATION SITE PERSPIRATION,APPLICATION SITE PERSPIRATION,,APPLICATION SITE PERSPIRATION,,HLT_0283,,HLGT_0403,,GENERAL DISORDERS AND ADMINISTRATION SITE CONDITIONS,,GENERAL DISORDERS AND ADMINISTRATION SITE CONDITIONS,,MILD,N,,POSSIBLE,NOT RECOVERED/NOT RESOLVED,N,N,N,N,N,N,N,2013-09-15,2013-08-30,,2,
160,CDISCPILOT01,AE,01-701-1302,17,E28,APPLICATION SITE PRURITUS,APPLICATION SITE ITCHING,,APPLICATION SITE PRURITUS,,HLT_0317,,HLGT_0338,,GENERAL DISORDERS AND ADMINISTRATION SITE CONDITIONS,,GENERAL DISORDERS AND ADMINISTRATION SITE CONDITIONS,,MILD,N,,PROBABLE,NOT RECOVERED/NOT RESOLVED,N,N,N,N,N,N,N,2013-10-22,2013-10-15,,48,
161,CDISCPILOT01,AE,01-701-1302,12,E19,CONTUSION,BRUISE,,CONTUSION,,HLT_0713,,HLGT_0381,,"INJURY, POISONING AND PROCEDURAL COMPLICATIONS",,"INJURY, POISONING AND PROCEDURAL COMPLICATIONS",,MILD,N,,REMOTE,NOT RECOVERED/NOT RESOLVED,N,N,N,N,N,N,N,2013-09-15,2013-09-05,2013-10-08,8,41
162,CDISCPILOT01,AE,01-701-1302,15,E19,CONTUSION,BRUISE,,CONTUSION,,HLT_0713,,HLGT_0381,,"INJURY, POISONING AND PROCEDURAL COMPLICATIONS",,"INJURY, POISONING AND PROCEDURAL COMPLICATIONS",,MILD,N,,REMOTE,RECOVERED/RESOLVED,N,N,N,N,N,N,N,2013-10-22,2013-09-05,2013-10-08,8,41
163,CDISCPILOT01,AE,01-701-1302,9,E17,DIZZINESS,DIZZY,,DIZZINESS,,HLT_0619,,HLGT_0751,,NERVOUS SYSTEM DISORDERS,,NERVOUS SYSTEM DISORDERS,,MODERATE,N,,REMOTE,RECOVERED/RESOLVED,N,N,N,N,N,N,N,2013-09-15,2013-09-02,2013-09-03,5,6
164,CDISCPILOT01,AE,01-701-1302,11,E20,DIZZINESS,LIGHTHEADEDNESS,,DIZZINESS,,HLT_0619,,HLGT_0751,,NERVOUS SYSTEM DISORDERS,,NERVOUS SYSTEM DISORDERS,,MILD,N,,POSSIBLE,NOT RECOVERED/NOT RESOLVED,N,N,N,N,N,N,N,2013-09-15,2013-09-04,,7,
165,CDISCPILOT01,AE,01-701-1302,14,E25,EPISTAXIS,NOSE BLEED,,EPISTAXIS,,HLT_0386,,HLGT_0577,,"RESPIRATORY, THORACIC AND MEDIASTINAL DISORDERS",,"RESPIRATORY, THORACIC AND MEDIASTINAL DISORDERS",,MILD,N,,REMOTE,NOT RECOVERED/NOT RESOLVED,N,N,N,N,N,N,N,2013-10-08,2013-09-30,,33,
166,CDISCPILOT01,AE,01-701-1302,21,E31,FEELING ABNORMAL,FOGGY FEELING IN HEAD,,FEELING ABNORMAL,,HLT_0524,,HLGT_0749,,GENERAL DISORDERS AND ADMINISTRATION SITE CONDITIONS,,GENERAL DISORDERS AND ADMINISTRATION SITE CONDITIONS,,MILD,N,,POSSIBLE,NOT RECOVERED/NOT RESOLVED,N,N,N,N,N,N,N,2013-11-05,2013-10-24,,57,
167,CDISCPILOT01,AE,01-701-1302,13,E23,HEADACHE,HEADACHE,,HEADACHE,,HLT_0064,,HLGT_0344,,NERVOUS SYSTEM DISORDERS,,NERVOUS SYSTEM DISORDERS,,MILD,N,,NONE,NOT RECOVERED/NOT RESOLVED,N,N,N,N,N,N,N,2013-09-15,2013-09-15,,18,
168,CDISCPILOT01,AE,01-701-1302,2,E24,HYPERHIDROSIS,PERSPIRATION EXCESSIVE,,HYPERHIDROSIS,,HLT_0587,,HLGT_0005,,SKIN AND SUBCUTANEOUS TISSUE DISORDERS,,SKIN AND SUBCUTANEOUS TISSUE DISORDERS,,MILD,N,,POSSIBLE,NOT RECOVERED/NOT RESOLVED,N,N,N,N,N,N,N,2013-09-15,2013-08-30,,2,
169,CDISCPILOT01,AE,01-701-1302,23,E33,LIBIDO DECREASED,LIBIDO DECREASED,,LIBIDO DECREASED,,HLT_0338,,HLGT_0496,,PSYCHIATRIC DISORDERS,,PSYCHIATRIC DISORDERS,,MILD,N,,POSSIBLE,NOT RECOVERED/NOT RESOLVED,N,N,N,N,N,N,N,2013-11-05,2013-10-24,,57,
170,CDISCPILOT01,AE,01-701-1302,22,E32,LISTLESS,LISTLESSNESS,,LISTLESS,,HLT_0657,,HLGT_0124,,PSYCHIATRIC DISORDERS,,PSYCHIATRIC DISORDERS,,MILD,N,,POSSIBLE,NOT RECOVERED/NOT RESOLVED,N,N,N,N,N,N,N,2013-11-05,2013-10-24,,57,
171,CDISCPILOT01,AE,01-701-1302,8,E16,MALAISE,MALAISE,,MALAISE,,HLT_0456,,HLGT_0178,,GENERAL DISORDERS AND ADMINISTRATION SITE CONDITIONS,,GENERAL DISORDERS AND ADMINISTRATION SITE CONDITIONS,,MILD,N,,REMOTE,NOT RECOVERED/NOT RESOLVED,N,N,N,N,N,N,N,2013-09-15,2013-09-02,,5,
172,CDISCPILOT01,AE,01-701-1302,18,E16,MALAISE,MALAISE,,MALAISE,,HLT_0456,,HLGT_0178,,GENERAL DISORDERS AND ADMINISTRATION SITE CONDITIONS,,GENERAL DISORDERS AND ADMINISTRATION SITE CONDITIONS,,MODERATE,N,,REMOTE,NOT RECOVERED/NOT RESOLVED,N,N,N,N,N,N,N,2013-11-05,2013-09-02,,5,
173,CDISCPILOT01,AE,01-701-1302,10,E18,MYALGIA,MYALGIA,,MYALGIA,,HLT_0700,,HLGT_0121,,MUSCULOSKELETAL AND CONNECTIVE TISSUE DISORDERS,,MUSCULOSKELETAL AND CONNECTIVE TISSUE DISORDERS,,MILD,N,,POSSIBLE,NOT RECOVERED/NOT RESOLVED,N,N,N,N,N,N,N,2013-09-15,2013-09-02,,5,
174,CDISCPILOT01,AE,01-701-1302,5,E13,NASAL CONGESTION,NASAL CONGESTION,,NASAL CONGESTION,,HLT_0118,,HLGT_0549,,"RESPIRATORY, THORACIC AND MEDIASTINAL DISORDERS",,"RESPIRATORY, THORACIC AND MEDIASTINAL DISORDERS",,MILD,N,,NONE,NOT RECOVERED/NOT RESOLVED,N,N,N,N,N,N,N,2013-09-15,2013-09-01,,4,
175,CDISCPILOT01,AE,01-701-1302,4,E22,PAIN,STINGING,,PAIN,,HLT_0314,,HLGT_0478,,GENERAL DISORDERS AND ADMINISTRATION SITE CONDITIONS,,GENERAL DISORDERS AND ADMINISTRATION SITE CONDITIONS,,MILD,N,,POSSIBLE,NOT RECOVERED/NOT RESOLVED,N,N,N,N,N,N,N,2013-09-15,2013-08-31,,3,
176,CDISCPILOT01,AE,01-701-1302,6,E14,PHARYNGOLARYNGEAL PAIN,SORE THROAT,,PHARYNGOLARYNGEAL PAIN,,HLT_0130,,HLGT_0402,,"RESPIRATORY, THORACIC AND MEDIASTINAL DISORDERS",,"RESPIRATORY, THORACIC AND MEDIASTINAL DISORDERS",,MILD,N,,NONE,NOT RECOVERED/NOT RESOLVED,N,N,N,N,N,N,N,2013-09-15,2013-09-02,,5,
177,CDISCPILOT01,AE,01-701-1302,7,E15,PRODUCTIVE COUGH,PRODUCTIVE COUGH,,PRODUCTIVE COUGH,,HLT_0545,,HLGT_0681,,"RESPIRATORY, THORACIC AND MEDIASTINAL DISORDERS",,"RESPIRATORY, THORACIC AND MEDIASTINAL DISORDERS",,MILD,N,,NONE,NOT RECOVERED/NOT RESOLVED,N,N,N,N,N,N,N,2013-09-15,2013-09-02,,5,
178,CDISCPILOT01,AE,01-701-1302,19,E29,RESPIRATORY TRACT CONGESTION,RESPIRATORY TRACT CONGESTION,,RESPIRATORY TRACT CONGESTION,,HLT_0330,,HLGT_0424,,"RESPIRATORY, THORACIC AND MEDIASTINAL DISORDERS",,"RESPIRATORY, THORACIC AND MEDIASTINAL DISORDERS",,MILD,N,,NONE,NOT RECOVERED/NOT RESOLVED,N,N,N,N,N,N,N,2013-11-05,2013-10-23,,56,
179,CDISCPILOT01,AE,01-701-1302,20,E30,RHINITIS,CORYZA,,RHINITIS,,HLT_0239,,HLGT_0322,,INFECTIONS AND INFESTATIONS,,INFECTIONS AND INFESTATIONS,,MILD,N,,NONE,NOT RECOVERED/NOT RESOLVED,N,N,N,N,N,N,N,2013-11-05,2013-10-23,,56,
180,CDISCPILOT01,AE,01-701-1302,3,E26,STOMACH DISCOMFORT,STOMACH UPSET,,STOMACH DISCOMFORT,,HLT_0065,,HLGT_0183,,GASTROINTESTINAL DISORDERS,,GASTROINTESTINAL DISORDERS,,MILD,N,,POSSIBLE,NOT RECOVERED/NOT RESOLVED,N,N,N,N,N,N,N,2013-09-15,2013-08-30,,2,
181,CDISCPILOT01,AE,01-701-1317,3,E13,APPLICATION SITE ERYTHEMA,APPLICATION SITE REDNESS,,APPLICATION SITE ERYTHEMA,,HLT_0617,,HLGT_0152,,GENERAL DISORDERS AND ADMINISTRATION SITE CONDITIONS,,GENERAL DISORDERS AND ADMINISTRATION SITE CONDITIONS,,MILD,N,,POSSIBLE,NOT RECOVERED/NOT RESOLVED,N,N,N,N,N,N,N,2014-07-03,2014-06-23,,33,
182,CDISCPILOT01,AE,01-701-1317,4,E14,APPLICATION SITE PRURITUS,APPLICATION SITE ITCHING,,APPLICATION SITE PRURITUS,,HLT_0317,,HLGT_0338,,GENERAL DISORDERS AND ADMINISTRATION SITE CONDITIONS,,GENERAL DISORDERS AND ADMINISTRATION SITE CONDITIONS,,MILD,N,,POSSIBLE,NOT RECOVERED/NOT RESOLVED,N,N,N,N,N,N,N,2014-07-03,2014-06-23,,33,
183,CDISCPILOT01,AE,01-701-1317,5,E15,APPLICATION SITE URTICARIA,APPLICATION SITE URTICARIA,,APPLICATION SITE URTICARIA,,HLT_0196,,HLGT_0233,,GENERAL DISORDERS AND ADMINISTRATION SITE CONDITIONS,,GENERAL DISORDERS AND ADMINISTRATION SITE CONDITIONS,,MILD,N,,POSSIBLE,NOT RECOVERED/NOT RESOLVED,N,N,N,N,N,N,N,2014-07-03,2014-06-23,,33,
184,CDISCPILOT01,AE,01-701-1317,2,E12,CYST,CYST,,CYST,,HLT_0763,,HLGT_0341,,GENERAL DISORDERS AND ADMINISTRATION SITE CONDITIONS,,GENERAL DISORDERS AND ADMINISTRATION SITE CONDITIONS,,MILD,N,,NONE,NOT RECOVERED/NOT RESOLVED,N,N,N,N,N,N,N,2014-05-20,2014-05-13,,-9,
185,CDISCPILOT01,AE,01-701-1317,6,E16,DEPRESSED MOOD,DEPRESSED MOOD,,DEPRESSED MOOD,,HLT_0784,,HLGT_0122,,PSYCHIATRIC DISORDERS,,PSYCHIATRIC DISORDERS,,MILD,N,,POSSIBLE,NOT RECOVERED/NOT RESOLVED,N,N,N,N,N,N,N,2014-07-22,2014-07-04,,44,
186,CDISCPILOT01,AE,01-701-1317,7,E16,DEPRESSED MOOD,DEPRESSED MOOD,,DEPRESSED MOOD,,HLT_0784,,HLGT_0122,,PSYCHIATRIC DISORDERS,,PSYCHIATRIC DISORDERS,,MODERATE,N,,POSSIBLE,NOT RECOVERED/NOT RESOLVED,N,N,N,N,N,N,N,2014-10-09,2014-07-04,,44,
187,CDISCPILOT01,AE,01-701-1317,9,E18,DYSPHONIA,HOARSENESS,,DYSPHONIA,,HLT_0073,,HLGT_0274,,"RESPIRATORY, THORACIC AND MEDIASTINAL DISORDERS",,"RESPIRATORY, THORACIC AND MEDIASTINAL DISORDERS",,MILD,N,,REMOTE,NOT RECOVERED/NOT RESOLVED,N,N,N,N,N,N,N,2014-11-06,2014-11-03,,166,
188,CDISCPILOT01,AE,01-701-1317,8,E17,FATIGUE,TIREDNESS,,FATIGUE,,HLT_0043,,HLGT_0181,,GENERAL DISORDERS AND ADMINISTRATION SITE CONDITIONS,,GENERAL DISORDERS AND ADMINISTRATION SITE CONDITIONS,,MILD,N,,REMOTE,NOT RECOVERED/NOT RESOLVED,N,N,N,N,N,N,N,2014-10-09,2014-09-12,,114,
189,CDISCPILOT01,AE,01-701-1317,1,E11,ONYCHOMYCOSIS,ONYCHOMYCOSIS,,ONYCHOMYCOSIS,,HLT_0275,,HLGT_0243,,INFECTIONS AND INFESTATIONS,,INFECTIONS AND INFESTATIONS,,MILD,N,,NONE,NOT RECOVERED/NOT RESOLVED,N,N,N,N,N,N,N,2014-05-20,2014-05-13,,-9,
190,CDISCPILOT01,AE,01-701-1324,1,E04,APPLICATION SITE ERYTHEMA,APPLICATION SITE ERYTHEMA,,APPLICATION SITE ERYTHEMA,,HLT_0617,,HLGT_0152,,GENERAL DISORDERS AND ADMINISTRATION SITE CONDITIONS,,GENERAL DISORDERS AND ADMINISTRATION SITE CONDITIONS,,MILD,N,,PROBABLE,NOT RECOVERED/NOT RESOLVED,N,N,N,N,N,N,N,2012-10-30,2012-10-22,,21,
191,CDISCPILOT01,AE,01-701-1324,2,E06,APPLICATION SITE PRURITUS,APPLICATION SITE ITCHING,,APPLICATION SITE PRURITUS,,HLT_0317,,HLGT_0338,,GENERAL DISORDERS AND ADMINISTRATION SITE CONDITIONS,,GENERAL DISORDERS AND ADMINISTRATION SITE CONDITIONS,,MILD,N,,PROBABLE,NOT RECOVERED/NOT RESOLVED,N,N,N,N,N,N,N,2012-12-25,2012-12-02,,62,
192,CDISCPILOT01,AE,01-701-1324,3,E05,APPLICATION SITE VESICLES,APPLICATION SITE BLISTER,,APPLICATION SITE VESICLES,,HLT_0180,,HLGT_0576,,GENERAL DISORDERS AND ADMINISTRATION SITE CONDITIONS,,GENERAL DISORDERS AND ADMINISTRATION SITE CONDITIONS,,MILD,N,,PROBABLE,NOT RECOVERED/NOT RESOLVED,N,N,N,N,N,N,N,2012-12-25,2012-12-25,2013-01-16,85,107
193,CDISCPILOT01,AE,01-701-1324,4,E05,APPLICATION SITE VESICLES,APPLICATION SITE BLISTER,,APPLICATION SITE VESICLES,,HLT_0180,,HLGT_0576,,GENERAL DISORDERS AND ADMINISTRATION SITE CONDITIONS,,GENERAL DISORDERS AND ADMINISTRATION SITE CONDITIONS,,MILD,N,,PROBABLE,RECOVERED/RESOLVED,N,N,N,N,N,N,N,2013-01-22,2012-12-25,2013-01-16,85,107
194,CDISCPILOT01,AE,01-701-1341,2,E10,APPLICATION SITE ERYTHEMA,APPLICATION SITE REDNESS,,APPLICATION SITE ERYTHEMA,,HLT_0617,,HLGT_0152,,GENERAL DISORDERS AND ADMINISTRATION SITE CONDITIONS,,GENERAL DISORDERS AND ADMINISTRATION SITE CONDITIONS,,MODERATE,N,,PROBABLE,NOT RECOVERED/NOT RESOLVED,N,N,N,N,N,N,N,2013-02-07,2013-01-19,,15,
195,CDISCPILOT01,AE,01-701-1341,4,E12,APPLICATION SITE ERYTHEMA,APPLICATION SITE REDNESS,,APPLICATION SITE ERYTHEMA,,HLT_0617,,HLGT_0152,,GENERAL DISORDERS AND ADMINISTRATION SITE CONDITIONS,,GENERAL DISORDERS AND ADMINISTRATION SITE CONDITIONS,,MODERATE,N,,PROBABLE,NOT RECOVERED/NOT RESOLVED,N,N,N,N,N,N,N,2013-02-07,2013-01-26,,22,
196,CDISCPILOT01,AE,01-701-1341,5,E13,APPLICATION SITE IRRITATION,APPLICATION SITE BURNING,,APPLICATION SITE IRRITATION,,HLT_0061,,HLGT_0346,,GENERAL DISORDERS AND ADMINISTRATION SITE CONDITIONS,,GENERAL DISORDERS AND ADMINISTRATION SITE CONDITIONS,,MODERATE,N,,PROBABLE,RECOVERED/RESOLVED,N,N,N,N,N,N,N,2013-02-07,2013-01-26,2013-01-30,22,26
197,CDISCPILOT01,AE,01-701-1341,1,E09,APPLICATION SITE PRURITUS,APPLICATION SITE ITCHING,,APPLICATION SITE PRURITUS,,HLT_0317,,HLGT_0338,,GENERAL DISORDERS AND ADMINISTRATION SITE CONDITIONS,,GENERAL DISORDERS AND ADMINISTRATION SITE CONDITIONS,,MODERATE,N,,PROBABLE,NOT RECOVERED/NOT RESOLVED,N,N,N,N,N,N,N,2013-02-07,2013-01-19,,15,
198,CDISCPILOT01,AE,01-701-1341,3,E11,APPLICATION SITE PRURITUS,APPLICATION SITE ITCHING,,APPLICATION SITE PRURITUS,,HLT_0317,,HLGT_0338,,GENERAL DISORDERS AND ADMINISTRATION SITE CONDITIONS,,GENERAL DISORDERS AND ADMINISTRATION SITE CONDITIONS,,MODERATE,N,,PROBABLE,RECOVERED/RESOLVED,N,N,N,N,N,N,N,2013-02-07,2013-01-26,2013-01-30,22,26
199,CDISCPILOT01,AE,01-701-1360,1,E08,APPLICATION SITE ERYTHEMA,APPLICATION SITE ERYTHEMA,,APPLICATION SITE ERYTHEMA,,HLT_0617,,HLGT_0152,,GENERAL DISORDERS AND ADMINISTRATION SITE CONDITIONS,,GENERAL DISORDERS AND ADMINISTRATION SITE CONDITIONS,,MODERATE,N,,PROBABLE,NOT RECOVERED/NOT RESOLVED,N,N,N,N,N,N,N,2013-08-14,2013-08-02,,3,
200,CDISCPILOT01,AE,01-701-1360,2,E09,APPLICATION SITE PRURITUS,APPLICATION SITE ITCHING,,APPLICATION SITE PRURITUS,,HLT_0317,,HLGT_0338,,GENERAL DISORDERS AND ADMINISTRATION SITE CONDITIONS,,GENERAL DISORDERS AND ADMINISTRATION SITE CONDITIONS,,MODERATE,N,,PROBABLE,NOT RECOVERED/NOT RESOLVED,N,N,N,N,N,N,N,2013-08-14,2013-08-02,,3,
201,CDISCPILOT01,AE,01-701-1360,3,E10,APPLICATION SITE VESICLES,APPLICATION SITE BLISTER,,APPLICATION SITE VESICLES,,HLT_0180,,HLGT_0576,,GENERAL DISORDERS AND ADMINISTRATION SITE CONDITIONS,,GENERAL DISORDERS AND ADMINISTRATION SITE CONDITIONS,,MODERATE,N,,PROBABLE,NOT RECOVERED/NOT RESOLVED,N,N,N,N,N,N,N,2013-08-14,2013-08-05,,6,
202,CDISCPILOT01,AE,01-701-1363,3,E11,APPLICATION SITE PRURITUS,APPLICATION SITE ITCHING,,APPLICATION SITE PRURITUS,,HLT_0317,,HLGT_0338,,GENERAL DISORDERS AND ADMINISTRATION SITE CONDITIONS,,GENERAL DISORDERS AND ADMINISTRATION SITE CONDITIONS,,MILD,N,,PROBABLE,NOT RECOVERED/NOT RESOLVED,N,N,N,N,N,N,N,2013-07-24,2013-07-16,,48,
203,CDISCPILOT01,AE,01-701-1363,5,E13,BACK PAIN,BACKACHE,,BACK PAIN,,HLT_0115,,HLGT_0508,,MUSCULOSKELETAL AND CONNECTIVE TISSUE DISORDERS,,MUSCULOSKELETAL AND CONNECTIVE TISSUE DISORDERS,,MILD,N,,NONE,NOT RECOVERED/NOT RESOLVED,N,N,N,N,N,N,N,2013-10-14,2013-10-13,2013-10-15,137,139
204,CDISCPILOT01,AE,01-701-1363,6,E13,BACK PAIN,BACKACHE,,BACK PAIN,,HLT_0115,,HLGT_0508,,MUSCULOSKELETAL AND CONNECTIVE TISSUE DISORDERS,,MUSCULOSKELETAL AND CONNECTIVE TISSUE DISORDERS,,MILD,N,,NONE,RECOVERED/RESOLVED,N,N,N,N,N,N,N,2013-11-13,2013-10-13,2013-10-15,137,139
205,CDISCPILOT01,AE,01-701-1363,2,E03,HEADACHE,HEADACHE,,HEADACHE,,HLT_0064,,HLGT_0344,,NERVOUS SYSTEM DISORDERS,,NERVOUS SYSTEM DISORDERS,,MODERATE,N,,POSSIBLE,NOT RECOVERED/NOT RESOLVED,N,N,N,N,N,N,N,2013-07-24,1986,,,
206,CDISCPILOT01,AE,01-701-1363,4,E03,HEADACHE,HEADACHE,,HEADACHE,,HLT_0064,,HLGT_0344,,NERVOUS SYSTEM DISORDERS,,NERVOUS SYSTEM DISORDERS,,MILD,N,,POSSIBLE,NOT RECOVERED/NOT RESOLVED,N,N,N,N,N,N,N,2013-10-14,1986,,,
207,CDISCPILOT01,AE,01-701-1363,1,E09,NAUSEA,NAUSEA,,NAUSEA,,HLT_0742,,HLGT_0326,,GASTROINTESTINAL DISORDERS,,GASTROINTESTINAL DISORDERS,,MILD,N,,REMOTE,RECOVERED/RESOLVED,N,N,N,N,N,N,N,2013-06-25,2013-06-14,2013-06-15,16,17
208,CDISCPILOT01,AE,01-701-1383,3,E06,APPLICATION SITE ERYTHEMA,APPLICATION SITE ERYTHEMA,,APPLICATION SITE ERYTHEMA,,HLT_0617,,HLGT_0152,,GENERAL DISORDERS AND ADMINISTRATION SITE CONDITIONS,,GENERAL DISORDERS AND ADMINISTRATION SITE CONDITIONS,,MILD,N,,POSSIBLE,RECOVERED/RESOLVED,N,N,N,N,N,N,N,2013-04-02,2013-03-23,2013-03-26,48,51
209,CDISCPILOT01,AE,01-701-1383,5,E08,APPLICATION SITE ERYTHEMA,APPLICATION SITE ERYTHEMA,,APPLICATION SITE ERYTHEMA,,HLT_0617,,HLGT_0152,,GENERAL DISORDERS AND ADMINISTRATION SITE CONDITIONS,,GENERAL DISORDERS AND ADMINISTRATION SITE CONDITIONS,,MILD,N,,POSSIBLE,NOT RECOVERED/NOT RESOLVED,N,N,N,N,N,N,N,2013-04-30,2013-04-12,,68,
210,CDISCPILOT01,AE,01-701-1383,6,E09,APPLICATION SITE IRRITATION,APPLICATION SITE BURNING,,APPLICATION SITE IRRITATION,,HLT_0061,,HLGT_0346,,GENERAL DISORDERS AND ADMINISTRATION SITE CONDITIONS,,GENERAL DISORDERS AND ADMINISTRATION SITE CONDITIONS,,MILD,N,,POSSIBLE,NOT RECOVERED/NOT RESOLVED,N,N,N,N,N,N,N,2013-04-30,2013-04-12,,68,
211,CDISCPILOT01,AE,01-701-1383,8,E09,APPLICATION SITE IRRITATION,APPLICATION SITE BURNING,,APPLICATION SITE IRRITATION,,HLT_0061,,HLGT_0346,,GENERAL DISORDERS AND ADMINISTRATION SITE CONDITIONS,,GENERAL DISORDERS AND ADMINISTRATION SITE CONDITIONS,,MODERATE,N,,POSSIBLE,NOT RECOVERED/NOT RESOLVED,N,N,N,N,N,N,N,2013-05-30,2013-04-12,,68,
212,CDISCPILOT01,AE,01-701-1383,2,E05,APPLICATION SITE PAIN,APPLICATION SITE PAIN,,APPLICATION SITE PAIN,,HLT_0342,,HLGT_0085,,GENERAL DISORDERS AND ADMINISTRATION SITE CONDITIONS,,GENERAL DISORDERS AND ADMINISTRATION SITE CONDITIONS,,MILD,N,,PROBABLE,RECOVERED/RESOLVED,N,N,N,N,N,N,N,2013-02-19,2013-02-07,2013-02-07,4,4
213,CDISCPILOT01,AE,01-701-1383,1,E04,APPLICATION SITE PRURITUS,APPLICATION SITE ITCHING,,APPLICATION SITE PRURITUS,,HLT_0317,,HLGT_0338,,GENERAL DISORDERS AND ADMINISTRATION SITE CONDITIONS,,GENERAL DISORDERS AND ADMINISTRATION SITE CONDITIONS,,MILD,N,,PROBABLE,RECOVERED/RESOLVED,N,N,N,N,N,N,N,2013-02-19,2013-02-07,2013-02-07,4,4
214,CDISCPILOT01,AE,01-701-1383,4,E07,APPLICATION SITE PRURITUS,APPLICATION SITE ITCHING,,APPLICATION SITE PRURITUS,,HLT_0317,,HLGT_0338,,GENERAL DISORDERS AND ADMINISTRATION SITE CONDITIONS,,GENERAL DISORDERS AND ADMINISTRATION SITE CONDITIONS,,MILD,N,,POSSIBLE,NOT RECOVERED/NOT RESOLVED,N,N,N,N,N,N,N,2013-04-02,2013-03-23,,48,
215,CDISCPILOT01,AE,01-701-1383,7,E07,APPLICATION SITE PRURITUS,APPLICATION SITE ITCHING,,APPLICATION SITE PRURITUS,,HLT_0317,,HLGT_0338,,GENERAL DISORDERS AND ADMINISTRATION SITE CONDITIONS,,GENERAL DISORDERS AND ADMINISTRATION SITE CONDITIONS,,MODERATE,N,,POSSIBLE,NOT RECOVERED/NOT RESOLVED,N,N,N,N,N,N,N,2013-05-30,2013-03-23,,48,
216,CDISCPILOT01,AE,01-701-1383,9,E10,APPLICATION SITE VESICLES,APPLICATION SITE BLISTER,,APPLICATION SITE VESICLES,,HLT_0180,,HLGT_0576,,GENERAL DISORDERS AND ADMINISTRATION SITE CONDITIONS,,GENERAL DISORDERS AND ADMINISTRATION SITE CONDITIONS,,MILD,N,,POSSIBLE,RECOVERED/RESOLVED,N,N,N,N,N,N,N,2013-05-30,2013-05-07,2013-05-24,93,110
217,CDISCPILOT01,AE,01-701-1383,10,E11,CHEST DISCOMFORT,CHEST PRESSURE,,CHEST DISCOMFORT,,HLT_0593,,HLGT_0441,,GENERAL DISORDERS AND ADMINISTRATION SITE CONDITIONS,,GENERAL DISORDERS AND ADMINISTRATION SITE CONDITIONS,,MILD,N,,NONE,RECOVERED/RESOLVED,N,N,N,N,N,N,N,2013-06-25,2013-06-24,2013-06-24,141,141
218,CDISCPILOT01,AE,01-701-1383,12,E13,COUGH,COUGH,,COUGH,,HLT_0701,,HLGT_0280,,"RESPIRATORY, THORACIC AND MEDIASTINAL DISORDERS",,"RESPIRATORY, THORACIC AND MEDIASTINAL DISORDERS",,MODERATE,N,,NONE,RECOVERED/RESOLVED,N,N,N,N,N,N,N,2013-07-30,2013-07-17,2013-07-26,164,173
219,CDISCPILOT01,AE,01-701-1383,11,E12,HEADACHE,FULLNESS HEAD,,HEADACHE,,HLT_0064,,HLGT_0344,,NERVOUS SYSTEM DISORDERS,,NERVOUS SYSTEM DISORDERS,,MILD,N,,NONE,RECOVERED/RESOLVED,N,N,N,N,N,N,N,2013-06-25,2013-06-24,2013-06-24,141,141
220,CDISCPILOT01,AE,01-701-1387,1,E08,DIARRHOEA,DIARRHEA,,DIARRHOEA,,HLT_0148,,HLGT_0588,,GASTROINTESTINAL DISORDERS,,GASTROINTESTINAL DISORDERS,,MILD,N,,REMOTE,RECOVERED/RESOLVED,N,N,N,N,N,N,N,2014-03-25,2014-03-18,2014-03-18,7,7
221,CDISCPILOT01,AE,01-701-1387,2,E09,HYPERHIDROSIS,SWEATING,,HYPERHIDROSIS,,HLT_0587,,HLGT_0005,,SKIN AND SUBCUTANEOUS TISSUE DISORDERS,,SKIN AND SUBCUTANEOUS TISSUE DISORDERS,,MILD,N,,REMOTE,RECOVERED/RESOLVED,N,N,N,N,N,N,N,2014-03-25,2014-03-18,2014-03-18,7,7
222,CDISCPILOT01,AE,01-701-1392,1,E04,UPPER RESPIRATORY TRACT INFECTION,UPPER RESPIRATORY INFECTION,,UPPER RESPIRATORY TRACT INFECTION,,HLT_0520,,HLGT_0489,,INFECTIONS AND INFESTATIONS,,INFECTIONS AND INFESTATIONS,,MILD,N,,REMOTE,NOT RECOVERED/NOT RESOLVED,N,N,N,N,N,N,N,2013-03-17,2013-03-16,2013-03-21,140,145
223,CDISCPILOT01,AE,01-701-1392,2,E04,UPPER RESPIRATORY TRACT INFECTION,UPPER RESPIRATORY INFECTION,,UPPER RESPIRATORY TRACT INFECTION,,HLT_0520,,HLGT_0489,,INFECTIONS AND INFESTATIONS,,INFECTIONS AND INFESTATIONS,,MILD,N,,REMOTE,RECOVERED/RESOLVED,N,N,N,N,N,N,N,2013-04-15,2013-03-16,2013-03-21,140,145
224,CDISCPILOT01,AE,01-701-1415,6,E12,DIARRHOEA,DIARRHEA,,DIARRHOEA,,HLT_0148,,HLGT_0588,,GASTROINTESTINAL DISORDERS,,GASTROINTESTINAL DISORDERS,,MILD,N,,NONE,RECOVERED/RESOLVED,N,N,N,N,N,N,N,2014-03-10,2014-03-09,2014-03-09,168,168
225,CDISCPILOT01,AE,01-701-1415,3,E10,MICTURITION URGENCY,URINARY URGENCY,,MICTURITION URGENCY,,HLT_0294,,HLGT_0483,,RENAL AND URINARY DISORDERS,,RENAL AND URINARY DISORDERS,,MILD,N,,NONE,NOT RECOVERED/NOT RESOLVED,N,N,N,N,N,N,N,2013-12-21,2013-12-02,,71,
226,CDISCPILOT01,AE,01-701-1415,1,E09,UPPER RESPIRATORY TRACT INFECTION,UPPER RESPIRATORY INFECTION,,UPPER RESPIRATORY TRACT INFECTION,,HLT_0520,,HLGT_0489,,INFECTIONS AND INFESTATIONS,,INFECTIONS AND INFESTATIONS,,MILD,N,,NONE,NOT RECOVERED/NOT RESOLVED,N,N,N,N,N,N,N,2013-10-22,2013-10-21,2013-11-04,29,43
227,CDISCPILOT01,AE,01-701-1415,2,E09,UPPER RESPIRATORY TRACT INFECTION,UPPER RESPIRATORY INFECTION,,UPPER RESPIRATORY TRACT INFECTION,,HLT_0520,,HLGT_0489,,INFECTIONS AND INFESTATIONS,,INFECTIONS AND INFESTATIONS,,MILD,N,,NONE,RECOVERED/RESOLVED,N,N,N,N,N,N,N,2013-11-21,2013-10-21,2013-11-04,29,43
228,CDISCPILOT01,AE,01-701-1415,4,E11,UPPER RESPIRATORY TRACT INFECTION,UPPER RESPIRATORY INFECTION,,UPPER RESPIRATORY TRACT INFECTION,,HLT_0520,,HLGT_0489,,INFECTIONS AND INFESTATIONS,,INFECTIONS AND INFESTATIONS,,MILD,N,,REMOTE,NOT RECOVERED/NOT RESOLVED,N,N,N,N,N,N,N,2014-02-10,2014-01-21,2014-02-10,121,141
229,CDISCPILOT01,AE,01-701-1415,5,E11,UPPER RESPIRATORY TRACT INFECTION,UPPER RESPIRATORY INFECTION,,UPPER RESPIRATORY TRACT INFECTION,,HLT_0520,,HLGT_0489,,INFECTIONS AND INFESTATIONS,,INFECTIONS AND INFESTATIONS,,MILD,N,,REMOTE,RECOVERED/RESOLVED,N,N,N,N,N,N,N,2014-03-10,2014-01-21,2014-02-10,121,141
230,CDISCPILOT01,AE,01-701-1442,1,E03,APPLICATION SITE PRURITUS,APPLICATION SITE ITCHING,,APPLICATION SITE PRURITUS,,HLT_0317,,HLGT_0338,,GENERAL DISORDERS AND ADMINISTRATION SITE CONDITIONS,,GENERAL DISORDERS AND ADMINISTRATION SITE CONDITIONS,,MILD,N,,PROBABLE,NOT RECOVERED/NOT RESOLVED,N,N,N,N,N,N,N,2014-01-18,2014-01-10,,77,
231,CDISCPILOT01,AE,01-701-1444,1,E11,APPLICATION SITE ERYTHEMA,APPLICATION SITE ERYTHEMA,,APPLICATION SITE ERYTHEMA,,HLT_0617,,HLGT_0152,,GENERAL DISORDERS AND ADMINISTRATION SITE CONDITIONS,,GENERAL DISORDERS AND ADMINISTRATION SITE CONDITIONS,,MILD,N,,POSSIBLE,NOT RECOVERED/NOT RESOLVED,N,N,N,N,N,N,N,2013-01-31,2013-01-19,,15,
232,CDISCPILOT01,AE,01-701-1444,4,E11,APPLICATION SITE ERYTHEMA,APPLICATION SITE ERYTHEMA,,APPLICATION SITE ERYTHEMA,,HLT_0617,,HLGT_0152,,GENERAL DISORDERS AND ADMINISTRATION SITE CONDITIONS,,GENERAL DISORDERS AND ADMINISTRATION SITE CONDITIONS,,MODERATE,N,,POSSIBLE,NOT RECOVERED/NOT RESOLVED,N,N,N,N,N,N,N,2013-02-13,2013-01-19,,15,
233,CDISCPILOT01,AE,01-701-1444,6,E15,APPLICATION SITE IRRITATION,APPLICATION SITE BURNING,,APPLICATION SITE IRRITATION,,HLT_0061,,HLGT_0346,,GENERAL DISORDERS AND ADMINISTRATION SITE CONDITIONS,,GENERAL DISORDERS AND ADMINISTRATION SITE CONDITIONS,,MODERATE,N,,PROBABLE,NOT RECOVERED/NOT RESOLVED,N,N,N,N,N,N,N,2013-02-13,2013-02-04,,31,
234,CDISCPILOT01,AE,01-701-1444,2,E12,APPLICATION SITE PRURITUS,APPLICATION SITE ITCHING,,APPLICATION SITE PRURITUS,,HLT_0317,,HLGT_0338,,GENERAL DISORDERS AND ADMINISTRATION SITE CONDITIONS,,GENERAL DISORDERS AND ADMINISTRATION SITE CONDITIONS,,MILD,N,,PROBABLE,NOT RECOVERED/NOT RESOLVED,N,N,N,N,N,N,N,2013-01-31,2013-01-19,,15,
235,CDISCPILOT01,AE,01-701-1444,5,E12,APPLICATION SITE PRURITUS,APPLICATION SITE ITCHING,,APPLICATION SITE PRURITUS,,HLT_0317,,HLGT_0338,,GENERAL DISORDERS AND ADMINISTRATION SITE CONDITIONS,,GENERAL DISORDERS AND ADMINISTRATION SITE CONDITIONS,,MODERATE,N,,PROBABLE,NOT RECOVERED/NOT RESOLVED,N,N,N,N,N,N,N,2013-02-13,2013-01-19,,15,
236,CDISCPILOT01,AE,01-701-1444,7,E16,APPLICATION SITE VESICLES,APPLICATION SITE BLISTER,,APPLICATION SITE VESICLES,,HLT_0180,,HLGT_0576,,GENERAL DISORDERS AND ADMINISTRATION SITE CONDITIONS,,GENERAL DISORDERS AND ADMINISTRATION SITE CONDITIONS,,MODERATE,N,,PROBABLE,NOT RECOVERED/NOT RESOLVED,N,N,N,N,N,N,N,2013-02-13,2013-02-04,,31,
237,CDISCPILOT01,AE,01-701-1444,8,E14,PARAESTHESIA,TINGLING,,PARAESTHESIA,,HLT_0481,,HLGT_0534,,NERVOUS SYSTEM DISORDERS,,NERVOUS SYSTEM DISORDERS,,MILD,N,,NONE,RECOVERED/RESOLVED,N,N,N,N,N,N,N,2013-02-13,2013-02-08,2013-02-08,35,35
238,CDISCPILOT01,AE,01-701-1444,3,E13,SALIVARY HYPERSECRETION,HYPERSALIVATION,,SALIVARY HYPERSECRETION,,HLT_0374,,HLGT_0488,,GASTROINTESTINAL DISORDERS,,GASTROINTESTINAL DISORDERS,,MILD,N,,POSSIBLE,NOT RECOVERED/NOT RESOLVED,N,N,N,N,N,N,N,2013-01-31,2013-01-19,,15,
239,CDISCPILOT01,AE,01-702-1082,9,E07,APPLICATION SITE IRRITATION,APPLICATION SITE IRRITATION,,APPLICATION SITE IRRITATION,,HLT_0061,,HLGT_0346,,GENERAL DISORDERS AND ADMINISTRATION SITE CONDITIONS,,GENERAL DISORDERS AND ADMINISTRATION SITE CONDITIONS,,MILD,N,,PROBABLE,RECOVERED/RESOLVED,N,N,N,N,N,N,N,2013-09-28,2013-09-09,2013-09-24,46,61
240,CDISCPILOT01,AE,01-702-1082,2,E03,NEUTROPHIL COUNT INCREASED,NEUTROPHIL COUNT INCREASED,,NEUTROPHIL COUNT INCREASED,,HLT_0326,,HLGT_0625,,INVESTIGATIONS,,INVESTIGATIONS,,MILD,N,,NONE,NOT RECOVERED/NOT RESOLVED,N,N,N,N,N,N,N,2013-07-24,2013-07-07,2013-07-26,-19,1
241,CDISCPILOT01,AE,01-702-1082,6,E03,NEUTROPHIL COUNT INCREASED,NEUTROPHIL COUNT INCREASED,,NEUTROPHIL COUNT INCREASED,,HLT_0326,,HLGT_0625,,INVESTIGATIONS,,INVESTIGATIONS,,MILD,N,,NONE,RECOVERED/RESOLVED,N,N,N,N,N,N,N,2013-08-08,2013-07-07,2013-07-26,-19,1
242,CDISCPILOT01,AE,01-702-1082,7,E06,RECTAL HAEMORRHAGE,RECTAL BLEEDING,,RECTAL HAEMORRHAGE,,HLT_0353,,HLGT_0755,,GASTROINTESTINAL DISORDERS,,GASTROINTESTINAL DISORDERS,,MILD,N,,NONE,NOT RECOVERED/NOT RESOLVED,N,N,N,N,N,N,N,2013-09-06,2013-09-02,2013-09-06,39,43
243,CDISCPILOT01,AE,01-702-1082,8,E06,RECTAL HAEMORRHAGE,RECTAL BLEEDING,,RECTAL HAEMORRHAGE,,HLT_0353,,HLGT_0755,,GASTROINTESTINAL DISORDERS,,GASTROINTESTINAL DISORDERS,,MILD,N,,NONE,RECOVERED/RESOLVED,N,N,N,N,N,N,N,2013-09-28,2013-09-02,2013-09-06,39,43
244,CDISCPILOT01,AE,01-702-1082,10,E08,SKIN IRRITATION,SKIN IRRITATION,,SKIN IRRITATION,,HLT_0583,,HLGT_0384,,SKIN AND SUBCUTANEOUS TISSUE DISORDERS,,SKIN AND SUBCUTANEOUS TISSUE DISORDERS,,MODERATE,N,,PROBABLE,RECOVERED/RESOLVED,N,N,N,N,N,N,N,2013-11-17,2013-10-12,2013-10-31,79,98
245,CDISCPILOT01,AE,01-702-1082,3,E04,URINE ANALYSIS ABNORMAL,URINE ANALYSIS ABNORMAL,,URINE ANALYSIS ABNORMAL,,HLT_0783,,HLGT_0295,,INVESTIGATIONS,,INVESTIGATIONS,,MILD,N,,NONE,NOT RECOVERED/NOT RESOLVED,N,N,N,N,N,N,N,2013-07-24,2013-07-07,2013-07-24,-19,-2
246,CDISCPILOT01,AE,01-702-1082,4,E04,URINE ANALYSIS ABNORMAL,URINE ANALYSIS ABNORMAL,,URINE ANALYSIS ABNORMAL,,HLT_0783,,HLGT_0295,,INVESTIGATIONS,,INVESTIGATIONS,,MILD,N,,NONE,RECOVERED/RESOLVED,N,N,N,N,N,N,N,2013-07-26,2013-07-07,2013-07-24,-19,-2
247,CDISCPILOT01,AE,01-702-1082,1,E02,WHITE BLOOD CELL COUNT INCREASED,WBC INCREASED,,WHITE BLOOD CELL COUNT INCREASED,,HLT_0417,,HLGT_0465,,INVESTIGATIONS,,INVESTIGATIONS,,MILD,N,,NONE,NOT RECOVERED/NOT RESOLVED,N,N,N,N,N,N,N,2013-07-24,2013-07-07,2013-07-26,-19,1
248,CDISCPILOT01,AE,01-702-1082,5,E02,WHITE BLOOD CELL COUNT INCREASED,WBC INCREASED,,WHITE BLOOD CELL COUNT INCREASED,,HLT_0417,,HLGT_0465,,INVESTIGATIONS,,INVESTIGATIONS,,MILD,N,,NONE,RECOVERED/RESOLVED,N,N,N,N,N,N,N,2013-08-08,2013-07-07,2013-07-26,-19,1
249,CDISCPILOT01,AE,01-703-1042,1,E04,DIARRHOEA,DIARRHEA,,DIARRHOEA,,HLT_0148,,HLGT_0588,,GASTROINTESTINAL DISORDERS,,GASTROINTESTINAL DISORDERS,,MILD,N,,POSSIBLE,RECOVERED/RESOLVED,N,N,N,N,N,N,N,2013-03-14,2013-03-04,2013-03-05,3,4
250,CDISCPILOT01,AE,01-703-1042,2,E05,INSOMNIA,INSOMNIA,,INSOMNIA,,HLT_0297,,HLGT_0469,,PSYCHIATRIC DISORDERS,,PSYCHIATRIC DISORDERS,,MILD,N,,REMOTE,RECOVERED/RESOLVED,N,N,N,N,N,N,N,2013-03-14,2013-03-05,2013-03-06,4,5
251,CDISCPILOT01,AE,01-703-1076,5,E09,APPLICATION SITE DERMATITIS,APPLICATION SITE RASH,,APPLICATION SITE DERMATITIS,,HLT_0343,,HLGT_0241,,GENERAL DISORDERS AND ADMINISTRATION SITE CONDITIONS,,GENERAL DISORDERS AND ADMINISTRATION SITE CONDITIONS,,MILD,N,,PROBABLE,NOT RECOVERED/NOT RESOLVED,N,N,N,N,N,N,N,2013-12-04,2013-11-23,,30,
252,CDISCPILOT01,AE,01-703-1076,4,E08,APPLICATION SITE PRURITUS,APPLICATION SITE ITCHING,,APPLICATION SITE PRURITUS,,HLT_0317,,HLGT_0338,,GENERAL DISORDERS AND ADMINISTRATION SITE CONDITIONS,,GENERAL DISORDERS AND ADMINISTRATION SITE CONDITIONS,,MILD,N,,PROBABLE,NOT RECOVERED/NOT RESOLVED,N,N,N,N,N,N,N,2013-12-04,2013-11-23,,30,
253,CDISCPILOT01,AE,01-703-1076,7,E08,APPLICATION SITE PRURITUS,APPLICATION SITE ITCHING,,APPLICATION SITE PRURITUS,,HLT_0317,,HLGT_0338,,GENERAL DISORDERS AND ADMINISTRATION SITE CONDITIONS,,GENERAL DISORDERS AND ADMINISTRATION SITE CONDITIONS,,MODERATE,N,,PROBABLE,NOT RECOVERED/NOT RESOLVED,N,N,N,N,N,N,N,2013-12-17,2013-11-23,,30,
254,CDISCPILOT01,AE,01-703-1076,2,E01,BENIGN PROSTATIC HYPERPLASIA,BENIGN PROSTATIC HYPERTROPHY,,BENIGN PROSTATIC HYPERPLASIA,,HLT_0215,,HLGT_0568,,REPRODUCTIVE SYSTEM AND BREAST DISORDERS,,REPRODUCTIVE SYSTEM AND BREAST DISORDERS,,MODERATE,N,,NONE,NOT RECOVERED/NOT RESOLVED,N,N,N,N,N,N,N,2013-11-20,2013-11-20,,27,
255,CDISCPILOT01,AE,01-703-1076,1,E02,BIOPSY PROSTATE,BIOPSY OF PROSTATE,,BIOPSY PROSTATE,,HLT_0553,,HLGT_0725,,INVESTIGATIONS,,INVESTIGATIONS,,MODERATE,N,,NONE,RECOVERED/RESOLVED,N,N,N,N,N,N,N,2013-11-20,2013-11-16,2013-11-16,23,23
256,CDISCPILOT01,AE,01-703-1076,3,E05,HYPERCHOLESTEROLAEMIA,HYPERCHOLESTEROLEMIA,,HYPERCHOLESTEROLAEMIA,,HLT_0025,,HLGT_0703,,METABOLISM AND NUTRITION DISORDERS,,METABOLISM AND NUTRITION DISORDERS,,MODERATE,N,,NONE,NOT RECOVERED/NOT RESOLVED,N,N,N,N,N,N,N,2013-12-04,2007,,,
257,CDISCPILOT01,AE,01-703-1076,6,E07,HYPERHIDROSIS,SWEATING,,HYPERHIDROSIS,,HLT_0587,,HLGT_0005,,SKIN AND SUBCUTANEOUS TISSUE DISORDERS,,SKIN AND SUBCUTANEOUS TISSUE DISORDERS,,MILD,N,,POSSIBLE,NOT RECOVERED/NOT RESOLVED,N,N,N,N,N,N,N,2013-12-04,2013-11-25,,32,
258,CDISCPILOT01,AE,01-703-1086,1,E01,APPLICATION SITE IRRITATION,APPLICATION SITE IRRITATION,,APPLICATION SITE IRRITATION,,HLT_0061,,HLGT_0346,,GENERAL DISORDERS AND ADMINISTRATION SITE CONDITIONS,,GENERAL DISORDERS AND ADMINISTRATION SITE CONDITIONS,,MILD,N,,PROBABLE,NOT RECOVERED/NOT RESOLVED,N,N,N,N,N,N,N,2012-09-16,2012-09-13,2013-01-02,12,123
259,CDISCPILOT01,AE,01-703-1086,2,E01,APPLICATION SITE IRRITATION,APPLICATION SITE IRRITATION,,APPLICATION SITE IRRITATION,,HLT_0061,,HLGT_0346,,GENERAL DISORDERS AND ADMINISTRATION SITE CONDITIONS,,GENERAL DISORDERS AND ADMINISTRATION SITE CONDITIONS,,MODERATE,N,,PROBABLE,NOT RECOVERED/NOT RESOLVED,N,N,N,N,N,N,N,2012-09-30,2012-09-13,2013-01-02,12,123
260,CDISCPILOT01,AE,01-703-1086,3,E01,APPLICATION SITE IRRITATION,APPLICATION SITE IRRITATION,,APPLICATION SITE IRRITATION,,HLT_0061,,HLGT_0346,,GENERAL DISORDERS AND ADMINISTRATION SITE CONDITIONS,,GENERAL DISORDERS AND ADMINISTRATION SITE CONDITIONS,,SEVERE,N,,PROBABLE,NOT RECOVERED/NOT RESOLVED,N,N,N,N,N,N,N,2012-10-13,2012-09-13,2013-01-02,12,123
261,CDISCPILOT01,AE,01-703-1086,6,E01,APPLICATION SITE IRRITATION,APPLICATION SITE IRRITATION,,APPLICATION SITE IRRITATION,,HLT_0061,,HLGT_0346,,GENERAL DISORDERS AND ADMINISTRATION SITE CONDITIONS,,GENERAL DISORDERS AND ADMINISTRATION SITE CONDITIONS,,MILD,N,,PROBABLE,RECOVERED/RESOLVED,N,N,N,N,N,N,N,2013-03-26,2012-09-13,2013-01-02,12,123
262,CDISCPILOT01,AE,01-703-1086,4,E02,CHILLS,CHILLS,,CHILLS,,HLT_0586,,HLGT_0161,,GENERAL DISORDERS AND ADMINISTRATION SITE CONDITIONS,,GENERAL DISORDERS AND ADMINISTRATION SITE CONDITIONS,,MILD,N,,POSSIBLE,NOT RECOVERED/NOT RESOLVED,N,N,N,N,N,N,N,2012-10-13,2012-10-09,2012-10-15,38,44
263,CDISCPILOT01,AE,01-703-1086,5,E02,CHILLS,CHILLS,,CHILLS,,HLT_0586,,HLGT_0161,,GENERAL DISORDERS AND ADMINISTRATION SITE CONDITIONS,,GENERAL DISORDERS AND ADMINISTRATION SITE CONDITIONS,,MILD,N,,POSSIBLE,RECOVERED/RESOLVED,N,N,N,N,N,N,N,2012-10-27,2012-10-09,2012-10-15,38,44
264,CDISCPILOT01,AE,01-703-1100,1,E04,APPLICATION SITE IRRITATION,APPLICATION SITE IRRITATION,,APPLICATION SITE IRRITATION,,HLT_0061,,HLGT_0346,,GENERAL DISORDERS AND ADMINISTRATION SITE CONDITIONS,,GENERAL DISORDERS AND ADMINISTRATION SITE CONDITIONS,,MODERATE,N,,PROBABLE,NOT RECOVERED/NOT RESOLVED,N,N,N,N,N,N,N,2013-04-12,2013-04-05,2013-04-16,24,35
265,CDISCPILOT01,AE,01-703-1100,2,E04,APPLICATION SITE IRRITATION,APPLICATION SITE IRRITATION,,APPLICATION SITE IRRITATION,,HLT_0061,,HLGT_0346,,GENERAL DISORDERS AND ADMINISTRATION SITE CONDITIONS,,GENERAL DISORDERS AND ADMINISTRATION SITE CONDITIONS,,MILD,N,,PROBABLE,NOT RECOVERED/NOT RESOLVED,N,N,N,N,N,N,N,2013-04-14,2013-04-05,2013-04-16,24,35
266,CDISCPILOT01,AE,01-703-1100,3,E04,APPLICATION SITE IRRITATION,APPLICATION SITE IRRITATION,,APPLICATION SITE IRRITATION,,HLT_0061,,HLGT_0346,,GENERAL DISORDERS AND ADMINISTRATION SITE CONDITIONS,,GENERAL DISORDERS AND ADMINISTRATION SITE CONDITIONS,,MILD,N,,PROBABLE,RECOVERED/RESOLVED,N,N,N,N,N,N,N,2013-04-24,2013-04-05,2013-04-16,24,35
267,CDISCPILOT01,AE,01-703-1100,4,E06,CATARACT OPERATION,CATARACT EXTRACTION,,CATARACT OPERATION,,HLT_0432,,HLGT_0058,,SURGICAL AND MEDICAL PROCEDURES,,SURGICAL AND MEDICAL PROCEDURES,,MODERATE,N,,NONE,RECOVERED/RESOLVED,N,N,N,N,N,N,N,2013-05-08,2013-04-25,2013-04-25,44,44
268,CDISCPILOT01,AE,01-703-1100,6,E07,OEDEMA PERIPHERAL,LEG EDEMA,,OEDEMA PERIPHERAL,,HLT_0661,,HLGT_0137,,GENERAL DISORDERS AND ADMINISTRATION SITE CONDITIONS,,GENERAL DISORDERS AND ADMINISTRATION SITE CONDITIONS,,MODERATE,N,,REMOTE,NOT RECOVERED/NOT RESOLVED,N,N,N,N,N,N,N,2013-07-31,2013-02-28,2013-09-14,-13,186
269,CDISCPILOT01,AE,01-703-1100,8,E07,OEDEMA PERIPHERAL,LEG EDEMA,,OEDEMA PERIPHERAL,,HLT_0661,,HLGT_0137,,GENERAL DISORDERS AND ADMINISTRATION SITE CONDITIONS,,GENERAL DISORDERS AND ADMINISTRATION SITE CONDITIONS,,MODERATE,N,,REMOTE,RECOVERED/RESOLVED,N,N,N,N,N,N,N,2013-09-14,2013-02-28,2013-09-14,-13,186
270,CDISCPILOT01,AE,01-703-1100,7,E09,OEDEMA PERIPHERAL,LEG EDEMA,,OEDEMA PERIPHERAL,,HLT_0661,,HLGT_0137,,GENERAL DISORDERS AND ADMINISTRATION SITE CONDITIONS,,GENERAL DISORDERS AND ADMINISTRATION SITE CONDITIONS,,MILD,N,,REMOTE,NOT RECOVERED/NOT RESOLVED,N,N,N,N,N,N,N,2013-07-31,2013-07-17,2013-09-14,127,186
271,CDISCPILOT01,AE,01-703-1100,9,E09,OEDEMA PERIPHERAL,LEG EDEMA,,OEDEMA PERIPHERAL,,HLT_0661,,HLGT_0137,,GENERAL DISORDERS AND ADMINISTRATION SITE CONDITIONS,,GENERAL DISORDERS AND ADMINISTRATION SITE CONDITIONS,,MILD,N,,REMOTE,RECOVERED/RESOLVED,N,N,N,N,N,N,N,2013-09-14,2013-07-17,2013-09-14,127,186
272,CDISCPILOT01,AE,01-703-1100,5,E08,UPPER RESPIRATORY TRACT INFECTION,UPPER RESPIRATORY INFECTION,,UPPER RESPIRATORY TRACT INFECTION,,HLT_0520,,HLGT_0489,,INFECTIONS AND INFESTATIONS,,INFECTIONS AND INFESTATIONS,,MODERATE,N,,REMOTE,RECOVERED/RESOLVED,N,N,N,N,N,N,N,2013-06-05,2013-05-27,2013-06-03,76,83
273,CDISCPILOT01,AE,01-703-1119,1,E04,APPLICATION SITE IRRITATION,APPLICATION SITE IRRITATION,,APPLICATION SITE IRRITATION,,HLT_0061,,HLGT_0346,,GENERAL DISORDERS AND ADMINISTRATION SITE CONDITIONS,,GENERAL DISORDERS AND ADMINISTRATION SITE CONDITIONS,,MODERATE,N,,PROBABLE,NOT RECOVERED/NOT RESOLVED,N,N,N,N,N,N,N,2013-03-21,2013-03-16,,25,
274,CDISCPILOT01,AE,01-703-1119,2,E04,APPLICATION SITE IRRITATION,APPLICATION SITE IRRITATION,,APPLICATION SITE IRRITATION,,HLT_0061,,HLGT_0346,,GENERAL DISORDERS AND ADMINISTRATION SITE CONDITIONS,,GENERAL DISORDERS AND ADMINISTRATION SITE CONDITIONS,,SEVERE,N,,PROBABLE,NOT RECOVERED/NOT RESOLVED,N,N,N,N,N,N,N,2013-05-17,2013-03-16,,25,
275,CDISCPILOT01,AE,01-703-1119,3,E05,PRURITUS,ITCHING,,PRURITUS,,HLT_0778,,HLGT_0695,,SKIN AND SUBCUTANEOUS TISSUE DISORDERS,,SKIN AND SUBCUTANEOUS TISSUE DISORDERS,,MODERATE,N,,PROBABLE,NOT RECOVERED/NOT RESOLVED,N,N,N,N,N,N,N,2013-05-17,2013-05-04,,74,
276,CDISCPILOT01,AE,01-703-1119,4,E05,PRURITUS,ITCHING,,PRURITUS,,HLT_0778,,HLGT_0695,,SKIN AND SUBCUTANEOUS TISSUE DISORDERS,,SKIN AND SUBCUTANEOUS TISSUE DISORDERS,,SEVERE,N,,PROBABLE,NOT RECOVERED/NOT RESOLVED,N,N,N,N,N,N,N,2013-06-13,2013-05-04,,74,
277,CDISCPILOT01,AE,01-703-1175,1,E01,ATRIOVENTRICULAR BLOCK SECOND DEGREE,HEART BLOCK SECOND DEGREE,,ATRIOVENTRICULAR BLOCK SECOND DEGREE,,HLT_0415,,HLGT_0086,,CARDIAC DISORDERS,,CARDIAC DISORDERS,,SEVERE,N,,NONE,NOT RECOVERED/NOT RESOLVED,N,N,N,N,N,N,N,2013-12-18,2013-12-18,,-2,
278,CDISCPILOT01,AE,01-703-1182,1,E05,APPLICATION SITE ERYTHEMA,APPLICATION SITE REDNESS,,APPLICATION SITE ERYTHEMA,,HLT_0617,,HLGT_0152,,GENERAL DISORDERS AND ADMINISTRATION SITE CONDITIONS,,GENERAL DISORDERS AND ADMINISTRATION SITE CONDITIONS,,MILD,N,,POSSIBLE,NOT RECOVERED/NOT RESOLVED,N,N,N,N,N,N,N,2013-10-31,2013-10-31,,15,
279,CDISCPILOT01,AE,01-703-1182,2,E05,APPLICATION SITE ERYTHEMA,APPLICATION SITE REDNESS,,APPLICATION SITE ERYTHEMA,,HLT_0617,,HLGT_0152,,GENERAL DISORDERS AND ADMINISTRATION SITE CONDITIONS,,GENERAL DISORDERS AND ADMINISTRATION SITE CONDITIONS,,MODERATE,N,,POSSIBLE,NOT RECOVERED/NOT RESOLVED,N,N,N,N,N,N,N,2013-11-28,2013-10-31,,15,
280,CDISCPILOT01,AE,01-703-1182,3,E07,SOMNOLENCE,DROWSINESS,,SOMNOLENCE,,HLT_0160,,HLGT_0254,,NERVOUS SYSTEM DISORDERS,,NERVOUS SYSTEM DISORDERS,,MILD,N,,REMOTE,NOT RECOVERED/NOT RESOLVED,N,N,N,N,N,N,N,2013-11-28,2013-11-22,,37,
281,CDISCPILOT01,AE,01-703-1182,4,E07,SOMNOLENCE,DROWSINESS,,SOMNOLENCE,,HLT_0160,,HLGT_0254,,NERVOUS SYSTEM DISORDERS,,NERVOUS SYSTEM DISORDERS,,MODERATE,N,,REMOTE,NOT RECOVERED/NOT RESOLVED,N,N,N,N,N,N,N,2013-12-12,2013-11-22,,37,
282,CDISCPILOT01,AE,01-703-1210,2,E04,DECREASED APPETITE,DECREASED APPETITE,,DECREASED APPETITE,,HLT_0574,,HLGT_0231,,METABOLISM AND NUTRITION DISORDERS,,METABOLISM AND NUTRITION DISORDERS,,MILD,N,,POSSIBLE,NOT RECOVERED/NOT RESOLVED,N,N,N,N,N,N,N,2013-05-10,2013-05-04,,50,
283,CDISCPILOT01,AE,01-703-1210,3,E04,DECREASED APPETITE,DECREASED APPETITE,,DECREASED APPETITE,,HLT_0574,,HLGT_0231,,METABOLISM AND NUTRITION DISORDERS,,METABOLISM AND NUTRITION DISORDERS,,MODERATE,N,,POSSIBLE,NOT RECOVERED/NOT RESOLVED,N,N,N,N,N,N,N,2013-08-24,2013-05-04,,50,
284,CDISCPILOT01,AE,01-703-1210,1,E01,DISORIENTATION,DISORIENTATION,,DISORIENTATION,,HLT_0299,,HLGT_0307,,PSYCHIATRIC DISORDERS,,PSYCHIATRIC DISORDERS,,MILD,N,,REMOTE,NOT RECOVERED/NOT RESOLVED,N,N,N,N,N,N,N,2013-04-12,2013-04-02,,18,
285,CDISCPILOT01,AE,01-703-1258,4,E08,APPLICATION SITE DERMATITIS,APPLICATION SITE RASH,,APPLICATION SITE DERMATITIS,,HLT_0343,,HLGT_0241,,GENERAL DISORDERS AND ADMINISTRATION SITE CONDITIONS,,GENERAL DISORDERS AND ADMINISTRATION SITE CONDITIONS,,MILD,N,,PROBABLE,NOT RECOVERED/NOT RESOLVED,N,N,N,N,N,N,N,2012-09-04,2012-09-04,2013-01-25,47,190
286,CDISCPILOT01,AE,01-703-1258,6,E08,APPLICATION SITE DERMATITIS,APPLICATION SITE RASH,,APPLICATION SITE DERMATITIS,,HLT_0343,,HLGT_0241,,GENERAL DISORDERS AND ADMINISTRATION SITE CONDITIONS,,GENERAL DISORDERS AND ADMINISTRATION SITE CONDITIONS,,MODERATE,N,,PROBABLE,NOT RECOVERED/NOT RESOLVED,N,N,N,N,N,N,N,2012-09-14,2012-09-04,2013-01-25,47,190
287,CDISCPILOT01,AE,01-703-1258,7,E08,APPLICATION SITE DERMATITIS,APPLICATION SITE RASH,,APPLICATION SITE DERMATITIS,,HLT_0343,,HLGT_0241,,GENERAL DISORDERS AND ADMINISTRATION SITE CONDITIONS,,GENERAL DISORDERS AND ADMINISTRATION SITE CONDITIONS,,MILD,N,,PROBABLE,RECOVERED/RESOLVED,N,N,N,N,N,N,N,2013-01-28,2012-09-04,2013-01-25,47,190
288,CDISCPILOT01,AE,01-703-1258,2,E06,DIZZINESS,DIZZINESS,,DIZZINESS,,HLT_0619,,HLGT_0751,,NERVOUS SYSTEM DISORDERS,,NERVOUS SYSTEM DISORDERS,,MODERATE,N,,NONE,NOT RECOVERED/NOT RESOLVED,N,N,N,N,N,N,N,2012-09-04,2001,,,
289,CDISCPILOT01,AE,01-703-1258,5,E06,DIZZINESS,DIZZINESS,,DIZZINESS,,HLT_0619,,HLGT_0751,,NERVOUS SYSTEM DISORDERS,,NERVOUS SYSTEM DISORDERS,,MILD,N,,NONE,NOT RECOVERED/NOT RESOLVED,N,N,N,N,N,N,N,2012-09-14,2001,,,
290,CDISCPILOT01,AE,01-703-1258,1,E07,UPPER RESPIRATORY TRACT INFECTION,UPPER RESPIRATORY INFECTION,,UPPER RESPIRATORY TRACT INFECTION,,HLT_0520,,HLGT_0489,,INFECTIONS AND INFESTATIONS,,INFECTIONS AND INFESTATIONS,,MILD,N,,NONE,NOT RECOVERED/NOT RESOLVED,N,N,N,N,N,N,N,2012-08-17,2012-08-11,2012-08-19,23,31
291,CDISCPILOT01,AE,01-703-1258,3,E07,UPPER RESPIRATORY TRACT INFECTION,UPPER RESPIRATORY INFECTION,,UPPER RESPIRATORY TRACT INFECTION,,HLT_0520,,HLGT_0489,,INFECTIONS AND INFESTATIONS,,INFECTIONS AND INFESTATIONS,,MILD,N,,NONE,RECOVERED/RESOLVED,N,N,N,N,N,N,N,2012-09-04,2012-08-11,2012-08-19,23,31
292,CDISCPILOT01,AE,01-703-1295,1,E06,ARTHRITIS,ARTHRITIS,,ARTHRITIS,,HLT_0019,,HLGT_0587,,MUSCULOSKELETAL AND CONNECTIVE TISSUE DISORDERS,,MUSCULOSKELETAL AND CONNECTIVE TISSUE DISORDERS,,MODERATE,N,,NONE,NOT RECOVERED/NOT RESOLVED,N,N,N,N,N,N,N,2014-01-01,2013-12-28,,38,
293,CDISCPILOT01,AE,01-703-1299,3,E01,GLAUCOMA,GLAUCOMA,,GLAUCOMA,,HLT_0556,,HLGT_0734,,EYE DISORDERS,,EYE DISORDERS,,MODERATE,N,,NONE,NOT RECOVERED/NOT RESOLVED,N,N,N,N,N,N,N,2013-03-01,1992,,,
294,CDISCPILOT01,AE,01-703-1299,4,E05,HYPOTENSION,HYPOTENSION,,HYPOTENSION,,HLT_0761,,HLGT_0412,,VASCULAR DISORDERS,,VASCULAR DISORDERS,,MILD,N,,REMOTE,NOT RECOVERED/NOT RESOLVED,N,N,N,N,N,N,N,2013-03-01,2013-03-01,,171,
295,CDISCPILOT01,AE,01-703-1299,6,E05,HYPOTENSION,HYPOTENSION,,HYPOTENSION,,HLT_0761,,HLGT_0412,,VASCULAR DISORDERS,,VASCULAR DISORDERS,,MODERATE,N,,REMOTE,NOT RECOVERED/NOT RESOLVED,N,N,N,N,N,N,N,2013-03-13,2013-03-01,,171,
296,CDISCPILOT01,AE,01-703-1299,8,E07,MYOCARDIAL INFARCTION,MYOCARDIAL INFARCTION,,MYOCARDIAL INFARCTION,,HLT_0649,,HLGT_0688,,CARDIAC DISORDERS,,CARDIAC DISORDERS,,MODERATE,N,,REMOTE,NOT RECOVERED/NOT RESOLVED,N,N,N,N,N,N,N,2013-03-13,2013-03-13,,183,
297,CDISCPILOT01,AE,01-703-1299,5,E06,TACHYCARDIA,TACHYCARDIA,,TACHYCARDIA,,HLT_0082,,HLGT_0574,,CARDIAC DISORDERS,,CARDIAC DISORDERS,,MILD,N,,REMOTE,NOT RECOVERED/NOT RESOLVED,N,N,N,N,N,N,N,2013-03-01,2013-03-01,,171,
298,CDISCPILOT01,AE,01-703-1299,7,E06,TACHYCARDIA,TACHYCARDIA,,TACHYCARDIA,,HLT_0082,,HLGT_0574,,CARDIAC DISORDERS,,CARDIAC DISORDERS,,MODERATE,N,,REMOTE,NOT RECOVERED/NOT RESOLVED,N,N,N,N,N,N,N,2013-03-13,2013-03-01,,171,
299,CDISCPILOT01,AE,01-703-1299,1,E02,UPPER RESPIRATORY TRACT INFECTION,UPPER RESPIRATORY INFECTION,,UPPER RESPIRATORY TRACT INFECTION,,HLT_0520,,HLGT_0489,,INFECTIONS AND INFESTATIONS,,INFECTIONS AND INFESTATIONS,,MILD,N,,NONE,NOT RECOVERED/NOT RESOLVED,N,N,N,N,N,N,N,2012-09-28,2012-09-27,2012-10-06,16,25
300,CDISCPILOT01,AE,01-703-1299,2,E02,UPPER RESPIRATORY TRACT INFECTION,UPPER RESPIRATORY INFECTION,,UPPER RESPIRATORY TRACT INFECTION,,HLT_0520,,HLGT_0489,,INFECTIONS AND INFESTATIONS,,INFECTIONS AND INFESTATIONS,,MILD,N,,NONE,RECOVERED/RESOLVED,N,N,N,N,N,N,N,2012-10-10,2012-09-27,2012-10-06,16,25
301,CDISCPILOT01,AE,01-703-1335,1,E01,ATRIOVENTRICULAR BLOCK SECOND DEGREE,AV BLOCK SECOND DEGREE,,ATRIOVENTRICULAR BLOCK SECOND DEGREE,,HLT_0415,,HLGT_0086,,CARDIAC DISORDERS,,CARDIAC DISORDERS,,MILD,N,,NONE,NOT RECOVERED/NOT RESOLVED,N,N,N,N,N,N,N,2014-03-15,2014-03-15,2014-03-30,-2,14
302,CDISCPILOT01,AE,01-703-1335,2,E01,ATRIOVENTRICULAR BLOCK SECOND DEGREE,AV BLOCK SECOND DEGREE,,ATRIOVENTRICULAR BLOCK SECOND DEGREE,,HLT_0415,,HLGT_0086,,CARDIAC DISORDERS,,CARDIAC DISORDERS,,MILD,N,,NONE,RECOVERED/RESOLVED,N,N,N,N,N,N,N,2014-03-31,2014-03-15,2014-03-30,-2,14
303,CDISCPILOT01,AE,01-703-1403,4,E03,CHEST DISCOMFORT,CHEST TIGHTNESS,,CHEST DISCOMFORT,,HLT_0593,,HLGT_0441,,GENERAL DISORDERS AND ADMINISTRATION SITE CONDITIONS,,GENERAL DISORDERS AND ADMINISTRATION SITE CONDITIONS,,MILD,N,,PROBABLE,RECOVERED/RESOLVED,N,N,N,N,N,N,N,2012-12-19,2012-12-15,2012-12-16,4,5
304,CDISCPILOT01,AE,01-703-1403,2,E01,DIARRHOEA,DIARRHEA,,DIARRHOEA,,HLT_0148,,HLGT_0588,,GASTROINTESTINAL DISORDERS,,GASTROINTESTINAL DISORDERS,,MODERATE,N,,PROBABLE,RECOVERED/RESOLVED,N,N,N,N,N,N,N,2012-12-19,2012-12-13,2012-12-14,2,3
305,CDISCPILOT01,AE,01-703-1403,3,E02,VOMITING,VOMITING,,VOMITING,,HLT_0016,,HLGT_0350,,GASTROINTESTINAL DISORDERS,,GASTROINTESTINAL DISORDERS,,MODERATE,N,,PROBABLE,RECOVERED/RESOLVED,N,N,N,N,N,N,N,2012-12-19,2012-12-13,2012-12-14,2,3
306,CDISCPILOT01,AE,01-703-1403,1,E07,WEIGHT DECREASED,WEIGHT LOSS,,WEIGHT DECREASED,,HLT_0158,,HLGT_0778,,INVESTIGATIONS,,INVESTIGATIONS,,MODERATE,N,,NONE,NOT RECOVERED/NOT RESOLVED,N,N,N,N,N,N,N,2012-12-19,2012-12-12,2012-12-19,1,8
307,CDISCPILOT01,AE,01-703-1403,5,E07,WEIGHT DECREASED,WEIGHT LOSS,,WEIGHT DECREASED,,HLT_0158,,HLGT_0778,,INVESTIGATIONS,,INVESTIGATIONS,,MODERATE,N,,NONE,RECOVERED/RESOLVED,N,N,N,N,N,N,N,2013-01-08,2012-12-12,2012-12-19,1,8
308,CDISCPILOT01,AE,01-703-1439,1,E01,APPLICATION SITE IRRITATION,APPLICATION SITE IRRITATION,,APPLICATION SITE IRRITATION,,HLT_0061,,HLGT_0346,,GENERAL DISORDERS AND ADMINISTRATION SITE CONDITIONS,,GENERAL DISORDERS AND ADMINISTRATION SITE CONDITIONS,,MILD,N,,PROBABLE,NOT RECOVERED/NOT RESOLVED,N,N,N,N,N,N,N,2014-05-05,2014-04-24,,44,
309,CDISCPILOT01,AE,01-703-1439,2,E01,APPLICATION SITE IRRITATION,APPLICATION SITE IRRITATION,,APPLICATION SITE IRRITATION,,HLT_0061,,HLGT_0346,,GENERAL DISORDERS AND ADMINISTRATION SITE CONDITIONS,,GENERAL DISORDERS AND ADMINISTRATION SITE CONDITIONS,,MODERATE,N,,PROBABLE,NOT RECOVERED/NOT RESOLVED,N,N,N,N,N,N,N,2014-06-30,2014-04-24,,44,
310,CDISCPILOT01,AE,01-704-1008,1,E03,HYPERHIDROSIS,SWEATING INCREASED,,HYPERHIDROSIS,,HLT_0587,,HLGT_0005,,SKIN AND SUBCUTANEOUS TISSUE DISORDERS,,SKIN AND SUBCUTANEOUS TISSUE DISORDERS,,MILD,N,,POSSIBLE,NOT RECOVERED/NOT RESOLVED,N,N,N,N,N,N,N,2013-02-09,2013-01-30,,18,
311,CDISCPILOT01,AE,01-704-1008,3,E05,SINUS BRADYCARDIA,SINUS BRADYCARDIA,,SINUS BRADYCARDIA,,HLT_0644,,HLGT_0500,,CARDIAC DISORDERS,,CARDIAC DISORDERS,,MODERATE,N,,NONE,NOT RECOVERED/NOT RESOLVED,N,N,N,N,N,N,N,2013-02-25,2013-02-25,,44,
312,CDISCPILOT01,AE,01-704-1008,2,E06,TRANSIENT ISCHAEMIC ATTACK,TRANSIENT ISCHEMIC ATTACKS,,TRANSIENT ISCHAEMIC ATTACK,,HLT_0041,,HLGT_0433,,NERVOUS SYSTEM DISORDERS,,NERVOUS SYSTEM DISORDERS,,SEVERE,N,,NONE,RECOVERED/RESOLVED,N,N,N,N,Y,N,N,2013-02-25,2013-02-21,2013-02-21,40,40
313,CDISCPILOT01,AE,01-704-1009,5,E07,DIZZINESS,DIZZINESS,,DIZZINESS,,HLT_0619,,HLGT_0751,,NERVOUS SYSTEM DISORDERS,,NERVOUS SYSTEM DISORDERS,,MILD,N,,REMOTE,NOT RECOVERED/NOT RESOLVED,N,N,N,N,N,N,N,2013-10-02,2013-09-17,,22,
314,CDISCPILOT01,AE,01-704-1009,1,E09,FATIGUE,FATIGUE,,FATIGUE,,HLT_0043,,HLGT_0181,,GENERAL DISORDERS AND ADMINISTRATION SITE CONDITIONS,,GENERAL DISORDERS AND ADMINISTRATION SITE CONDITIONS,,MILD,N,,REMOTE,NOT RECOVERED/NOT RESOLVED,N,N,N,N,N,N,N,2013-09-14,2013-09-05,,10,
315,CDISCPILOT01,AE,01-704-1009,2,E10,MALAISE,MALAISE,,MALAISE,,HLT_0456,,HLGT_0178,,GENERAL DISORDERS AND ADMINISTRATION SITE CONDITIONS,,GENERAL DISORDERS AND ADMINISTRATION SITE CONDITIONS,,MILD,N,,POSSIBLE,NOT RECOVERED/NOT RESOLVED,N,N,N,N,N,N,N,2013-09-14,2013-09-05,2013-09-27,10,32
316,CDISCPILOT01,AE,01-704-1009,4,E10,MALAISE,MALAISE,,MALAISE,,HLT_0456,,HLGT_0178,,GENERAL DISORDERS AND ADMINISTRATION SITE CONDITIONS,,GENERAL DISORDERS AND ADMINISTRATION SITE CONDITIONS,,MILD,N,,POSSIBLE,RECOVERED/RESOLVED,N,N,N,N,N,N,N,2013-10-02,2013-09-05,2013-09-27,10,32
317,CDISCPILOT01,AE,01-704-1009,6,E08,NAUSEA,NAUSEA,,NAUSEA,,HLT_0742,,HLGT_0326,,GASTROINTESTINAL DISORDERS,,GASTROINTESTINAL DISORDERS,,MILD,N,,POSSIBLE,RECOVERED/RESOLVED,N,N,N,N,N,N,N,2013-10-02,2013-09-22,2013-09-23,27,28
318,CDISCPILOT01,AE,01-704-1009,3,E03,RASH,RASH,,RASH,,HLT_0762,,HLGT_0198,,SKIN AND SUBCUTANEOUS TISSUE DISORDERS,,SKIN AND SUBCUTANEOUS TISSUE DISORDERS,,MILD,N,,POSSIBLE,NOT RECOVERED/NOT RESOLVED,N,N,N,N,N,N,N,2013-09-14,2013-09-14,,19,
319,CDISCPILOT01,AE,01-704-1010,6,E07,ARTHRALGIA,KNEE PAIN,,ARTHRALGIA,,HLT_0375,,HLGT_0610,,MUSCULOSKELETAL AND CONNECTIVE TISSUE DISORDERS,,MUSCULOSKELETAL AND CONNECTIVE TISSUE DISORDERS,,MILD,N,,NONE,NOT RECOVERED/NOT RESOLVED,N,N,N,N,N,N,N,2014-07-09,2014-07-06,,136,
320,CDISCPILOT01,AE,01-704-1010,7,E08,CONTUSION,BRUISE OF HEAD,,CONTUSION,,HLT_0713,,HLGT_0381,,"INJURY, POISONING AND PROCEDURAL COMPLICATIONS",,"INJURY, POISONING AND PROCEDURAL COMPLICATIONS",,MILD,N,,NONE,NOT RECOVERED/NOT RESOLVED,N,N,N,N,N,N,N,2014-07-09,2014-07-06,,136,
321,CDISCPILOT01,AE,01-704-1010,1,E01,CYSTITIS,BLADDER INFECTION,,CYSTITIS,,HLT_0739,,HLGT_0129,,INFECTIONS AND INFESTATIONS,,INFECTIONS AND INFESTATIONS,,MILD,N,,NONE,RECOVERED/RESOLVED,N,N,N,N,N,N,N,2014-03-08,2014-02-27,2014-03-06,7,14
322,CDISCPILOT01,AE,01-704-1010,3,E04,DIARRHOEA,DIARRHEA,,DIARRHOEA,,HLT_0148,,HLGT_0588,,GASTROINTESTINAL DISORDERS,,GASTROINTESTINAL DISORDERS,,MILD,N,,NONE,RECOVERED/RESOLVED,N,N,N,N,N,N,N,2014-07-09,2014-07-05,2014-07-06,135,136
323,CDISCPILOT01,AE,01-704-1010,4,E05,EXCORIATION,ABRASION NOS,,EXCORIATION,,HLT_0738,,HLGT_0511,,"INJURY, POISONING AND PROCEDURAL COMPLICATIONS",,"INJURY, POISONING AND PROCEDURAL COMPLICATIONS",,MILD,N,,NONE,NOT RECOVERED/NOT RESOLVED,N,N,N,N,N,N,N,2014-07-09,2014-07-06,,136,
324,CDISCPILOT01,AE,01-704-1010,5,E06,SKIN LACERATION,SKIN TEAR,,SKIN LACERATION,,HLT_0075,,HLGT_0118,,"INJURY, POISONING AND PROCEDURAL COMPLICATIONS",,"INJURY, POISONING AND PROCEDURAL COMPLICATIONS",,MILD,N,,NONE,NOT RECOVERED/NOT RESOLVED,N,N,N,N,N,N,N,2014-07-09,2014-07-06,,136,
325,CDISCPILOT01,AE,01-704-1010,2,E03,VOMITING,VOMITING,,VOMITING,,HLT_0016,,HLGT_0350,,GASTROINTESTINAL DISORDERS,,GASTROINTESTINAL DISORDERS,,MILD,N,,NONE,RECOVERED/RESOLVED,N,N,N,N,N,N,N,2014-07-09,2014-07-05,2014-07-06,135,136
326,CDISCPILOT01,AE,01-704-1017,4,E16,CARDIAC DISORDER,CARDIAC DISORDER,,CARDIAC DISORDER,,HLT_0507,,HLGT_0126,,CARDIAC DISORDERS,,CARDIAC DISORDERS,,MILD,N,,NONE,NOT RECOVERED/NOT RESOLVED,N,N,N,N,N,N,N,2013-11-09,2013-11-01,,27,
327,CDISCPILOT01,AE,01-704-1017,3,E13,INFLUENZA,FLU,,INFLUENZA,,HLT_0125,,HLGT_0081,,INFECTIONS AND INFESTATIONS,,INFECTIONS AND INFESTATIONS,,MILD,N,,NONE,RECOVERED/RESOLVED,N,N,N,N,N,N,N,2013-11-09,2013-11-01,2013-11-08,27,34
328,CDISCPILOT01,AE,01-704-1017,1,E14,MYOCARDIAL INFARCTION,MYOCARDIAL INFARCTION,,MYOCARDIAL INFARCTION,,HLT_0649,,HLGT_0688,,CARDIAC DISORDERS,,CARDIAC DISORDERS,,MILD,N,,NONE,NOT RECOVERED/NOT RESOLVED,N,N,N,N,N,N,N,2013-10-19,2013-10-19,,14,
329,CDISCPILOT01,AE,01-704-1017,6,E12,PRURITUS,ITCHING,,PRURITUS,,HLT_0778,,HLGT_0695,,SKIN AND SUBCUTANEOUS TISSUE DISORDERS,,SKIN AND SUBCUTANEOUS TISSUE DISORDERS,,MILD,N,,PROBABLE,NOT RECOVERED/NOT RESOLVED,N,N,N,N,N,N,N,2013-11-09,2013-11-05,2013-11-22,31,48
330,CDISCPILOT01,AE,01-704-1017,8,E12,PRURITUS,ITCHING,,PRURITUS,,HLT_0778,,HLGT_0695,,SKIN AND SUBCUTANEOUS TISSUE DISORDERS,,SKIN AND SUBCUTANEOUS TISSUE DISORDERS,,MILD,N,,PROBABLE,RECOVERED/RESOLVED,N,N,N,N,N,N,N,2013-11-24,2013-11-05,2013-11-22,31,48
331,CDISCPILOT01,AE,01-704-1017,5,E11,RASH,RASH,,RASH,,HLT_0762,,HLGT_0198,,SKIN AND SUBCUTANEOUS TISSUE DISORDERS,,SKIN AND SUBCUTANEOUS TISSUE DISORDERS,,MILD,N,,PROBABLE,NOT RECOVERED/NOT RESOLVED,N,N,N,N,N,N,N,2013-11-09,2013-11-05,2013-11-22,31,48
332,CDISCPILOT01,AE,01-704-1017,7,E11,RASH,RASH,,RASH,,HLT_0762,,HLGT_0198,,SKIN AND SUBCUTANEOUS TISSUE DISORDERS,,SKIN AND SUBCUTANEOUS TISSUE DISORDERS,,MILD,N,,PROBABLE,RECOVERED/RESOLVED,N,N,N,N,N,N,N,2013-11-24,2013-11-05,2013-11-22,31,48
333,CDISCPILOT01,AE,01-704-1017,2,E15,VENTRICULAR SEPTAL DEFECT,VENTRICULAR SEPTAL DEFECT,,VENTRICULAR SEPTAL DEFECT,,HLT_0589,,HLGT_0747,,"CONGENITAL, FAMILIAL AND GENETIC DISORDERS",,"CONGENITAL, FAMILIAL AND GENETIC DISORDERS",,MILD,N,,NONE,NOT RECOVERED/NOT RESOLVED,N,N,N,N,N,N,N,2013-10-19,2013-10-19,,14,
334,CDISCPILOT01,AE,01-704-1025,3,E05,ELECTROCARDIOGRAM ST SEGMENT DEPRESSION,ST SEGMENT DEPRESSED,,ELECTROCARDIOGRAM ST SEGMENT DEPRESSION,,HLT_0610,,HLGT_0220,,INVESTIGATIONS,,INVESTIGATIONS,,MILD,N,,POSSIBLE,NOT RECOVERED/NOT RESOLVED,N,N,N,N,N,N,N,2013-10-11,2013-10-11,2013-10-25,15,29
335,CDISCPILOT01,AE,01-704-1025,5,E05,ELECTROCARDIOGRAM ST SEGMENT DEPRESSION,ST SEGMENT DEPRESSED,,ELECTROCARDIOGRAM ST SEGMENT DEPRESSION,,HLT_0610,,HLGT_0220,,INVESTIGATIONS,,INVESTIGATIONS,,MILD,N,,POSSIBLE,RECOVERED/RESOLVED,N,N,N,N,N,N,N,2013-11-29,2013-10-11,2013-10-25,15,29
336,CDISCPILOT01,AE,01-704-1025,2,E02,PALPITATIONS,PALPITATIONS,,PALPITATIONS,,HLT_0493,,HLGT_0593,,CARDIAC DISORDERS,,CARDIAC DISORDERS,,MODERATE,N,,REMOTE,RECOVERED/RESOLVED,N,N,N,N,N,N,N,2013-10-11,2013-09-28,2013-09-30,2,4
337,CDISCPILOT01,AE,01-704-1025,1,E01,VERTIGO,VERTIGO,,VERTIGO,,HLT_0255,,HLGT_0147,,EAR AND LABYRINTH DISORDERS,,EAR AND LABYRINTH DISORDERS,,MODERATE,N,,POSSIBLE,RECOVERED/RESOLVED,N,N,N,N,N,N,N,2013-10-11,2013-09-28,2013-09-30,2,4
338,CDISCPILOT01,AE,01-704-1025,4,E06,WOLFF-PARKINSON-WHITE SYNDROME,WOLFF-PARKINSON-WHITE SYNDROME,,WOLFF-PARKINSON-WHITE SYNDROME,,HLT_0612,,HLGT_0218,,CARDIAC DISORDERS,,CARDIAC DISORDERS,,MILD,N,,POSSIBLE,NOT RECOVERED/NOT RESOLVED,N,N,N,N,N,N,N,2013-10-25,2013-10-25,2013-11-29,29,64
339,CDISCPILOT01,AE,01-704-1025,6,E06,WOLFF-PARKINSON-WHITE SYNDROME,WOLFF-PARKINSON-WHITE SYNDROME,,WOLFF-PARKINSON-WHITE SYNDROME,,HLT_0612,,HLGT_0218,,CARDIAC DISORDERS,,CARDIAC DISORDERS,,MILD,N,,POSSIBLE,RECOVERED/RESOLVED,N,N,N,N,N,N,N,2013-11-29,2013-10-25,2013-11-29,29,64
340,CDISCPILOT01,AE,01-704-1065,1,E13,ABDOMINAL DISCOMFORT,ABDOMINAL DISCOMFORT,,ABDOMINAL DISCOMFORT,,HLT_0012,,HLGT_0332,,GASTROINTESTINAL DISORDERS,,GASTROINTESTINAL DISORDERS,,MILD,N,,REMOTE,NOT RECOVERED/NOT RESOLVED,N,N,N,N,N,N,N,2013-11-07,2013-10-26,,3,
341,CDISCPILOT01,AE,01-704-1065,4,E12,APPLICATION SITE IRRITATION,APPLICATION SITE BURNING,,APPLICATION SITE IRRITATION,,HLT_0061,,HLGT_0346,,GENERAL DISORDERS AND ADMINISTRATION SITE CONDITIONS,,GENERAL DISORDERS AND ADMINISTRATION SITE CONDITIONS,,MILD,N,,PROBABLE,NOT RECOVERED/NOT RESOLVED,N,N,N,N,N,N,N,2013-11-25,2013-11-09,,17,
342,CDISCPILOT01,AE,01-704-1065,3,E10,APPLICATION SITE PRURITUS,APPLICATION SITE ITCHING,,APPLICATION SITE PRURITUS,,HLT_0317,,HLGT_0338,,GENERAL DISORDERS AND ADMINISTRATION SITE CONDITIONS,,GENERAL DISORDERS AND ADMINISTRATION SITE CONDITIONS,,MODERATE,N,,PROBABLE,NOT RECOVERED/NOT RESOLVED,N,N,N,N,N,N,N,2013-11-07,2013-10-27,,4,
343,CDISCPILOT01,AE,01-704-1065,7,E16,CHILLS,CHILLS,,CHILLS,,HLT_0586,,HLGT_0161,,GENERAL DISORDERS AND ADMINISTRATION SITE CONDITIONS,,GENERAL DISORDERS AND ADMINISTRATION SITE CONDITIONS,,MILD,N,,REMOTE,RECOVERED/RESOLVED,N,N,N,N,N,N,N,2013-11-25,2013-11-17,2013-11-17,25,25
344,CDISCPILOT01,AE,01-704-1065,9,E18,DIARRHOEA,DIARRHEA,,DIARRHOEA,,HLT_0148,,HLGT_0588,,GASTROINTESTINAL DISORDERS,,GASTROINTESTINAL DISORDERS,,MILD,N,,REMOTE,RECOVERED/RESOLVED,N,N,N,N,N,N,N,2013-12-20,2013-12-15,2013-12-15,53,53
345,CDISCPILOT01,AE,01-704-1065,8,E17,DIZZINESS,DIZZINESS,,DIZZINESS,,HLT_0619,,HLGT_0751,,NERVOUS SYSTEM DISORDERS,,NERVOUS SYSTEM DISORDERS,,MILD,N,,REMOTE,RECOVERED/RESOLVED,N,N,N,N,N,N,N,2013-11-25,2013-11-17,2013-11-17,25,25
346,CDISCPILOT01,AE,01-704-1065,6,E15,HYPERHIDROSIS,PERSPIRATION EXCESSIVE,,HYPERHIDROSIS,,HLT_0587,,HLGT_0005,,SKIN AND SUBCUTANEOUS TISSUE DISORDERS,,SKIN AND SUBCUTANEOUS TISSUE DISORDERS,,MILD,N,,POSSIBLE,NOT RECOVERED/NOT RESOLVED,N,N,N,N,N,N,N,2013-11-25,2013-11-09,,17,
347,CDISCPILOT01,AE,01-704-1065,5,E14,MALAISE,MALAISE,,MALAISE,,HLT_0456,,HLGT_0178,,GENERAL DISORDERS AND ADMINISTRATION SITE CONDITIONS,,GENERAL DISORDERS AND ADMINISTRATION SITE CONDITIONS,,MILD,N,,POSSIBLE,NOT RECOVERED/NOT RESOLVED,N,N,N,N,N,N,N,2013-11-25,2013-11-09,,17,
348,CDISCPILOT01,AE,01-704-1065,2,E07,RASH,RASH,,RASH,,HLT_0762,,HLGT_0198,,SKIN AND SUBCUTANEOUS TISSUE DISORDERS,,SKIN AND SUBCUTANEOUS TISSUE DISORDERS,,MILD,N,,PROBABLE,NOT RECOVERED/NOT RESOLVED,N,N,N,N,N,N,N,2013-11-07,2013-10-27,,4,
349,CDISCPILOT01,AE,01-704-1065,10,E19,SINUS BRADYCARDIA,BRADYCARDIA SINUS,,SINUS BRADYCARDIA,,HLT_0644,,HLGT_0500,,CARDIAC DISORDERS,,CARDIAC DISORDERS,,MILD,N,,NONE,NOT RECOVERED/NOT RESOLVED,N,N,N,N,N,N,N,2013-12-24,2013-12-24,,62,
350,CDISCPILOT01,AE,01-704-1074,2,E09,ERYTHEMA,SKIN RED,,ERYTHEMA,,HLT_0284,,HLGT_0192,,SKIN AND SUBCUTANEOUS TISSUE DISORDERS,,SKIN AND SUBCUTANEOUS TISSUE DISORDERS,,MILD,N,,PROBABLE,NOT RECOVERED/NOT RESOLVED,N,N,N,N,N,N,N,2014-02-09,2014-02-09,,19,
351,CDISCPILOT01,AE,01-704-1074,1,E08,PRURITUS,ITCHING,,PRURITUS,,HLT_0778,,HLGT_0695,,SKIN AND SUBCUTANEOUS TISSUE DISORDERS,,SKIN AND SUBCUTANEOUS TISSUE DISORDERS,,MILD,N,,PROBABLE,NOT RECOVERED/NOT RESOLVED,N,N,N,N,N,N,N,2014-01-22,2014-01-22,,1,
352,CDISCPILOT01,AE,01-704-1093,1,E02,BLOOD GLUCOSE INCREASED,GLUCOSE INCREASED,,BLOOD GLUCOSE INCREASED,,HLT_0450,,HLGT_0188,,INVESTIGATIONS,,INVESTIGATIONS,,MILD,N,,NONE,NOT RECOVERED/NOT RESOLVED,N,N,N,N,N,N,N,2013-03-30,2013-03-30,2013-04-13,16,30
353,CDISCPILOT01,AE,01-704-1093,2,E02,BLOOD GLUCOSE INCREASED,GLUCOSE INCREASED,,BLOOD GLUCOSE INCREASED,,HLT_0450,,HLGT_0188,,INVESTIGATIONS,,INVESTIGATIONS,,MILD,N,,NONE,RECOVERED/RESOLVED,N,N,N,N,N,N,N,2013-04-17,2013-03-30,2013-04-13,16,30
354,CDISCPILOT01,AE,01-704-1093,4,E06,PRURITUS,ITCHING,,PRURITUS,,HLT_0778,,HLGT_0695,,SKIN AND SUBCUTANEOUS TISSUE DISORDERS,,SKIN AND SUBCUTANEOUS TISSUE DISORDERS,,MILD,N,,PROBABLE,NOT RECOVERED/NOT RESOLVED,N,N,N,N,N,N,N,2013-05-11,2013-05-04,,51,
355,CDISCPILOT01,AE,01-704-1093,3,E05,RASH,RASH,,RASH,,HLT_0762,,HLGT_0198,,SKIN AND SUBCUTANEOUS TISSUE DISORDERS,,SKIN AND SUBCUTANEOUS TISSUE DISORDERS,,MILD,N,,PROBABLE,NOT RECOVERED/NOT RESOLVED,N,N,N,N,N,N,N,2013-05-11,2013-05-04,,51,
356,CDISCPILOT01,AE,01-704-1114,1,E06,ERYTHEMA,REDNESS,,ERYTHEMA,,HLT_0284,,HLGT_0192,,SKIN AND SUBCUTANEOUS TISSUE DISORDERS,,SKIN AND SUBCUTANEOUS TISSUE DISORDERS,,MILD,N,,PROBABLE,RECOVERED/RESOLVED,N,N,N,N,N,N,N,2013-03-13,2013-02-21,2013-02-23,30,32
357,CDISCPILOT01,AE,01-704-1114,5,E07,INFLUENZA,FLU,,INFLUENZA,,HLT_0125,,HLGT_0081,,INFECTIONS AND INFESTATIONS,,INFECTIONS AND INFESTATIONS,,MILD,N,,NONE,RECOVERED/RESOLVED,N,N,N,N,N,N,N,2013-06-16,2013-06-07,2013-06-13,136,142
358,CDISCPILOT01,AE,01-704-1114,2,E03,OEDEMA,EDEMA,,OEDEMA,,HLT_0656,,HLGT_0036,,GENERAL DISORDERS AND ADMINISTRATION SITE CONDITIONS,,GENERAL DISORDERS AND ADMINISTRATION SITE CONDITIONS,,MILD,N,,PROBABLE,NOT RECOVERED/NOT RESOLVED,N,N,N,N,N,N,N,2013-03-13,2013-02-23,,32,
359,CDISCPILOT01,AE,01-704-1114,4,E05,PRURITUS,ITCHING,,PRURITUS,,HLT_0778,,HLGT_0695,,SKIN AND SUBCUTANEOUS TISSUE DISORDERS,,SKIN AND SUBCUTANEOUS TISSUE DISORDERS,,MILD,N,,PROBABLE,NOT RECOVERED/NOT RESOLVED,N,N,N,N,N,N,N,2013-03-26,2013-03-23,,60,
360,CDISCPILOT01,AE,01-704-1114,3,E04,RASH,RASH,,RASH,,HLT_0762,,HLGT_0198,,SKIN AND SUBCUTANEOUS TISSUE DISORDERS,,SKIN AND SUBCUTANEOUS TISSUE DISORDERS,,MILD,N,,PROBABLE,NOT RECOVERED/NOT RESOLVED,N,N,N,N,N,N,N,2013-03-26,2013-03-23,,60,
361,CDISCPILOT01,AE,01-704-1120,2,E02,NASOPHARYNGITIS,COLD,,NASOPHARYNGITIS,,HLT_0036,,HLGT_0709,,INFECTIONS AND INFESTATIONS,,INFECTIONS AND INFESTATIONS,,MILD,N,,NONE,NOT RECOVERED/NOT RESOLVED,N,N,N,N,N,N,N,2013-12-29,2013-12-28,2014-02-03,27,64
362,CDISCPILOT01,AE,01-704-1120,6,E02,NASOPHARYNGITIS,COLD,,NASOPHARYNGITIS,,HLT_0036,,HLGT_0709,,INFECTIONS AND INFESTATIONS,,INFECTIONS AND INFESTATIONS,,MILD,N,,NONE,RECOVERED/RESOLVED,N,N,N,N,N,N,N,2014-03-10,2013-12-28,2014-02-03,27,64
363,CDISCPILOT01,AE,01-704-1120,4,E04,PRURITUS,ITCHING,,PRURITUS,,HLT_0778,,HLGT_0695,,SKIN AND SUBCUTANEOUS TISSUE DISORDERS,,SKIN AND SUBCUTANEOUS TISSUE DISORDERS,,MILD,N,,PROBABLE,NOT RECOVERED/NOT RESOLVED,N,N,N,N,N,N,N,2014-01-27,2014-01-27,,57,
364,CDISCPILOT01,AE,01-704-1120,5,E04,PRURITUS,ITCHING,,PRURITUS,,HLT_0778,,HLGT_0695,,SKIN AND SUBCUTANEOUS TISSUE DISORDERS,,SKIN AND SUBCUTANEOUS TISSUE DISORDERS,,MODERATE,N,,PROBABLE,NOT RECOVERED/NOT RESOLVED,N,N,N,N,N,N,N,2014-02-03,2014-01-27,,57,
365,CDISCPILOT01,AE,01-704-1120,1,E01,RASH,RASH,,RASH,,HLT_0762,,HLGT_0198,,SKIN AND SUBCUTANEOUS TISSUE DISORDERS,,SKIN AND SUBCUTANEOUS TISSUE DISORDERS,,MILD,N,,PROBABLE,NOT RECOVERED/NOT RESOLVED,N,N,N,N,N,N,N,2013-12-29,2013-12-23,,22,
366,CDISCPILOT01,AE,01-704-1120,3,E01,RASH,RASH,,RASH,,HLT_0762,,HLGT_0198,,SKIN AND SUBCUTANEOUS TISSUE DISORDERS,,SKIN AND SUBCUTANEOUS TISSUE DISORDERS,,MODERATE,N,,PROBABLE,NOT RECOVERED/NOT RESOLVED,N,N,N,N,N,N,N,2014-01-27,2013-12-23,,22,
367,CDISCPILOT01,AE,01-704-1135,1,E01,RASH,RASH,,RASH,,HLT_0762,,HLGT_0198,,SKIN AND SUBCUTANEOUS TISSUE DISORDERS,,SKIN AND SUBCUTANEOUS TISSUE DISORDERS,,MILD,N,,,NOT RECOVERED/NOT RESOLVED,N,N,N,N,N,N,N,2013-12-11,2013-12-08,,39,
368,CDISCPILOT01,AE,01-704-1135,2,E01,RASH,RASH,,RASH,,HLT_0762,,HLGT_0198,,SKIN AND SUBCUTANEOUS TISSUE DISORDERS,,SKIN AND SUBCUTANEOUS TISSUE DISORDERS,,SEVERE,N,,,NOT RECOVERED/NOT RESOLVED,N,N,N,N,N,N,N,2014-02-19,2013-12-08,,39,
369,CDISCPILOT01,AE,01-704-1164,1,E02,INFLUENZA,FLU,,INFLUENZA,,HLT_0125,,HLGT_0081,,INFECTIONS AND INFESTATIONS,,INFECTIONS AND INFESTATIONS,,MILD,N,,NONE,NOT RECOVERED/NOT RESOLVED,N,N,N,N,N,N,N,2012-10-04,2012-09-27,2012-10-07,9,19
370,CDISCPILOT01,AE,01-704-1164,2,E02,INFLUENZA,FLU,,INFLUENZA,,HLT_0125,,HLGT_0081,,INFECTIONS AND INFESTATIONS,,INFECTIONS AND INFESTATIONS,,MILD,N,,NONE,RECOVERED/RESOLVED,N,N,N,N,N,N,N,2012-10-21,2012-09-27,2012-10-07,9,19
371,CDISCPILOT01,AE,01-704-1164,3,E07,OEDEMA PERIPHERAL,SWELLING OF FEET,,OEDEMA PERIPHERAL,,HLT_0661,,HLGT_0137,,GENERAL DISORDERS AND ADMINISTRATION SITE CONDITIONS,,GENERAL DISORDERS AND ADMINISTRATION SITE CONDITIONS,,MILD,N,,NONE,RECOVERED/RESOLVED,N,N,N,N,N,N,N,2013-02-14,2013-02-04,2013-02-13,139,148
372,CDISCPILOT01,AE,01-704-1218,1,E05,BLOOD GLUCOSE INCREASED,GLUCOSE INCREASED,,BLOOD GLUCOSE INCREASED,,HLT_0450,,HLGT_0188,,INVESTIGATIONS,,INVESTIGATIONS,,MILD,N,,NONE,NOT RECOVERED/NOT RESOLVED,N,N,N,N,N,N,N,2012-12-30,2012-12-30,,42,
373,CDISCPILOT01,AE,01-704-1241,2,E03,DYSPNOEA,RESPIRATION LABORED,,DYSPNOEA,,HLT_0296,,HLGT_0255,,"RESPIRATORY, THORACIC AND MEDIASTINAL DISORDERS",,"RESPIRATORY, THORACIC AND MEDIASTINAL DISORDERS",,MILD,N,,NONE,NOT RECOVERED/NOT RESOLVED,N,N,N,N,N,N,N,2013-10-09,2013-09-28,,35,
374,CDISCPILOT01,AE,01-704-1241,1,E04,RASH,RASH,,RASH,,HLT_0762,,HLGT_0198,,SKIN AND SUBCUTANEOUS TISSUE DISORDERS,,SKIN AND SUBCUTANEOUS TISSUE DISORDERS,,MODERATE,N,,NONE,NOT RECOVERED/NOT RESOLVED,N,N,N,N,N,N,N,2013-10-09,2013-08-14,,-11,
375,CDISCPILOT01,AE,01-704-1266,4,E13,ATRIAL FIBRILLATION,ATRIAL FIBRILLATION,,ATRIAL FIBRILLATION,,HLT_0365,,HLGT_0012,,CARDIAC DISORDERS,,CARDIAC DISORDERS,,MILD,N,,NONE,NOT RECOVERED/NOT RESOLVED,N,N,N,N,N,N,N,2013-11-08,2013-11-08,2013-12-06,27,55
376,CDISCPILOT01,AE,01-704-1266,13,E13,ATRIAL FIBRILLATION,ATRIAL FIBRILLATION,,ATRIAL FIBRILLATION,,HLT_0365,,HLGT_0012,,CARDIAC DISORDERS,,CARDIAC DISORDERS,,MILD,N,,NONE,RECOVERED/RESOLVED,N,N,N,N,N,N,N,2014-01-03,2013-11-08,2013-12-06,27,55
377,CDISCPILOT01,AE,01-704-1266,3,E12,ATRIAL FLUTTER,ATRIAL FLUTTER,,ATRIAL FLUTTER,,HLT_0477,,HLGT_0627,,CARDIAC DISORDERS,,CARDIAC DISORDERS,,MILD,N,,NONE,NOT RECOVERED/NOT RESOLVED,N,N,N,N,N,N,N,2013-10-27,2013-10-27,2013-11-08,15,27
378,CDISCPILOT01,AE,01-704-1266,5,E12,ATRIAL FLUTTER,ATRIAL FLUTTER,,ATRIAL FLUTTER,,HLT_0477,,HLGT_0627,,CARDIAC DISORDERS,,CARDIAC DISORDERS,,MILD,N,,NONE,RECOVERED/RESOLVED,N,N,N,N,N,N,N,2013-11-10,2013-10-27,2013-11-08,15,27
379,CDISCPILOT01,AE,01-704-1266,7,E16,BLISTER,BLISTERING,,BLISTER,,HLT_0752,,HLGT_0267,,SKIN AND SUBCUTANEOUS TISSUE DISORDERS,,SKIN AND SUBCUTANEOUS TISSUE DISORDERS,,MILD,N,,PROBABLE,NOT RECOVERED/NOT RESOLVED,N,N,N,N,N,N,N,2013-11-22,2013-11-15,2013-12-14,34,63
380,CDISCPILOT01,AE,01-704-1266,14,E16,BLISTER,BLISTERING,,BLISTER,,HLT_0752,,HLGT_0267,,SKIN AND SUBCUTANEOUS TISSUE DISORDERS,,SKIN AND SUBCUTANEOUS TISSUE DISORDERS,,MILD,N,,PROBABLE,RECOVERED/RESOLVED,N,N,N,N,N,N,N,2014-01-03,2013-11-15,2013-12-14,34,63
381,CDISCPILOT01,AE,01-704-1266,2,E10,ERYTHEMA,ERYTHEMA,,ERYTHEMA,,HLT_0284,,HLGT_0192,,SKIN AND SUBCUTANEOUS TISSUE DISORDERS,,SKIN AND SUBCUTANEOUS TISSUE DISORDERS,,MILD,N,,PROBABLE,NOT RECOVERED/NOT RESOLVED,N,N,N,N,N,N,N,2013-10-27,2013-10-17,2013-12-23,5,72
382,CDISCPILOT01,AE,01-704-1266,9,E10,ERYTHEMA,ERYTHEMA,,ERYTHEMA,,HLT_0284,,HLGT_0192,,SKIN AND SUBCUTANEOUS TISSUE DISORDERS,,SKIN AND SUBCUTANEOUS TISSUE DISORDERS,,MODERATE,N,,PROBABLE,NOT RECOVERED/NOT RESOLVED,N,N,N,N,N,N,N,2013-12-06,2013-10-17,2013-12-23,5,72
383,CDISCPILOT01,AE,01-704-1266,12,E10,ERYTHEMA,ERYTHEMA,,ERYTHEMA,,HLT_0284,,HLGT_0192,,SKIN AND SUBCUTANEOUS TISSUE DISORDERS,,SKIN AND SUBCUTANEOUS TISSUE DISORDERS,,MODERATE,N,,PROBABLE,RECOVERED/RESOLVED,N,N,N,N,N,N,N,2014-01-03,2013-10-17,2013-12-23,5,72
384,CDISCPILOT01,AE,01-704-1266,11,E18,ERYTHEMA,REDNESS,,ERYTHEMA,,HLT_0284,,HLGT_0192,,SKIN AND SUBCUTANEOUS TISSUE DISORDERS,,SKIN AND SUBCUTANEOUS TISSUE DISORDERS,,MILD,N,,PROBABLE,NOT RECOVERED/NOT RESOLVED,N,N,N,N,N,N,N,2013-12-06,2013-12-06,2013-12-23,55,72
385,CDISCPILOT01,AE,01-704-1266,16,E18,ERYTHEMA,REDNESS,,ERYTHEMA,,HLT_0284,,HLGT_0192,,SKIN AND SUBCUTANEOUS TISSUE DISORDERS,,SKIN AND SUBCUTANEOUS TISSUE DISORDERS,,MILD,N,,PROBABLE,RECOVERED/RESOLVED,N,N,N,N,N,N,N,2014-01-03,2013-12-06,2013-12-23,55,72
386,CDISCPILOT01,AE,01-704-1266,6,E15,HYPERHIDROSIS,PERSPIRATION EXCESSIVE,,HYPERHIDROSIS,,HLT_0587,,HLGT_0005,,SKIN AND SUBCUTANEOUS TISSUE DISORDERS,,SKIN AND SUBCUTANEOUS TISSUE DISORDERS,,MILD,N,,POSSIBLE,NOT RECOVERED/NOT RESOLVED,N,N,N,N,N,N,N,2013-11-10,2013-11-09,2013-12-04,28,53
387,CDISCPILOT01,AE,01-704-1266,10,E15,HYPERHIDROSIS,PERSPIRATION EXCESSIVE,,HYPERHIDROSIS,,HLT_0587,,HLGT_0005,,SKIN AND SUBCUTANEOUS TISSUE DISORDERS,,SKIN AND SUBCUTANEOUS TISSUE DISORDERS,,MILD,N,,POSSIBLE,RECOVERED/RESOLVED,N,N,N,N,N,N,N,2013-12-06,2013-11-09,2013-12-04,28,53
388,CDISCPILOT01,AE,01-704-1266,8,E17,PRURITUS,ITCHING,,PRURITUS,,HLT_0778,,HLGT_0695,,SKIN AND SUBCUTANEOUS TISSUE DISORDERS,,SKIN AND SUBCUTANEOUS TISSUE DISORDERS,,MILD,N,,PROBABLE,NOT RECOVERED/NOT RESOLVED,N,N,N,N,N,N,N,2013-11-22,2013-11-15,2013-12-23,34,72
389,CDISCPILOT01,AE,01-704-1266,15,E17,PRURITUS,ITCHING,,PRURITUS,,HLT_0778,,HLGT_0695,,SKIN AND SUBCUTANEOUS TISSUE DISORDERS,,SKIN AND SUBCUTANEOUS TISSUE DISORDERS,,MILD,N,,PROBABLE,RECOVERED/RESOLVED,N,N,N,N,N,N,N,2014-01-03,2013-11-15,2013-12-23,34,72
390,CDISCPILOT01,AE,01-704-1266,1,E11,SEASONAL ALLERGY,HAY FEVER,,SEASONAL ALLERGY,,HLT_0714,,HLGT_0782,,IMMUNE SYSTEM DISORDERS,,IMMUNE SYSTEM DISORDERS,,MILD,N,,NONE,NOT RECOVERED/NOT RESOLVED,N,N,N,N,N,N,N,2013-10-11,2013-10-06,,-7,
391,CDISCPILOT01,AE,01-704-1323,4,E10,OEDEMA,EDEMA,,OEDEMA,,HLT_0656,,HLGT_0036,,GENERAL DISORDERS AND ADMINISTRATION SITE CONDITIONS,,GENERAL DISORDERS AND ADMINISTRATION SITE CONDITIONS,,MILD,N,,PROBABLE,NOT RECOVERED/NOT RESOLVED,N,N,N,N,N,N,N,2013-08-04,2013-08-04,,28,
392,CDISCPILOT01,AE,01-704-1323,3,E09,PRURITUS,ITCHING,,PRURITUS,,HLT_0778,,HLGT_0695,,SKIN AND SUBCUTANEOUS TISSUE DISORDERS,,SKIN AND SUBCUTANEOUS TISSUE DISORDERS,,MILD,N,,PROBABLE,NOT RECOVERED/NOT RESOLVED,N,N,N,N,N,N,N,2013-08-04,2013-08-04,,28,
393,CDISCPILOT01,AE,01-704-1323,2,E08,RASH,RASH,,RASH,,HLT_0762,,HLGT_0198,,SKIN AND SUBCUTANEOUS TISSUE DISORDERS,,SKIN AND SUBCUTANEOUS TISSUE DISORDERS,,MILD,N,,PROBABLE,NOT RECOVERED/NOT RESOLVED,N,N,N,N,N,N,N,2013-08-04,2013-08-04,,28,
394,CDISCPILOT01,AE,01-704-1323,1,E07,VIRAL INFECTION,VIRAL INFECTION,,VIRAL INFECTION,,HLT_0733,,HLGT_0408,,INFECTIONS AND INFESTATIONS,,INFECTIONS AND INFESTATIONS,,MILD,N,,NONE,RECOVERED/RESOLVED,N,N,N,N,N,N,N,2013-08-04,2013-07-30,2013-08-03,23,27
395,CDISCPILOT01,AE,01-704-1325,2,E05,PRURITUS,ITCHING,,PRURITUS,,HLT_0778,,HLGT_0695,,SKIN AND SUBCUTANEOUS TISSUE DISORDERS,,SKIN AND SUBCUTANEOUS TISSUE DISORDERS,,MILD,N,,PROBABLE,NOT RECOVERED/NOT RESOLVED,N,N,N,N,N,N,N,2014-07-16,2014-07-04,,73,
396,CDISCPILOT01,AE,01-704-1325,1,E04,RASH,RASH,,RASH,,HLT_0762,,HLGT_0198,,SKIN AND SUBCUTANEOUS TISSUE DISORDERS,,SKIN AND SUBCUTANEOUS TISSUE DISORDERS,,MILD,N,,PROBABLE,NOT RECOVERED/NOT RESOLVED,N,N,N,N,N,N,N,2014-06-04,2014-05-23,,31,
397,CDISCPILOT01,AE,01-704-1332,4,E05,BURNING SENSATION,BURNING SENSATION,,BURNING SENSATION,,HLT_0775,,HLGT_0456,,NERVOUS SYSTEM DISORDERS,,NERVOUS SYSTEM DISORDERS,,MILD,N,,PROBABLE,NOT RECOVERED/NOT RESOLVED,N,N,N,N,N,N,N,2014-02-03,2014-02-03,,57,
398,CDISCPILOT01,AE,01-704-1332,2,E02,PRURITUS,ITCHING,,PRURITUS,,HLT_0778,,HLGT_0695,,SKIN AND SUBCUTANEOUS TISSUE DISORDERS,,SKIN AND SUBCUTANEOUS TISSUE DISORDERS,,MILD,N,,PROBABLE,NOT RECOVERED/NOT RESOLVED,N,N,N,N,N,N,N,2014-01-20,2014-01-18,2014-02-24,41,78
399,CDISCPILOT01,AE,01-704-1332,6,E02,PRURITUS,ITCHING,,PRURITUS,,HLT_0778,,HLGT_0695,,SKIN AND SUBCUTANEOUS TISSUE DISORDERS,,SKIN AND SUBCUTANEOUS TISSUE DISORDERS,,MILD,N,,PROBABLE,RECOVERED/RESOLVED,N,N,N,N,N,N,N,2014-02-24,2014-01-18,2014-02-24,41,78
400,CDISCPILOT01,AE,01-704-1332,1,E01,RASH,RASH,,RASH,,HLT_0762,,HLGT_0198,,SKIN AND SUBCUTANEOUS TISSUE DISORDERS,,SKIN AND SUBCUTANEOUS TISSUE DISORDERS,,MILD,N,,NONE,NOT RECOVERED/NOT RESOLVED,N,N,N,N,N,N,N,2013-12-23,2013-12-10,2014-02-24,2,78
401,CDISCPILOT01,AE,01-704-1332,3,E01,RASH,RASH,,RASH,,HLT_0762,,HLGT_0198,,SKIN AND SUBCUTANEOUS TISSUE DISORDERS,,SKIN AND SUBCUTANEOUS TISSUE DISORDERS,,MODERATE,N,,NONE,NOT RECOVERED/NOT RESOLVED,N,N,N,N,N,N,N,2014-02-03,2013-12-10,2014-02-24,2,78
402,CDISCPILOT01,AE,01-704-1332,5,E01,RASH,RASH,,RASH,,HLT_0762,,HLGT_0198,,SKIN AND SUBCUTANEOUS TISSUE DISORDERS,,SKIN AND SUBCUTANEOUS TISSUE DISORDERS,,MODERATE,N,,NONE,RECOVERED/RESOLVED,N,N,N,N,N,N,N,2014-02-24,2013-12-10,2014-02-24,2,78
403,CDISCPILOT01,AE,01-704-1351,2,E03,FLATULENCE,GAS,,FLATULENCE,,HLT_0356,,HLGT_0504,,GASTROINTESTINAL DISORDERS,,GASTROINTESTINAL DISORDERS,,MILD,N,,NONE,NOT RECOVERED/NOT RESOLVED,N,N,N,N,N,N,N,2013-11-07,2013-10-27,2014-04-04,16,175
404,CDISCPILOT01,AE,01-704-1351,4,E03,FLATULENCE,GAS,,FLATULENCE,,HLT_0356,,HLGT_0504,,GASTROINTESTINAL DISORDERS,,GASTROINTESTINAL DISORDERS,,MILD,N,,NONE,RECOVERED/RESOLVED,N,N,N,N,N,N,N,2014-04-18,2013-10-27,2014-04-04,16,175
405,CDISCPILOT01,AE,01-704-1351,1,E02,POLLAKIURIA,URINARY FREQUENCY,,POLLAKIURIA,,HLT_0393,,HLGT_0560,,RENAL AND URINARY DISORDERS,,RENAL AND URINARY DISORDERS,,MILD,N,,NONE,NOT RECOVERED/NOT RESOLVED,N,N,N,N,N,N,N,2013-11-07,2013-10-27,2014-04-04,16,175
406,CDISCPILOT01,AE,01-704-1351,3,E02,POLLAKIURIA,URINARY FREQUENCY,,POLLAKIURIA,,HLT_0393,,HLGT_0560,,RENAL AND URINARY DISORDERS,,RENAL AND URINARY DISORDERS,,MILD,N,,NONE,RECOVERED/RESOLVED,N,N,N,N,N,N,N,2014-04-18,2013-10-27,2014-04-04,16,175
407,CDISCPILOT01,AE,01-704-1388,1,E01,HEADACHE,HEADACHE,,HEADACHE,,HLT_0064,,HLGT_0344,,NERVOUS SYSTEM DISORDERS,,NERVOUS SYSTEM DISORDERS,,MODERATE,N,,NONE,NOT RECOVERED/NOT RESOLVED,N,N,N,N,N,N,N,2013-03-27,2012-08-23,,-106,
408,CDISCPILOT01,AE,01-704-1435,1,E08,PARKINSON'S DISEASE,DISEASE PARKINSON'S,,PARKINSON'S DISEASE,,HLT_0279,,HLGT_0313,,NERVOUS SYSTEM DISORDERS,,NERVOUS SYSTEM DISORDERS,,MILD,N,,NONE,NOT RECOVERED/NOT RESOLVED,N,N,N,N,N,N,N,2013-01-12,2013-01-06,,51,
409,CDISCPILOT01,AE,01-704-1445,1,E06,COMPLETED SUICIDE,SUICIDE,,COMPLETED SUICIDE,,HLT_0625,,HLGT_0013,,PSYCHIATRIC DISORDERS,,PSYCHIATRIC DISORDERS,,SEVERE,N,,NONE,FATAL,N,N,N,Y,N,N,N,2014-11-01,2014-10-31,2014-10-31,174,174
410,CDISCPILOT01,AE,01-705-1031,1,E02,RASH,RASH,,RASH,,HLT_0762,,HLGT_0198,,SKIN AND SUBCUTANEOUS TISSUE DISORDERS,,SKIN AND SUBCUTANEOUS TISSUE DISORDERS,,MILD,N,,POSSIBLE,NOT RECOVERED/NOT RESOLVED,N,N,N,N,N,N,N,2013-12-25,2013-12-25,,29,
411,CDISCPILOT01,AE,01-705-1059,1,E02,ERYTHEMA,ERYTHEMA,,ERYTHEMA,,HLT_0284,,HLGT_0192,,SKIN AND SUBCUTANEOUS TISSUE DISORDERS,,SKIN AND SUBCUTANEOUS TISSUE DISORDERS,,MODERATE,N,,PROBABLE,NOT RECOVERED/NOT RESOLVED,N,N,N,N,N,N,N,2013-11-07,2013-11-02,,90,
412,CDISCPILOT01,AE,01-705-1186,1,E02,HYPERBILIRUBINAEMIA,HYPERBILIRUBINEMIA,,HYPERBILIRUBINAEMIA,,HLT_0478,,HLGT_0087,,HEPATOBILIARY DISORDERS,,HEPATOBILIARY DISORDERS,,MODERATE,N,,REMOTE,NOT RECOVERED/NOT RESOLVED,N,N,N,N,N,N,N,2014-02-07,2014-01-26,,19,
413,CDISCPILOT01,AE,01-705-1199,1,E06,DYSPEPSIA,PYROSIS,,DYSPEPSIA,,HLT_0244,,HLGT_0716,,GASTROINTESTINAL DISORDERS,,GASTROINTESTINAL DISORDERS,,MODERATE,N,,POSSIBLE,NOT RECOVERED/NOT RESOLVED,N,N,N,N,N,N,N,2013-09-29,2013-09-17,2013-09-29,2,14
414,CDISCPILOT01,AE,01-705-1199,2,E06,DYSPEPSIA,PYROSIS,,DYSPEPSIA,,HLT_0244,,HLGT_0716,,GASTROINTESTINAL DISORDERS,,GASTROINTESTINAL DISORDERS,,MODERATE,N,,POSSIBLE,RECOVERED/RESOLVED,N,N,N,N,N,N,N,2013-09-29,2013-09-17,2013-09-29,2,14
415,CDISCPILOT01,AE,01-705-1280,1,E01,PRURITUS,PRURITUS,,PRURITUS,,HLT_0778,,HLGT_0695,,SKIN AND SUBCUTANEOUS TISSUE DISORDERS,,SKIN AND SUBCUTANEOUS TISSUE DISORDERS,,MILD,N,,POSSIBLE,NOT RECOVERED/NOT RESOLVED,N,N,N,N,N,N,N,2014-05-16,2014-04-20,,94,
416,CDISCPILOT01,AE,01-705-1281,2,E05,EXCORIATION,ABRASIONS,,EXCORIATION,,HLT_0738,,HLGT_0511,,"INJURY, POISONING AND PROCEDURAL COMPLICATIONS",,"INJURY, POISONING AND PROCEDURAL COMPLICATIONS",,MODERATE,N,,PROBABLE,NOT RECOVERED/NOT RESOLVED,N,N,N,N,N,N,N,2014-02-18,2014-01-30,,64,
417,CDISCPILOT01,AE,01-705-1281,1,E04,PRURITUS,PRURITUS,,PRURITUS,,HLT_0778,,HLGT_0695,,SKIN AND SUBCUTANEOUS TISSUE DISORDERS,,SKIN AND SUBCUTANEOUS TISSUE DISORDERS,,MILD,N,,POSSIBLE,NOT RECOVERED/NOT RESOLVED,N,N,N,N,N,N,N,2014-02-18,2014-01-30,,64,
418,CDISCPILOT01,AE,01-705-1281,3,E04,PRURITUS,PRURITUS,,PRURITUS,,HLT_0778,,HLGT_0695,,SKIN AND SUBCUTANEOUS TISSUE DISORDERS,,SKIN AND SUBCUTANEOUS TISSUE DISORDERS,,MODERATE,N,,POSSIBLE,NOT RECOVERED/NOT RESOLVED,N,N,N,N,N,N,N,2014-03-17,2014-01-30,,64,
419,CDISCPILOT01,AE,01-705-1292,2,E02,ERYTHEMA,ERYTHEMA,,ERYTHEMA,,HLT_0284,,HLGT_0192,,SKIN AND SUBCUTANEOUS TISSUE DISORDERS,,SKIN AND SUBCUTANEOUS TISSUE DISORDERS,,MODERATE,N,,PROBABLE,NOT RECOVERED/NOT RESOLVED,N,N,N,N,N,N,N,2014-03-03,2014-02-13,,123,
420,CDISCPILOT01,AE,01-705-1292,1,E01,PRURITUS,ITCHY,,PRURITUS,,HLT_0778,,HLGT_0695,,SKIN AND SUBCUTANEOUS TISSUE DISORDERS,,SKIN AND SUBCUTANEOUS TISSUE DISORDERS,,MILD,N,,PROBABLE,NOT RECOVERED/NOT RESOLVED,N,N,N,N,N,N,N,2013-10-29,2013-10-28,,15,
421,CDISCPILOT01,AE,01-705-1303,1,E02,PRURITUS,PRURITUS,,PRURITUS,,HLT_0778,,HLGT_0695,,SKIN AND SUBCUTANEOUS TISSUE DISORDERS,,SKIN AND SUBCUTANEOUS TISSUE DISORDERS,,MILD,N,,POSSIBLE,NOT RECOVERED/NOT RESOLVED,N,N,N,N,N,N,N,2014-02-10,2014-02-05,2014-03-03,52,78
422,CDISCPILOT01,AE,01-705-1303,3,E02,PRURITUS,PRURITUS,,PRURITUS,,HLT_0778,,HLGT_0695,,SKIN AND SUBCUTANEOUS TISSUE DISORDERS,,SKIN AND SUBCUTANEOUS TISSUE DISORDERS,,MILD,N,,POSSIBLE,RECOVERED/RESOLVED,N,N,N,N,N,N,N,2014-04-07,2014-02-05,2014-03-03,52,78
423,CDISCPILOT01,AE,01-705-1303,2,E03,RASH,RASH,,RASH,,HLT_0762,,HLGT_0198,,SKIN AND SUBCUTANEOUS TISSUE DISORDERS,,SKIN AND SUBCUTANEOUS TISSUE DISORDERS,,MILD,N,,POSSIBLE,NOT RECOVERED/NOT RESOLVED,N,N,N,N,N,N,N,2014-02-10,2014-02-05,2014-03-03,52,78
424,CDISCPILOT01,AE,01-705-1303,4,E03,RASH,RASH,,RASH,,HLT_0762,,HLGT_0198,,SKIN AND SUBCUTANEOUS TISSUE DISORDERS,,SKIN AND SUBCUTANEOUS TISSUE DISORDERS,,MODERATE,N,,POSSIBLE,RECOVERED/RESOLVED,N,N,N,N,N,N,N,2014-04-07,2014-02-05,2014-03-03,52,78
425,CDISCPILOT01,AE,01-705-1310,1,E02,RASH PRURITIC,PRURITIC RASH,,RASH PRURITIC,,HLT_0127,,HLGT_0753,,SKIN AND SUBCUTANEOUS TISSUE DISORDERS,,SKIN AND SUBCUTANEOUS TISSUE DISORDERS,,MODERATE,N,,POSSIBLE,NOT RECOVERED/NOT RESOLVED,N,N,N,N,N,N,N,2013-11-22,2013-11-14,,13,
426,CDISCPILOT01,AE,01-705-1310,2,E03,WOUND HAEMORRHAGE,WOUND BLEEDING,,WOUND HAEMORRHAGE,,HLT_0154,,HLGT_0162,,VASCULAR DISORDERS,,VASCULAR DISORDERS,,MODERATE,N,,POSSIBLE,NOT RECOVERED/NOT RESOLVED,N,N,N,N,N,N,N,2014-01-23,2014-01-09,,69,
427,CDISCPILOT01,AE,01-705-1349,4,E06,ELECTROCARDIOGRAM ST SEGMENT DEPRESSION,ST SEGMENT DEPRESSED,,ELECTROCARDIOGRAM ST SEGMENT DEPRESSION,,HLT_0610,,HLGT_0220,,INVESTIGATIONS,,INVESTIGATIONS,,MILD,N,,REMOTE,NOT RECOVERED/NOT RESOLVED,N,N,N,N,N,N,N,2013-08-25,2013-08-25,,169,
428,CDISCPILOT01,AE,01-705-1349,1,E03,NAUSEA,NAUSEA,,NAUSEA,,HLT_0742,,HLGT_0326,,GASTROINTESTINAL DISORDERS,,GASTROINTESTINAL DISORDERS,,MILD,N,,REMOTE,RECOVERED/RESOLVED,N,N,N,N,N,N,N,2013-04-17,2013-04-08,2013-04-08,30,30
429,CDISCPILOT01,AE,01-705-1349,3,E05,VENTRICULAR HYPERTROPHY,LEFT VENTRICULAR HYPERTROPHY,,VENTRICULAR HYPERTROPHY,,HLT_0104,,HLGT_0259,,CARDIAC DISORDERS,,CARDIAC DISORDERS,,MILD,N,,REMOTE,NOT RECOVERED/NOT RESOLVED,N,N,N,N,N,N,N,2013-08-25,2013-08-25,,169,
430,CDISCPILOT01,AE,01-705-1349,2,E04,VOMITING,VOMITING,,VOMITING,,HLT_0016,,HLGT_0350,,GASTROINTESTINAL DISORDERS,,GASTROINTESTINAL DISORDERS,,MILD,N,,REMOTE,RECOVERED/RESOLVED,N,N,N,N,N,N,N,2013-04-17,2013-04-11,2013-04-11,33,33
431,CDISCPILOT01,AE,01-705-1393,1,E01,ABDOMINAL PAIN,ABDOMINAL CRAMPS,,ABDOMINAL PAIN,,HLT_0217,,HLGT_0419,,GASTROINTESTINAL DISORDERS,,GASTROINTESTINAL DISORDERS,,MILD,N,,REMOTE,RECOVERED/RESOLVED,N,N,N,N,N,N,N,2012-09-27,2012-09-19,2012-09-24,13,18
432,CDISCPILOT01,AE,01-705-1393,3,E05,COLON CANCER,COLON CANCER,,COLON CANCER,,HLT_0597,,HLGT_0339,,"NEOPLASMS BENIGN, MALIGNANT AND UNSPECIFIED (INCL CYSTS AND POLYPS)",,"NEOPLASMS BENIGN, MALIGNANT AND UNSPECIFIED (INCL CYSTS AND POLYPS)",,SEVERE,N,,NONE,RECOVERED/RESOLVED,Y,N,N,N,Y,N,N,2013-02-20,2013-01-21,2013-01-24,137,140
433,CDISCPILOT01,AE,01-705-1393,2,E04,PRURITUS,PRURITUS,,PRURITUS,,HLT_0778,,HLGT_0695,,SKIN AND SUBCUTANEOUS TISSUE DISORDERS,,SKIN AND SUBCUTANEOUS TISSUE DISORDERS,,MILD,N,,PROBABLE,NOT RECOVERED/NOT RESOLVED,N,N,N,N,N,N,N,2012-12-05,2011-12-05,2013-02-20,-277,167
434,CDISCPILOT01,AE,01-705-1393,4,E04,PRURITUS,PRURITUS,,PRURITUS,,HLT_0778,,HLGT_0695,,SKIN AND SUBCUTANEOUS TISSUE DISORDERS,,SKIN AND SUBCUTANEOUS TISSUE DISORDERS,,MILD,N,,PROBABLE,RECOVERED/RESOLVED,N,N,N,N,N,N,N,2013-04-25,2011-12-05,2013-02-20,-277,167
435,CDISCPILOT01,AE,01-705-1431,2,E04,ANXIETY,FEELING ANXIOUS,,ANXIETY,,HLT_0559,,HLGT_0570,,PSYCHIATRIC DISORDERS,,PSYCHIATRIC DISORDERS,,MILD,N,,POSSIBLE,RECOVERED/RESOLVED,N,N,N,N,N,N,N,2013-07-07,2013-07-04,2013-07-06,12,14
436,CDISCPILOT01,AE,01-705-1431,1,E05,RASH ERYTHEMATOUS,ERYTHEMATOUS RASH,,RASH ERYTHEMATOUS,,HLT_0336,,HLGT_0701,,SKIN AND SUBCUTANEOUS TISSUE DISORDERS,,SKIN AND SUBCUTANEOUS TISSUE DISORDERS,,MILD,N,,PROBABLE,NOT RECOVERED/NOT RESOLVED,N,N,N,N,N,N,N,2013-06-23,2013-06-22,,-1,
437,CDISCPILOT01,AE,01-706-1041,1,E02,ANXIETY,ANXIETY ATTACK,,ANXIETY,,HLT_0559,,HLGT_0570,,PSYCHIATRIC DISORDERS,,PSYCHIATRIC DISORDERS,,MODERATE,N,,REMOTE,NOT RECOVERED/NOT RESOLVED,N,N,N,N,N,N,N,2014-01-14,2012-05,,,
438,CDISCPILOT01,AE,01-706-1041,7,E02,ANXIETY,ANXIETY ATTACK,,ANXIETY,,HLT_0559,,HLGT_0570,,PSYCHIATRIC DISORDERS,,PSYCHIATRIC DISORDERS,,MILD,N,,REMOTE,NOT RECOVERED/NOT RESOLVED,N,N,N,N,N,N,N,2014-05-06,2012-05,,,
439,CDISCPILOT01,AE,01-706-1041,2,E01,DIARRHOEA,DIARRHEA,,DIARRHOEA,,HLT_0148,,HLGT_0588,,GASTROINTESTINAL DISORDERS,,GASTROINTESTINAL DISORDERS,,MILD,N,,REMOTE,RECOVERED/RESOLVED,N,N,N,N,N,N,N,2014-01-14,2014-01-07,2014-01-08,8,9
440,CDISCPILOT01,AE,01-706-1041,3,E07,EXCORIATION,ABRASIONS,,EXCORIATION,,HLT_0738,,HLGT_0511,,"INJURY, POISONING AND PROCEDURAL COMPLICATIONS",,"INJURY, POISONING AND PROCEDURAL COMPLICATIONS",,MILD,N,,NONE,NOT RECOVERED/NOT RESOLVED,N,N,N,N,N,N,N,2014-01-14,2014-01-14,2014-01-28,15,29
441,CDISCPILOT01,AE,01-706-1041,5,E07,EXCORIATION,ABRASIONS,,EXCORIATION,,HLT_0738,,HLGT_0511,,"INJURY, POISONING AND PROCEDURAL COMPLICATIONS",,"INJURY, POISONING AND PROCEDURAL COMPLICATIONS",,MILD,N,,NONE,RECOVERED/RESOLVED,N,N,N,N,N,N,N,2014-01-30,2014-01-14,2014-01-28,15,29
442,CDISCPILOT01,AE,01-706-1041,4,E03,IRRITABILITY,IRRITABILITY,,IRRITABILITY,,HLT_0627,,HLGT_0461,,PSYCHIATRIC DISORDERS,,PSYCHIATRIC DISORDERS,,MODERATE,N,,POSSIBLE,NOT RECOVERED/NOT RESOLVED,N,N,N,N,N,N,N,2014-01-28,2014-01-15,2014-07-29,16,211
443,CDISCPILOT01,AE,01-706-1041,8,E03,IRRITABILITY,IRRITABILITY,,IRRITABILITY,,HLT_0627,,HLGT_0461,,PSYCHIATRIC DISORDERS,,PSYCHIATRIC DISORDERS,,MODERATE,N,,POSSIBLE,RECOVERED/RESOLVED,N,N,N,N,N,N,N,2014-07-29,2014-01-15,2014-07-29,16,211
444,CDISCPILOT01,AE,01-706-1041,6,E08,PRURITUS,ITCHING,,PRURITUS,,HLT_0778,,HLGT_0695,,SKIN AND SUBCUTANEOUS TISSUE DISORDERS,,SKIN AND SUBCUTANEOUS TISSUE DISORDERS,,MILD,N,,POSSIBLE,NOT RECOVERED/NOT RESOLVED,N,N,N,N,N,N,N,2014-03-04,2014-03-04,2014-07-29,64,211
445,CDISCPILOT01,AE,01-706-1041,9,E08,PRURITUS,ITCHING,,PRURITUS,,HLT_0778,,HLGT_0695,,SKIN AND SUBCUTANEOUS TISSUE DISORDERS,,SKIN AND SUBCUTANEOUS TISSUE DISORDERS,,MILD,N,,POSSIBLE,RECOVERED/RESOLVED,N,N,N,N,N,N,N,2014-07-29,2014-03-04,2014-07-29,64,211
446,CDISCPILOT01,AE,01-706-1049,1,E01,SYNCOPE,FAINTING,,SYNCOPE,,HLT_0440,,HLGT_0310,,NERVOUS SYSTEM DISORDERS,,NERVOUS SYSTEM DISORDERS,,MODERATE,N,,POSSIBLE,RECOVERED/RESOLVED,N,N,N,N,N,N,N,2013-06-11,2013-06-03,2013-06-03,21,21
447,CDISCPILOT01,AE,01-706-1049,2,E02,SYNCOPE,SYNCOPAL ATTACK,,SYNCOPE,,HLT_0440,,HLGT_0310,,NERVOUS SYSTEM DISORDERS,,NERVOUS SYSTEM DISORDERS,,SEVERE,N,,PROBABLE,RECOVERED/RESOLVED,N,N,N,N,Y,N,N,2013-06-25,2013-06-18,2013-06-18,36,36
448,CDISCPILOT01,AE,01-706-1384,1,E03,ERYTHEMA,ERYTHEMA,,ERYTHEMA,,HLT_0284,,HLGT_0192,,SKIN AND SUBCUTANEOUS TISSUE DISORDERS,,SKIN AND SUBCUTANEOUS TISSUE DISORDERS,,MODERATE,N,,NONE,NOT RECOVERED/NOT RESOLVED,N,N,N,N,N,N,N,2012-09-15,2012-09-15,2012-09-29,1,15
449,CDISCPILOT01,AE,01-706-1384,6,E03,ERYTHEMA,ERYTHEMA,,ERYTHEMA,,HLT_0284,,HLGT_0192,,SKIN AND SUBCUTANEOUS TISSUE DISORDERS,,SKIN AND SUBCUTANEOUS TISSUE DISORDERS,,MODERATE,N,,NONE,RECOVERED/RESOLVED,N,N,N,N,N,N,N,2013-06-22,2012-09-15,2012-09-29,1,15
450,CDISCPILOT01,AE,01-706-1384,4,E01,ERYTHEMA,ERYTHEMA,,ERYTHEMA,,HLT_0284,,HLGT_0192,,SKIN AND SUBCUTANEOUS TISSUE DISORDERS,,SKIN AND SUBCUTANEOUS TISSUE DISORDERS,,MODERATE,N,,PROBABLE,NOT RECOVERED/NOT RESOLVED,N,N,N,N,N,N,N,2012-09-29,2012-09-23,2012-09-29,9,15
451,CDISCPILOT01,AE,01-706-1384,9,E01,ERYTHEMA,ERYTHEMA,,ERYTHEMA,,HLT_0284,,HLGT_0192,,SKIN AND SUBCUTANEOUS TISSUE DISORDERS,,SKIN AND SUBCUTANEOUS TISSUE DISORDERS,,MODERATE,N,,PROBABLE,RECOVERED/RESOLVED,N,N,N,N,N,N,N,2013-06-22,2012-09-23,2012-09-29,9,15
452,CDISCPILOT01,AE,01-706-1384,3,E05,EXCORIATION,ABRASIONS,,EXCORIATION,,HLT_0738,,HLGT_0511,,"INJURY, POISONING AND PROCEDURAL COMPLICATIONS",,"INJURY, POISONING AND PROCEDURAL COMPLICATIONS",,MODERATE,N,,NONE,NOT RECOVERED/NOT RESOLVED,N,N,N,N,N,N,N,2012-09-15,2012-09-15,2012-09-29,1,15
453,CDISCPILOT01,AE,01-706-1384,8,E05,EXCORIATION,ABRASIONS,,EXCORIATION,,HLT_0738,,HLGT_0511,,"INJURY, POISONING AND PROCEDURAL COMPLICATIONS",,"INJURY, POISONING AND PROCEDURAL COMPLICATIONS",,MODERATE,N,,NONE,RECOVERED/RESOLVED,N,N,N,N,N,N,N,2013-06-22,2012-09-15,2012-09-29,1,15
454,CDISCPILOT01,AE,01-706-1384,2,E04,PRURITUS,PRURITIS,,PRURITUS,,HLT_0778,,HLGT_0695,,SKIN AND SUBCUTANEOUS TISSUE DISORDERS,,SKIN AND SUBCUTANEOUS TISSUE DISORDERS,,MODERATE,N,,NONE,NOT RECOVERED/NOT RESOLVED,N,N,N,N,N,N,N,2012-09-15,2012-09-15,2012-09-29,1,15
455,CDISCPILOT01,AE,01-706-1384,7,E04,PRURITUS,PRURITIS,,PRURITUS,,HLT_0778,,HLGT_0695,,SKIN AND SUBCUTANEOUS TISSUE DISORDERS,,SKIN AND SUBCUTANEOUS TISSUE DISORDERS,,MODERATE,N,,NONE,RECOVERED/RESOLVED,N,N,N,N,N,N,N,2013-06-22,2012-09-15,2012-09-29,1,15
456,CDISCPILOT01,AE,01-706-1384,5,E06,PRURITUS,PRURITIS,,PRURITUS,,HLT_0778,,HLGT_0695,,SKIN AND SUBCUTANEOUS TISSUE DISORDERS,,SKIN AND SUBCUTANEOUS TISSUE DISORDERS,,MODERATE,N,,PROBABLE,NOT RECOVERED/NOT RESOLVED,N,N,N,N,N,N,N,2012-09-29,2012-09-23,2012-09-29,9,15
457,CDISCPILOT01,AE,01-706-1384,10,E06,PRURITUS,PRURITIS,,PRURITUS,,HLT_0778,,HLGT_0695,,SKIN AND SUBCUTANEOUS TISSUE DISORDERS,,SKIN AND SUBCUTANEOUS TISSUE DISORDERS,,MODERATE,N,,PROBABLE,RECOVERED/RESOLVED,N,N,N,N,N,N,N,2013-06-22,2012-09-23,2012-09-29,9,15
458,CDISCPILOT01,AE,01-707-1206,2,E03,BLOOD CREATINE PHOSPHOKINASE INCREASED,CPK INCREASE,,BLOOD CREATINE PHOSPHOKINASE INCREASED,,HLT_0404,,HLGT_0008,,INVESTIGATIONS,,INVESTIGATIONS,,MODERATE,N,,POSSIBLE,NOT RECOVERED/NOT RESOLVED,N,N,N,N,N,N,N,2013-11-27,2013-11-26,2013-12-09,30,43
459,CDISCPILOT01,AE,01-707-1206,4,E03,BLOOD CREATINE PHOSPHOKINASE INCREASED,CPK INCREASE,,BLOOD CREATINE PHOSPHOKINASE INCREASED,,HLT_0404,,HLGT_0008,,INVESTIGATIONS,,INVESTIGATIONS,,MODERATE,N,,POSSIBLE,RECOVERED/RESOLVED,N,N,N,N,N,N,N,2013-12-23,2013-11-26,2013-12-09,30,43
460,CDISCPILOT01,AE,01-707-1206,7,E06,CONJUNCTIVITIS,CONJUNCTIVITIS,,CONJUNCTIVITIS,,HLT_0584,,HLGT_0335,,EYE DISORDERS,,EYE DISORDERS,,MODERATE,N,,REMOTE,NOT RECOVERED/NOT RESOLVED,N,N,N,N,N,N,N,2014-02-16,2014-02-08,2014-02-22,104,118
461,CDISCPILOT01,AE,01-707-1206,8,E06,CONJUNCTIVITIS,CONJUNCTIVITIS,,CONJUNCTIVITIS,,HLT_0584,,HLGT_0335,,EYE DISORDERS,,EYE DISORDERS,,MODERATE,N,,REMOTE,RECOVERED/RESOLVED,N,N,N,N,N,N,N,2014-03-16,2014-02-08,2014-02-22,104,118
462,CDISCPILOT01,AE,01-707-1206,3,E05,POSTNASAL DRIP,POSTNASAL DRIP,,POSTNASAL DRIP,,HLT_0172,,HLGT_0032,,"RESPIRATORY, THORACIC AND MEDIASTINAL DISORDERS",,"RESPIRATORY, THORACIC AND MEDIASTINAL DISORDERS",,MILD,N,,NONE,NOT RECOVERED/NOT RESOLVED,N,N,N,N,N,N,N,2013-12-09,2013-12-03,2013-12-10,37,44
463,CDISCPILOT01,AE,01-707-1206,5,E05,POSTNASAL DRIP,POSTNASAL DRIP,,POSTNASAL DRIP,,HLT_0172,,HLGT_0032,,"RESPIRATORY, THORACIC AND MEDIASTINAL DISORDERS",,"RESPIRATORY, THORACIC AND MEDIASTINAL DISORDERS",,MILD,N,,NONE,RECOVERED/RESOLVED,N,N,N,N,N,N,N,2013-12-23,2013-12-03,2013-12-10,37,44
464,CDISCPILOT01,AE,01-707-1206,1,E04,SINUS ARRHYTHMIA,SINUS ARRHYTHMIA,,SINUS ARRHYTHMIA,,HLT_0094,,HLGT_0630,,CARDIAC DISORDERS,,CARDIAC DISORDERS,,MILD,N,,POSSIBLE,NOT RECOVERED/NOT RESOLVED,N,N,N,N,N,N,N,2013-11-25,2013-11-25,2013-12-23,29,57
465,CDISCPILOT01,AE,01-707-1206,6,E04,SINUS ARRHYTHMIA,SINUS ARRHYTHMIA,,SINUS ARRHYTHMIA,,HLT_0094,,HLGT_0630,,CARDIAC DISORDERS,,CARDIAC DISORDERS,,MILD,N,,POSSIBLE,RECOVERED/RESOLVED,N,N,N,N,N,N,N,2014-01-19,2013-11-25,2013-12-23,29,57
466,CDISCPILOT01,AE,01-708-1019,5,E06,DIZZINESS,DIZZINESS,,DIZZINESS,,HLT_0619,,HLGT_0751,,NERVOUS SYSTEM DISORDERS,,NERVOUS SYSTEM DISORDERS,,MILD,N,,POSSIBLE,RECOVERED/RESOLVED,N,N,N,N,N,N,N,2014-01-23,2014-01-01,2014-01-01,13,13
467,CDISCPILOT01,AE,01-708-1019,1,E02,HEADACHE,FRONTAL HEADACHE,,HEADACHE,,HLT_0064,,HLGT_0344,,NERVOUS SYSTEM DISORDERS,,NERVOUS SYSTEM DISORDERS,,SEVERE,N,,POSSIBLE,RECOVERED/RESOLVED,N,N,N,N,N,N,N,2014-01-23,2013-12-31,2013-12-31,12,12
468,CDISCPILOT01,AE,01-708-1019,2,E03,STUPOR,STUPOR,,STUPOR,,HLT_0595,,HLGT_0513,,NERVOUS SYSTEM DISORDERS,,NERVOUS SYSTEM DISORDERS,,SEVERE,N,,POSSIBLE,RECOVERED/RESOLVED,N,N,N,N,N,N,N,2014-01-23,2014-01-01,2014-01-01,13,13
469,CDISCPILOT01,AE,01-708-1019,3,E04,TRANSIENT ISCHAEMIC ATTACK,TRANSIENT ISCHEMIC ATTACKS,,TRANSIENT ISCHAEMIC ATTACK,,HLT_0041,,HLGT_0433,,NERVOUS SYSTEM DISORDERS,,NERVOUS SYSTEM DISORDERS,,SEVERE,N,,POSSIBLE,RECOVERED/RESOLVED,N,N,N,N,N,N,N,2014-01-23,2014-01-01,2014-01-01,13,13
470,CDISCPILOT01,AE,01-708-1019,4,E05,VISION BLURRED,BLURRED VISION,,VISION BLURRED,,HLT_0120,,HLGT_0598,,EYE DISORDERS,,EYE DISORDERS,,MILD,N,,POSSIBLE,RECOVERED/RESOLVED,N,N,N,N,N,N,N,2014-01-23,2014-01-01,2014-01-01,13,13
471,CDISCPILOT01,AE,01-708-1032,1,E05,APPLICATION SITE VESICLES,APPLICATION SITE BLISTER,,APPLICATION SITE VESICLES,,HLT_0180,,HLGT_0576,,GENERAL DISORDERS AND ADMINISTRATION SITE CONDITIONS,,GENERAL DISORDERS AND ADMINISTRATION SITE CONDITIONS,,MODERATE,N,,PROBABLE,RECOVERED/RESOLVED,N,N,N,N,N,N,N,2013-03-09,2013-02-26,2013-03-09,18,29
472,CDISCPILOT01,AE,01-708-1084,1,E02,DIZZINESS,DIZZINESS,,DIZZINESS,,HLT_0619,,HLGT_0751,,NERVOUS SYSTEM DISORDERS,,NERVOUS SYSTEM DISORDERS,,MILD,N,,POSSIBLE,NOT RECOVERED/NOT RESOLVED,N,N,N,N,N,N,N,2013-05-23,2013-05-23,2013-05-23,15,15
473,CDISCPILOT01,AE,01-708-1084,2,E02,DIZZINESS,DIZZINESS,,DIZZINESS,,HLT_0619,,HLGT_0751,,NERVOUS SYSTEM DISORDERS,,NERVOUS SYSTEM DISORDERS,,MILD,N,,POSSIBLE,RECOVERED/RESOLVED,N,N,N,N,N,N,N,2013-06-09,2013-05-23,2013-05-23,15,15
474,CDISCPILOT01,AE,01-708-1084,3,E07,MYOCARDIAL INFARCTION,MYOCARDIAL INFARCTION,,MYOCARDIAL INFARCTION,,HLT_0649,,HLGT_0688,,CARDIAC DISORDERS,,CARDIAC DISORDERS,,MILD,N,,REMOTE,NOT RECOVERED/NOT RESOLVED,N,N,N,N,N,N,N,2013-06-09,2013-06-09,2013-06-09,32,32
475,CDISCPILOT01,AE,01-708-1084,4,E07,MYOCARDIAL INFARCTION,MYOCARDIAL INFARCTION,,MYOCARDIAL INFARCTION,,HLT_0649,,HLGT_0688,,CARDIAC DISORDERS,,CARDIAC DISORDERS,,MILD,N,,REMOTE,RECOVERED/RESOLVED,N,N,N,N,N,N,N,2013-06-11,2013-06-09,2013-06-09,32,32
476,CDISCPILOT01,AE,01-708-1084,5,E06,SINUS BRADYCARDIA,SINUS BRADYCARDIA,,SINUS BRADYCARDIA,,HLT_0644,,HLGT_0500,,CARDIAC DISORDERS,,CARDIAC DISORDERS,,MILD,N,,REMOTE,NOT RECOVERED/NOT RESOLVED,N,N,N,N,N,N,N,2013-06-23,2013-06-23,2013-06-23,46,46
477,CDISCPILOT01,AE,01-708-1084,6,E06,SINUS BRADYCARDIA,SINUS BRADYCARDIA,,SINUS BRADYCARDIA,,HLT_0644,,HLGT_0500,,CARDIAC DISORDERS,,CARDIAC DISORDERS,,MILD,N,,REMOTE,RECOVERED/RESOLVED,N,N,N,N,N,N,N,2013-07-07,2013-06-23,2013-06-23,46,46
478,CDISCPILOT01,AE,01-708-1087,3,E03,DIZZINESS,DIZZINESS,,DIZZINESS,,HLT_0619,,HLGT_0751,,NERVOUS SYSTEM DISORDERS,,NERVOUS SYSTEM DISORDERS,,MILD,N,,POSSIBLE,RECOVERED/RESOLVED,N,N,N,N,N,N,N,2013-02-16,2013-02-04,2013-02-08,106,110
479,CDISCPILOT01,AE,01-708-1087,4,E02,HEADACHE,HEADACHE,,HEADACHE,,HLT_0064,,HLGT_0344,,NERVOUS SYSTEM DISORDERS,,NERVOUS SYSTEM DISORDERS,,MILD,N,,NONE,NOT RECOVERED/NOT RESOLVED,N,N,N,N,N,N,N,2013-02-16,2013-02-16,,118,
480,CDISCPILOT01,AE,01-708-1087,1,E05,HEART RATE IRREGULAR,HEARTBEATS IRREGULAR,,HEART RATE IRREGULAR,,HLT_0765,,HLGT_0140,,INVESTIGATIONS,,INVESTIGATIONS,,MILD,N,,POSSIBLE,NOT RECOVERED/NOT RESOLVED,N,N,N,N,N,N,N,2013-01-19,2013-01-19,2013-01-19,90,90
481,CDISCPILOT01,AE,01-708-1087,2,E05,HEART RATE IRREGULAR,HEARTBEATS IRREGULAR,,HEART RATE IRREGULAR,,HLT_0765,,HLGT_0140,,INVESTIGATIONS,,INVESTIGATIONS,,MILD,N,,POSSIBLE,RECOVERED/RESOLVED,N,N,N,N,N,N,N,2013-02-16,2013-01-19,2013-01-19,90,90
482,CDISCPILOT01,AE,01-708-1087,5,E06,HEART RATE IRREGULAR,HEARTBEATS IRREGULAR,,HEART RATE IRREGULAR,,HLT_0765,,HLGT_0140,,INVESTIGATIONS,,INVESTIGATIONS,,MILD,N,,POSSIBLE,NOT RECOVERED/NOT RESOLVED,N,N,N,N,N,N,N,2013-03-16,2013-03-16,2013-03-16,146,146
483,CDISCPILOT01,AE,01-708-1087,6,E06,HEART RATE IRREGULAR,HEARTBEATS IRREGULAR,,HEART RATE IRREGULAR,,HLT_0765,,HLGT_0140,,INVESTIGATIONS,,INVESTIGATIONS,,MILD,N,,POSSIBLE,RECOVERED/RESOLVED,N,N,N,N,N,N,N,2013-04-10,2013-03-16,2013-03-16,146,146
484,CDISCPILOT01,AE,01-708-1158,1,E05,AGITATION,AGITATION,,AGITATION,,HLT_0140,,HLGT_0170,,PSYCHIATRIC DISORDERS,,PSYCHIATRIC DISORDERS,,MILD,N,,REMOTE,NOT RECOVERED/NOT RESOLVED,N,N,N,N,N,N,N,2014-02-26,2014-02-25,,18,
485,CDISCPILOT01,AE,01-708-1158,2,E07,ERYTHEMA,ERYTHEMA,,ERYTHEMA,,HLT_0284,,HLGT_0192,,SKIN AND SUBCUTANEOUS TISSUE DISORDERS,,SKIN AND SUBCUTANEOUS TISSUE DISORDERS,,MILD,N,,PROBABLE,RECOVERED/RESOLVED,N,N,N,N,N,N,N,2014-03-22,2014-03-22,2014-03-22,43,43
486,CDISCPILOT01,AE,01-708-1178,9,E13,ALCOHOL USE,ALCOHOL USE,,ALCOHOL USE,,HLT_0138,,HLGT_0182,,SOCIAL CIRCUMSTANCES,,SOCIAL CIRCUMSTANCES,,MILD,N,,NONE,RECOVERED/RESOLVED,N,N,N,N,N,N,N,2014-04-06,2014-03-24,2014-03-24,86,86
487,CDISCPILOT01,AE,01-708-1178,3,E06,APPLICATION SITE PRURITUS,APPLICATION SITE ITCHING,,APPLICATION SITE PRURITUS,,HLT_0317,,HLGT_0338,,GENERAL DISORDERS AND ADMINISTRATION SITE CONDITIONS,,GENERAL DISORDERS AND ADMINISTRATION SITE CONDITIONS,,MILD,N,,PROBABLE,NOT RECOVERED/NOT RESOLVED,N,N,N,N,N,N,N,2014-03-09,2014-03-09,2014-04-06,71,99
488,CDISCPILOT01,AE,01-708-1178,5,E06,APPLICATION SITE PRURITUS,APPLICATION SITE ITCHING,,APPLICATION SITE PRURITUS,,HLT_0317,,HLGT_0338,,GENERAL DISORDERS AND ADMINISTRATION SITE CONDITIONS,,GENERAL DISORDERS AND ADMINISTRATION SITE CONDITIONS,,MILD,N,,PROBABLE,RECOVERED/RESOLVED,N,N,N,N,N,N,N,2014-04-06,2014-03-09,2014-04-06,71,99
489,CDISCPILOT01,AE,01-708-1178,7,E10,ATRIAL FIBRILLATION,ATRIAL FIBRILLATION,,ATRIAL FIBRILLATION,,HLT_0365,,HLGT_0012,,CARDIAC DISORDERS,,CARDIAC DISORDERS,,SEVERE,N,,POSSIBLE,RECOVERED/RESOLVED,N,N,N,N,Y,N,N,2014-04-06,2014-03-24,2014-03-26,86,88
490,CDISCPILOT01,AE,01-708-1178,8,E11,CYSTITIS,BLADDER INFECTION,,CYSTITIS,,HLT_0739,,HLGT_0129,,INFECTIONS AND INFESTATIONS,,INFECTIONS AND INFESTATIONS,,MILD,N,,REMOTE,RECOVERED/RESOLVED,N,N,N,N,N,N,N,2014-04-06,2014-03-24,2014-03-28,86,90
491,CDISCPILOT01,AE,01-708-1178,6,E09,DIZZINESS,LIGHT-HEADED,,DIZZINESS,,HLT_0619,,HLGT_0751,,NERVOUS SYSTEM DISORDERS,,NERVOUS SYSTEM DISORDERS,,SEVERE,N,,POSSIBLE,RECOVERED/RESOLVED,N,N,N,N,Y,N,N,2014-04-06,2014-03-24,2014-03-26,86,88
492,CDISCPILOT01,AE,01-708-1178,1,E03,FLANK PAIN,FLANK PAIN,,FLANK PAIN,,HLT_0484,,HLGT_0543,,MUSCULOSKELETAL AND CONNECTIVE TISSUE DISORDERS,,MUSCULOSKELETAL AND CONNECTIVE TISSUE DISORDERS,,MILD,N,,NONE,NOT RECOVERED/NOT RESOLVED,N,N,N,N,N,N,N,2013-12-19,2013-12-19,,-10,
493,CDISCPILOT01,AE,01-708-1178,2,E05,NASOPHARYNGITIS,COLD,,NASOPHARYNGITIS,,HLT_0036,,HLGT_0709,,INFECTIONS AND INFESTATIONS,,INFECTIONS AND INFESTATIONS,,MILD,N,,NONE,RECOVERED/RESOLVED,N,N,N,N,N,N,N,2014-03-09,2014-03-01,2014-03-08,63,70
494,CDISCPILOT01,AE,01-708-1178,4,E08,VENTRICULAR SEPTAL DEFECT,VENTRICULAR SEPTAL DEFECT,,VENTRICULAR SEPTAL DEFECT,,HLT_0589,,HLGT_0747,,"CONGENITAL, FAMILIAL AND GENETIC DISORDERS",,"CONGENITAL, FAMILIAL AND GENETIC DISORDERS",,MILD,N,,NONE,NOT RECOVERED/NOT RESOLVED,N,N,N,N,N,N,N,2014-03-09,2014-03-09,,71,
495,CDISCPILOT01,AE,01-708-1213,1,E03,ATRIAL FIBRILLATION,ATRIAL FIBRILLATION,,ATRIAL FIBRILLATION,,HLT_0365,,HLGT_0012,,CARDIAC DISORDERS,,CARDIAC DISORDERS,,MILD,N,,POSSIBLE,NOT RECOVERED/NOT RESOLVED,N,N,N,N,N,N,N,2013-02-22,2013-02-22,2013-02-22,14,14
496,CDISCPILOT01,AE,01-708-1213,2,E03,ATRIAL FIBRILLATION,ATRIAL FIBRILLATION,,ATRIAL FIBRILLATION,,HLT_0365,,HLGT_0012,,CARDIAC DISORDERS,,CARDIAC DISORDERS,,MILD,N,,POSSIBLE,RECOVERED/RESOLVED,N,N,N,N,N,N,N,2013-02-26,2013-02-22,2013-02-22,14,14
497,CDISCPILOT01,AE,01-708-1216,2,E05,APPLICATION SITE ERYTHEMA,APPLICATION SITE REDNESS,,APPLICATION SITE ERYTHEMA,,HLT_0617,,HLGT_0152,,GENERAL DISORDERS AND ADMINISTRATION SITE CONDITIONS,,GENERAL DISORDERS AND ADMINISTRATION SITE CONDITIONS,,MILD,N,,PROBABLE,NOT RECOVERED/NOT RESOLVED,N,N,N,N,N,N,N,2012-11-08,2012-11-06,2012-12-13,14,51
498,CDISCPILOT01,AE,01-708-1216,4,E05,APPLICATION SITE ERYTHEMA,APPLICATION SITE REDNESS,,APPLICATION SITE ERYTHEMA,,HLT_0617,,HLGT_0152,,GENERAL DISORDERS AND ADMINISTRATION SITE CONDITIONS,,GENERAL DISORDERS AND ADMINISTRATION SITE CONDITIONS,,MILD,N,,PROBABLE,RECOVERED/RESOLVED,N,N,N,N,N,N,N,2013-01-09,2012-11-06,2012-12-13,14,51
499,CDISCPILOT01,AE,01-708-1216,1,E01,APPLICATION SITE PRURITUS,APPLICATION SITE ITCHING,,APPLICATION SITE PRURITUS,,HLT_0317,,HLGT_0338,,GENERAL DISORDERS AND ADMINISTRATION SITE CONDITIONS,,GENERAL DISORDERS AND ADMINISTRATION SITE CONDITIONS,,MILD,N,,PROBABLE,NOT RECOVERED/NOT RESOLVED,N,N,N,N,N,N,N,2012-11-08,2012-11-06,,14,
500,CDISCPILOT01,AE,01-708-1216,3,E02,APPLICATION SITE SWELLING,APPLICATION SITE SWELLING,,APPLICATION SITE SWELLING,,HLT_0105,,HLGT_0236,,GENERAL DISORDERS AND ADMINISTRATION SITE CONDITIONS,,GENERAL DISORDERS AND ADMINISTRATION SITE CONDITIONS,,MILD,N,,PROBABLE,NOT RECOVERED/NOT RESOLVED,N,N,N,N,N,N,N,2012-11-22,2012-11-22,,30,
501,CDISCPILOT01,AE,01-708-1253,2,E04,CONJUNCTIVITIS,CONJUNCTIVITIS,,CONJUNCTIVITIS,,HLT_0584,,HLGT_0335,,EYE DISORDERS,,EYE DISORDERS,,MILD,N,,NONE,NOT RECOVERED/NOT RESOLVED,N,N,N,N,N,N,N,2013-05-07,2013-05-06,2013-05-16,-1,10
502,CDISCPILOT01,AE,01-708-1253,5,E04,CONJUNCTIVITIS,CONJUNCTIVITIS,,CONJUNCTIVITIS,,HLT_0584,,HLGT_0335,,EYE DISORDERS,,EYE DISORDERS,,MILD,N,,NONE,RECOVERED/RESOLVED,N,N,N,N,N,N,N,2013-05-21,2013-05-06,2013-05-16,-1,10
503,CDISCPILOT01,AE,01-708-1253,1,E03,COUGH,COUGH,,COUGH,,HLT_0701,,HLGT_0280,,"RESPIRATORY, THORACIC AND MEDIASTINAL DISORDERS",,"RESPIRATORY, THORACIC AND MEDIASTINAL DISORDERS",,MILD,N,,NONE,NOT RECOVERED/NOT RESOLVED,N,N,N,N,N,N,N,2013-05-07,2013-05-06,2013-05-16,-1,10
504,CDISCPILOT01,AE,01-708-1253,4,E03,COUGH,COUGH,,COUGH,,HLT_0701,,HLGT_0280,,"RESPIRATORY, THORACIC AND MEDIASTINAL DISORDERS",,"RESPIRATORY, THORACIC AND MEDIASTINAL DISORDERS",,MILD,N,,NONE,RECOVERED/RESOLVED,N,N,N,N,N,N,N,2013-05-21,2013-05-06,2013-05-16,-1,10
505,CDISCPILOT01,AE,01-708-1253,7,E05,DIZZINESS,DIZZINESS,,DIZZINESS,,HLT_0619,,HLGT_0751,,NERVOUS SYSTEM DISORDERS,,NERVOUS SYSTEM DISORDERS,,MILD,N,,POSSIBLE,NOT RECOVERED/NOT RESOLVED,N,N,N,N,N,N,N,2013-06-07,2013-06-07,2013-06-07,32,32
506,CDISCPILOT01,AE,01-708-1253,8,E05,DIZZINESS,DIZZINESS,,DIZZINESS,,HLT_0619,,HLGT_0751,,NERVOUS SYSTEM DISORDERS,,NERVOUS SYSTEM DISORDERS,,MILD,N,,POSSIBLE,RECOVERED/RESOLVED,N,N,N,N,N,N,N,2013-06-09,2013-06-07,2013-06-07,32,32
507,CDISCPILOT01,AE,01-708-1253,3,E02,HEART RATE INCREASED,HEART RATE INCREASED,,HEART RATE INCREASED,,HLT_0646,,HLGT_0673,,INVESTIGATIONS,,INVESTIGATIONS,,MILD,N,,POSSIBLE,NOT RECOVERED/NOT RESOLVED,N,N,N,N,N,N,N,2013-05-07,2013-05-07,2013-05-10,1,4
508,CDISCPILOT01,AE,01-708-1253,6,E02,HEART RATE INCREASED,HEART RATE INCREASED,,HEART RATE INCREASED,,HLT_0646,,HLGT_0673,,INVESTIGATIONS,,INVESTIGATIONS,,MILD,N,,POSSIBLE,RECOVERED/RESOLVED,N,N,N,N,N,N,N,2013-05-21,2013-05-07,2013-05-10,1,4
509,CDISCPILOT01,AE,01-708-1272,4,E11,APPLICATION SITE DERMATITIS,APPLICATION SITE RASH,,APPLICATION SITE DERMATITIS,,HLT_0343,,HLGT_0241,,GENERAL DISORDERS AND ADMINISTRATION SITE CONDITIONS,,GENERAL DISORDERS AND ADMINISTRATION SITE CONDITIONS,,MILD,N,,PROBABLE,RECOVERED/RESOLVED,N,N,N,N,N,N,N,2013-03-07,2013-02-27,2013-02-27,22,22
510,CDISCPILOT01,AE,01-708-1272,5,E08,COUGH,COUGH,,COUGH,,HLT_0701,,HLGT_0280,,"RESPIRATORY, THORACIC AND MEDIASTINAL DISORDERS",,"RESPIRATORY, THORACIC AND MEDIASTINAL DISORDERS",,MILD,N,,NONE,NOT RECOVERED/NOT RESOLVED,N,N,N,N,N,N,N,2013-03-07,2013-03-01,2013-03-07,24,30
511,CDISCPILOT01,AE,01-708-1272,8,E08,COUGH,COUGH,,COUGH,,HLT_0701,,HLGT_0280,,"RESPIRATORY, THORACIC AND MEDIASTINAL DISORDERS",,"RESPIRATORY, THORACIC AND MEDIASTINAL DISORDERS",,MILD,N,,NONE,RECOVERED/RESOLVED,N,N,N,N,N,N,N,2013-03-09,2013-03-01,2013-03-07,24,30
512,CDISCPILOT01,AE,01-708-1272,1,E12,DIARRHOEA,DIARRHEA,,DIARRHOEA,,HLT_0148,,HLGT_0588,,GASTROINTESTINAL DISORDERS,,GASTROINTESTINAL DISORDERS,,MILD,N,,NONE,RECOVERED/RESOLVED,N,N,N,N,N,N,N,2013-02-21,2013-02-11,2013-02-11,6,6
513,CDISCPILOT01,AE,01-708-1272,7,E10,HEADACHE,HEADACHE,,HEADACHE,,HLT_0064,,HLGT_0344,,NERVOUS SYSTEM DISORDERS,,NERVOUS SYSTEM DISORDERS,,MILD,N,,NONE,NOT RECOVERED/NOT RESOLVED,N,N,N,N,N,N,N,2013-03-07,2013-03-07,2013-03-07,30,30
514,CDISCPILOT01,AE,01-708-1272,10,E10,HEADACHE,HEADACHE,,HEADACHE,,HLT_0064,,HLGT_0344,,NERVOUS SYSTEM DISORDERS,,NERVOUS SYSTEM DISORDERS,,MILD,N,,NONE,RECOVERED/RESOLVED,N,N,N,N,N,N,N,2013-03-09,2013-03-07,2013-03-07,30,30
515,CDISCPILOT01,AE,01-708-1272,11,E14,HOT FLUSH,HOT FLASHES,,HOT FLUSH,,HLT_0737,,HLGT_0773,,VASCULAR DISORDERS,,VASCULAR DISORDERS,,MILD,N,,NONE,RECOVERED/RESOLVED,N,N,N,N,N,N,N,2013-03-20,2013-03-19,2013-03-19,42,42
516,CDISCPILOT01,AE,01-708-1272,2,E13,MUSCLE SPASMS,LEG CRAMPS,,MUSCLE SPASMS,,HLT_0078,,HLGT_0750,,MUSCULOSKELETAL AND CONNECTIVE TISSUE DISORDERS,,MUSCULOSKELETAL AND CONNECTIVE TISSUE DISORDERS,,SEVERE,N,,NONE,RECOVERED/RESOLVED,N,N,N,N,N,N,N,2013-02-21,2013-02-18,2013-02-18,13,13
517,CDISCPILOT01,AE,01-708-1272,6,E09,NASOPHARYNGITIS,COLD,,NASOPHARYNGITIS,,HLT_0036,,HLGT_0709,,INFECTIONS AND INFESTATIONS,,INFECTIONS AND INFESTATIONS,,MILD,N,,NONE,NOT RECOVERED/NOT RESOLVED,N,N,N,N,N,N,N,2013-03-07,2013-03-01,2013-03-07,24,30
518,CDISCPILOT01,AE,01-708-1272,9,E09,NASOPHARYNGITIS,COLD,,NASOPHARYNGITIS,,HLT_0036,,HLGT_0709,,INFECTIONS AND INFESTATIONS,,INFECTIONS AND INFESTATIONS,,MILD,N,,NONE,RECOVERED/RESOLVED,N,N,N,N,N,N,N,2013-03-09,2013-03-01,2013-03-07,24,30
519,CDISCPILOT01,AE,01-708-1272,3,E05,VENTRICULAR EXTRASYSTOLES,VENTRICULAR BIGEMINY,,VENTRICULAR EXTRASYSTOLES,,HLT_0050,,HLGT_0594,,CARDIAC DISORDERS,,CARDIAC DISORDERS,,MILD,N,,REMOTE,NOT RECOVERED/NOT RESOLVED,N,N,N,N,N,N,N,2013-02-21,2013-02-21,2013-03-20,16,43
520,CDISCPILOT01,AE,01-708-1272,12,E05,VENTRICULAR EXTRASYSTOLES,VENTRICULAR BIGEMINY,,VENTRICULAR EXTRASYSTOLES,,HLT_0050,,HLGT_0594,,CARDIAC DISORDERS,,CARDIAC DISORDERS,,MILD,N,,REMOTE,RECOVERED/RESOLVED,N,N,N,N,N,N,N,2013-04-04,2013-02-21,2013-03-20,16,43
521,CDISCPILOT01,AE,01-708-1286,3,E08,ABDOMINAL PAIN,ABDOMINAL PAIN,,ABDOMINAL PAIN,,HLT_0217,,HLGT_0419,,GASTROINTESTINAL DISORDERS,,GASTROINTESTINAL DISORDERS,,MILD,N,,REMOTE,RECOVERED/RESOLVED,N,N,N,N,N,N,N,2014-02-23,2014-02-18,2014-02-18,162,162
522,CDISCPILOT01,AE,01-708-1286,1,E06,APPLICATION SITE PRURITUS,APPLICATION SITE ITCHING,,APPLICATION SITE PRURITUS,,HLT_0317,,HLGT_0338,,GENERAL DISORDERS AND ADMINISTRATION SITE CONDITIONS,,GENERAL DISORDERS AND ADMINISTRATION SITE CONDITIONS,,MILD,N,,PROBABLE,NOT RECOVERED/NOT RESOLVED,N,N,N,N,N,N,N,2013-09-23,2013-09-12,,3,
523,CDISCPILOT01,AE,01-708-1286,4,E09,CONSTIPATION,CONSTIPATION,,CONSTIPATION,,HLT_0402,,HLGT_0635,,GASTROINTESTINAL DISORDERS,,GASTROINTESTINAL DISORDERS,,MILD,N,,REMOTE,RECOVERED/RESOLVED,N,N,N,N,N,N,N,2014-02-23,2014-02-18,2014-02-18,162,162
524,CDISCPILOT01,AE,01-708-1286,2,E04,MYOCARDIAL INFARCTION,INFERIOR MYOCARDIAL INFARCTION,,MYOCARDIAL INFARCTION,,HLT_0649,,HLGT_0688,,CARDIAC DISORDERS,,CARDIAC DISORDERS,,MILD,N,,REMOTE,NOT RECOVERED/NOT RESOLVED,N,N,N,N,N,N,N,2013-09-23,2013-09-23,,14,
525,CDISCPILOT01,AE,01-708-1296,3,E04,APPLICATION SITE PRURITUS,APPLICATION SITE ITCHING,,APPLICATION SITE PRURITUS,,HLT_0317,,HLGT_0338,,GENERAL DISORDERS AND ADMINISTRATION SITE CONDITIONS,,GENERAL DISORDERS AND ADMINISTRATION SITE CONDITIONS,,MILD,N,,PROBABLE,NOT RECOVERED/NOT RESOLVED,N,N,N,N,N,N,N,2013-09-04,2013-09-04,2013-09-18,83,97
526,CDISCPILOT01,AE,01-708-1296,4,E04,APPLICATION SITE PRURITUS,APPLICATION SITE ITCHING,,APPLICATION SITE PRURITUS,,HLT_0317,,HLGT_0338,,GENERAL DISORDERS AND ADMINISTRATION SITE CONDITIONS,,GENERAL DISORDERS AND ADMINISTRATION SITE CONDITIONS,,MILD,N,,PROBABLE,RECOVERED/RESOLVED,N,N,N,N,N,N,N,2013-10-02,2013-09-04,2013-09-18,83,97
527,CDISCPILOT01,AE,01-708-1296,5,E05,APPLICATION SITE VESICLES,APPLICATION SITE BLISTER,,APPLICATION SITE VESICLES,,HLT_0180,,HLGT_0576,,GENERAL DISORDERS AND ADMINISTRATION SITE CONDITIONS,,GENERAL DISORDERS AND ADMINISTRATION SITE CONDITIONS,,MILD,N,,PROBABLE,NOT RECOVERED/NOT RESOLVED,N,N,N,N,N,N,N,2013-10-30,2013-10-04,2013-10-30,113,139
528,CDISCPILOT01,AE,01-708-1296,6,E05,APPLICATION SITE VESICLES,APPLICATION SITE BLISTER,,APPLICATION SITE VESICLES,,HLT_0180,,HLGT_0576,,GENERAL DISORDERS AND ADMINISTRATION SITE CONDITIONS,,GENERAL DISORDERS AND ADMINISTRATION SITE CONDITIONS,,MILD,N,,PROBABLE,RECOVERED/RESOLVED,N,N,N,N,N,N,N,2013-11-27,2013-10-04,2013-10-30,113,139
529,CDISCPILOT01,AE,01-708-1296,1,E03,ATRIAL HYPERTROPHY,LEFT ATRIAL HYPERTROPHY,,ATRIAL HYPERTROPHY,,HLT_0271,,HLGT_0067,,CARDIAC DISORDERS,,CARDIAC DISORDERS,,MILD,N,,REMOTE,NOT RECOVERED/NOT RESOLVED,N,N,N,N,N,N,N,2013-06-27,2013-06-27,2013-06-27,14,14
530,CDISCPILOT01,AE,01-708-1296,2,E03,ATRIAL HYPERTROPHY,LEFT ATRIAL HYPERTROPHY,,ATRIAL HYPERTROPHY,,HLT_0271,,HLGT_0067,,CARDIAC DISORDERS,,CARDIAC DISORDERS,,MILD,N,,REMOTE,RECOVERED/RESOLVED,N,N,N,N,N,N,N,2013-07-10,2013-06-27,2013-06-27,14,14
531,CDISCPILOT01,AE,01-708-1296,7,E07,PAIN IN EXTREMITY,PAIN IN THIGH,,PAIN IN EXTREMITY,,HLT_0213,,HLGT_0764,,MUSCULOSKELETAL AND CONNECTIVE TISSUE DISORDERS,,MUSCULOSKELETAL AND CONNECTIVE TISSUE DISORDERS,,MILD,N,,REMOTE,RECOVERED/RESOLVED,N,N,N,N,N,N,N,2013-12-12,2013-12-07,2013-12-07,177,177
532,CDISCPILOT01,AE,01-708-1297,1,E02,APPLICATION SITE PRURITUS,APPLICATION SITE ITCHING,,APPLICATION SITE PRURITUS,,HLT_0317,,HLGT_0338,,GENERAL DISORDERS AND ADMINISTRATION SITE CONDITIONS,,GENERAL DISORDERS AND ADMINISTRATION SITE CONDITIONS,,MILD,N,,PROBABLE,NOT RECOVERED/NOT RESOLVED,N,N,N,N,N,N,N,2013-04-16,2013-04-02,,68,
533,CDISCPILOT01,AE,01-708-1297,2,E03,APPLICATION SITE SWELLING,APPLICATION SITE SWELLING,,APPLICATION SITE SWELLING,,HLT_0105,,HLGT_0236,,GENERAL DISORDERS AND ADMINISTRATION SITE CONDITIONS,,GENERAL DISORDERS AND ADMINISTRATION SITE CONDITIONS,,MILD,N,,PROBABLE,NOT RECOVERED/NOT RESOLVED,N,N,N,N,N,N,N,2013-04-16,2013-04-02,,68,
534,CDISCPILOT01,AE,01-708-1297,3,E04,SINUS BRADYCARDIA,SINUS BRADYCARDIA,,SINUS BRADYCARDIA,,HLT_0644,,HLGT_0500,,CARDIAC DISORDERS,,CARDIAC DISORDERS,,MILD,N,,REMOTE,NOT RECOVERED/NOT RESOLVED,N,N,N,N,N,N,N,2013-05-08,2013-05-08,,104,
535,CDISCPILOT01,AE,01-708-1316,2,E04,APPLICATION SITE ERYTHEMA,APPLICATION SITE REDNESS,,APPLICATION SITE ERYTHEMA,,HLT_0617,,HLGT_0152,,GENERAL DISORDERS AND ADMINISTRATION SITE CONDITIONS,,GENERAL DISORDERS AND ADMINISTRATION SITE CONDITIONS,,MILD,N,,PROBABLE,NOT RECOVERED/NOT RESOLVED,N,N,N,N,N,N,N,2014-02-15,2014-02-15,,177,
536,CDISCPILOT01,AE,01-708-1316,1,E05,HEADACHE,HEADACHE,,HEADACHE,,HLT_0064,,HLGT_0344,,NERVOUS SYSTEM DISORDERS,,NERVOUS SYSTEM DISORDERS,,MILD,N,,POSSIBLE,NOT RECOVERED/NOT RESOLVED,N,N,N,N,N,N,N,2014-02-15,2014-01-29,,160,
537,CDISCPILOT01,AE,01-708-1336,5,E11,APPLICATION SITE ERYTHEMA,APPLICATION SITE REDNESS,,APPLICATION SITE ERYTHEMA,,HLT_0617,,HLGT_0152,,GENERAL DISORDERS AND ADMINISTRATION SITE CONDITIONS,,GENERAL DISORDERS AND ADMINISTRATION SITE CONDITIONS,,MILD,N,,PROBABLE,NOT RECOVERED/NOT RESOLVED,N,N,N,N,N,N,N,2013-04-23,2013-04-10,2013-06-05,125,181
538,CDISCPILOT01,AE,01-708-1336,7,E11,APPLICATION SITE ERYTHEMA,APPLICATION SITE REDNESS,,APPLICATION SITE ERYTHEMA,,HLT_0617,,HLGT_0152,,GENERAL DISORDERS AND ADMINISTRATION SITE CONDITIONS,,GENERAL DISORDERS AND ADMINISTRATION SITE CONDITIONS,,MILD,N,,PROBABLE,RECOVERED/RESOLVED,N,N,N,N,N,N,N,2013-07-05,2013-04-10,2013-06-05,125,181
539,CDISCPILOT01,AE,01-708-1336,2,E08,APPLICATION SITE PRURITUS,APPLICATION SITE ITCHING,,APPLICATION SITE PRURITUS,,HLT_0317,,HLGT_0338,,GENERAL DISORDERS AND ADMINISTRATION SITE CONDITIONS,,GENERAL DISORDERS AND ADMINISTRATION SITE CONDITIONS,,MILD,N,,PROBABLE,RECOVERED/RESOLVED,N,N,N,N,N,N,N,2013-01-15,2013-01-12,2013-01-12,37,37
540,CDISCPILOT01,AE,01-708-1336,4,E10,APPLICATION SITE PRURITUS,APPLICATION SITE ITCHING,,APPLICATION SITE PRURITUS,,HLT_0317,,HLGT_0338,,GENERAL DISORDERS AND ADMINISTRATION SITE CONDITIONS,,GENERAL DISORDERS AND ADMINISTRATION SITE CONDITIONS,,MILD,N,,PROBABLE,NOT RECOVERED/NOT RESOLVED,N,N,N,N,N,N,N,2013-04-23,2013-04-10,2013-06-05,125,181
541,CDISCPILOT01,AE,01-708-1336,6,E10,APPLICATION SITE PRURITUS,APPLICATION SITE ITCHING,,APPLICATION SITE PRURITUS,,HLT_0317,,HLGT_0338,,GENERAL DISORDERS AND ADMINISTRATION SITE CONDITIONS,,GENERAL DISORDERS AND ADMINISTRATION SITE CONDITIONS,,MILD,N,,PROBABLE,RECOVERED/RESOLVED,N,N,N,N,N,N,N,2013-07-05,2013-04-10,2013-06-05,125,181
542,CDISCPILOT01,AE,01-708-1336,1,E06,DIZZINESS,LIGHTHEADEDNESS,,DIZZINESS,,HLT_0619,,HLGT_0751,,NERVOUS SYSTEM DISORDERS,,NERVOUS SYSTEM DISORDERS,,MILD,N,,POSSIBLE,RECOVERED/RESOLVED,N,N,N,N,N,N,N,2012-12-21,2012-12-18,2012-12-18,12,12
543,CDISCPILOT01,AE,01-708-1336,3,E09,DIZZINESS,LIGHT HEADEDNESS,,DIZZINESS,,HLT_0619,,HLGT_0751,,NERVOUS SYSTEM DISORDERS,,NERVOUS SYSTEM DISORDERS,,MILD,N,,POSSIBLE,RECOVERED/RESOLVED,N,N,N,N,N,N,N,2013-02-27,2013-02-02,2013-02-02,58,58
544,CDISCPILOT01,AE,01-708-1347,3,E04,APPLICATION SITE ERYTHEMA,APPLICATION SITE REDNESS,,APPLICATION SITE ERYTHEMA,,HLT_0617,,HLGT_0152,,GENERAL DISORDERS AND ADMINISTRATION SITE CONDITIONS,,GENERAL DISORDERS AND ADMINISTRATION SITE CONDITIONS,,MODERATE,N,,PROBABLE,NOT RECOVERED/NOT RESOLVED,N,N,N,N,N,N,N,2013-06-13,2013-06-13,2013-06-25,55,67
545,CDISCPILOT01,AE,01-708-1347,7,E04,APPLICATION SITE ERYTHEMA,APPLICATION SITE REDNESS,,APPLICATION SITE ERYTHEMA,,HLT_0617,,HLGT_0152,,GENERAL DISORDERS AND ADMINISTRATION SITE CONDITIONS,,GENERAL DISORDERS AND ADMINISTRATION SITE CONDITIONS,,MODERATE,N,,PROBABLE,RECOVERED/RESOLVED,N,N,N,N,N,N,N,2013-08-02,2013-06-13,2013-06-25,55,67
546,CDISCPILOT01,AE,01-708-1347,4,E05,APPLICATION SITE SWELLING,APPLICATION SITE SWELLING,,APPLICATION SITE SWELLING,,HLT_0105,,HLGT_0236,,GENERAL DISORDERS AND ADMINISTRATION SITE CONDITIONS,,GENERAL DISORDERS AND ADMINISTRATION SITE CONDITIONS,,MODERATE,N,,PROBABLE,NOT RECOVERED/NOT RESOLVED,N,N,N,N,N,N,N,2013-06-13,2013-06-13,2013-06-25,55,67
547,CDISCPILOT01,AE,01-708-1347,8,E05,APPLICATION SITE SWELLING,APPLICATION SITE SWELLING,,APPLICATION SITE SWELLING,,HLT_0105,,HLGT_0236,,GENERAL DISORDERS AND ADMINISTRATION SITE CONDITIONS,,GENERAL DISORDERS AND ADMINISTRATION SITE CONDITIONS,,MODERATE,N,,PROBABLE,RECOVERED/RESOLVED,N,N,N,N,N,N,N,2013-08-02,2013-06-13,2013-06-25,55,67
548,CDISCPILOT01,AE,01-708-1347,2,E03,ERYTHEMA,ERYTHEMA,,ERYTHEMA,,HLT_0284,,HLGT_0192,,SKIN AND SUBCUTANEOUS TISSUE DISORDERS,,SKIN AND SUBCUTANEOUS TISSUE DISORDERS,,MODERATE,N,,PROBABLE,NOT RECOVERED/NOT RESOLVED,N,N,N,N,N,N,N,2013-06-13,2013-06-13,2013-06-25,55,67
549,CDISCPILOT01,AE,01-708-1347,6,E03,ERYTHEMA,ERYTHEMA,,ERYTHEMA,,HLT_0284,,HLGT_0192,,SKIN AND SUBCUTANEOUS TISSUE DISORDERS,,SKIN AND SUBCUTANEOUS TISSUE DISORDERS,,MODERATE,N,,PROBABLE,RECOVERED/RESOLVED,N,N,N,N,N,N,N,2013-08-02,2013-06-13,2013-06-25,55,67
550,CDISCPILOT01,AE,01-708-1347,1,E02,PRURITUS,ITCHING,,PRURITUS,,HLT_0778,,HLGT_0695,,SKIN AND SUBCUTANEOUS TISSUE DISORDERS,,SKIN AND SUBCUTANEOUS TISSUE DISORDERS,,MILD,N,,PROBABLE,NOT RECOVERED/NOT RESOLVED,N,N,N,N,N,N,N,2013-06-13,2013-06-13,2013-06-25,55,67
551,CDISCPILOT01,AE,01-708-1347,5,E02,PRURITUS,ITCHING,,PRURITUS,,HLT_0778,,HLGT_0695,,SKIN AND SUBCUTANEOUS TISSUE DISORDERS,,SKIN AND SUBCUTANEOUS TISSUE DISORDERS,,MILD,N,,PROBABLE,RECOVERED/RESOLVED,N,N,N,N,N,N,N,2013-08-02,2013-06-13,2013-06-25,55,67
552,CDISCPILOT01,AE,01-708-1348,3,E05,APPLICATION SITE PRURITUS,APPLICATION SITE ITCHING,,APPLICATION SITE PRURITUS,,HLT_0317,,HLGT_0338,,GENERAL DISORDERS AND ADMINISTRATION SITE CONDITIONS,,GENERAL DISORDERS AND ADMINISTRATION SITE CONDITIONS,,MILD,N,,PROBABLE,NOT RECOVERED/NOT RESOLVED,N,N,N,N,N,N,N,2013-12-01,2013-12-01,,119,
553,CDISCPILOT01,AE,01-708-1348,1,E04,MYOCARDIAL INFARCTION,ANTEROSEPTAL INFARCTION,,MYOCARDIAL INFARCTION,,HLT_0649,,HLGT_0688,,CARDIAC DISORDERS,,CARDIAC DISORDERS,,MILD,N,,POSSIBLE,NOT RECOVERED/NOT RESOLVED,N,N,N,N,N,N,N,2013-08-19,2013-08-18,2013-08-31,14,27
554,CDISCPILOT01,AE,01-708-1348,2,E04,MYOCARDIAL INFARCTION,ANTEROSEPTAL INFARCTION,,MYOCARDIAL INFARCTION,,HLT_0649,,HLGT_0688,,CARDIAC DISORDERS,,CARDIAC DISORDERS,,MILD,N,,POSSIBLE,RECOVERED/RESOLVED,N,N,N,N,N,N,N,2013-09-02,2013-08-18,2013-08-31,14,27
555,CDISCPILOT01,AE,01-708-1353,1,E09,DIZZINESS,DIZZINESS,,DIZZINESS,,HLT_0619,,HLGT_0751,,NERVOUS SYSTEM DISORDERS,,NERVOUS SYSTEM DISORDERS,,MILD,N,,REMOTE,NOT RECOVERED/NOT RESOLVED,N,N,N,N,N,N,N,2013-08-18,2013-08-18,2013-09-10,46,69
556,CDISCPILOT01,AE,01-708-1353,2,E09,DIZZINESS,DIZZINESS,,DIZZINESS,,HLT_0619,,HLGT_0751,,NERVOUS SYSTEM DISORDERS,,NERVOUS SYSTEM DISORDERS,,MILD,N,,REMOTE,RECOVERED/RESOLVED,N,N,N,N,N,N,N,2013-09-10,2013-08-18,2013-09-10,46,69
557,CDISCPILOT01,AE,01-708-1353,3,E10,HYPOTENSION,LOW BLOOD PRESSURE,,HYPOTENSION,,HLT_0761,,HLGT_0412,,VASCULAR DISORDERS,,VASCULAR DISORDERS,,MILD,N,,POSSIBLE,RECOVERED/RESOLVED,N,N,N,N,N,N,N,2013-09-10,2013-08-28,2013-09-10,56,69
558,CDISCPILOT01,AE,01-708-1372,1,E03,ATRIOVENTRICULAR BLOCK SECOND DEGREE,AV BLOCK SECOND DEGREE,,ATRIOVENTRICULAR BLOCK SECOND DEGREE,,HLT_0415,,HLGT_0086,,CARDIAC DISORDERS,,CARDIAC DISORDERS,,MODERATE,N,,NONE,NOT RECOVERED/NOT RESOLVED,N,N,N,N,N,N,N,2013-04-10,2013-04-10,,-2,
559,CDISCPILOT01,AE,01-708-1406,1,E03,OEDEMA PERIPHERAL,SWELLING OF LEGS,,OEDEMA PERIPHERAL,,HLT_0661,,HLGT_0137,,GENERAL DISORDERS AND ADMINISTRATION SITE CONDITIONS,,GENERAL DISORDERS AND ADMINISTRATION SITE CONDITIONS,,MILD,N,,NONE,NOT RECOVERED/NOT RESOLVED,N,N,N,N,N,N,N,2014-06-16,2014-06-16,,173,
560,CDISCPILOT01,AE,01-708-1406,2,E04,OEDEMA PERIPHERAL,SWELLING OF LEGS,,OEDEMA PERIPHERAL,,HLT_0661,,HLGT_0137,,GENERAL DISORDERS AND ADMINISTRATION SITE CONDITIONS,,GENERAL DISORDERS AND ADMINISTRATION SITE CONDITIONS,,MILD,N,,NONE,NOT RECOVERED/NOT RESOLVED,N,N,N,N,N,N,N,2014-06-16,2014-06-16,,173,
561,CDISCPILOT01,AE,01-708-1428,3,E02,APPLICATION SITE ERYTHEMA,APPLICATION SITE REDNESS,,APPLICATION SITE ERYTHEMA,,HLT_0617,,HLGT_0152,,GENERAL DISORDERS AND ADMINISTRATION SITE CONDITIONS,,GENERAL DISORDERS AND ADMINISTRATION SITE CONDITIONS,,MODERATE,N,,PROBABLE,NOT RECOVERED/NOT RESOLVED,N,N,N,N,N,N,N,2013-12-10,2013-12-10,2013-12-21,32,43
562,CDISCPILOT01,AE,01-708-1428,6,E02,APPLICATION SITE ERYTHEMA,APPLICATION SITE REDNESS,,APPLICATION SITE ERYTHEMA,,HLT_0617,,HLGT_0152,,GENERAL DISORDERS AND ADMINISTRATION SITE CONDITIONS,,GENERAL DISORDERS AND ADMINISTRATION SITE CONDITIONS,,SEVERE,N,,PROBABLE,RECOVERED/RESOLVED,N,N,N,N,N,N,N,2013-12-26,2013-12-10,2013-12-21,32,43
563,CDISCPILOT01,AE,01-708-1428,2,E01,APPLICATION SITE PRURITUS,APPLICATION SITE ITCHING,,APPLICATION SITE PRURITUS,,HLT_0317,,HLGT_0338,,GENERAL DISORDERS AND ADMINISTRATION SITE CONDITIONS,,GENERAL DISORDERS AND ADMINISTRATION SITE CONDITIONS,,MODERATE,N,,PROBABLE,NOT RECOVERED/NOT RESOLVED,N,N,N,N,N,N,N,2013-12-10,2013-12-10,2013-12-21,32,43
564,CDISCPILOT01,AE,01-708-1428,5,E01,APPLICATION SITE PRURITUS,APPLICATION SITE ITCHING,,APPLICATION SITE PRURITUS,,HLT_0317,,HLGT_0338,,GENERAL DISORDERS AND ADMINISTRATION SITE CONDITIONS,,GENERAL DISORDERS AND ADMINISTRATION SITE CONDITIONS,,SEVERE,N,,PROBABLE,RECOVERED/RESOLVED,N,N,N,N,N,N,N,2013-12-26,2013-12-10,2013-12-21,32,43
565,CDISCPILOT01,AE,01-708-1428,4,E03,APPLICATION SITE WARMTH,APPLICATION SITE WARMTH,,APPLICATION SITE WARMTH,,HLT_0260,,HLGT_0301,,GENERAL DISORDERS AND ADMINISTRATION SITE CONDITIONS,,GENERAL DISORDERS AND ADMINISTRATION SITE CONDITIONS,,MODERATE,N,,PROBABLE,NOT RECOVERED/NOT RESOLVED,N,N,N,N,N,N,N,2013-12-10,2013-12-10,2013-12-21,32,43
566,CDISCPILOT01,AE,01-708-1428,7,E03,APPLICATION SITE WARMTH,APPLICATION SITE WARMTH,,APPLICATION SITE WARMTH,,HLT_0260,,HLGT_0301,,GENERAL DISORDERS AND ADMINISTRATION SITE CONDITIONS,,GENERAL DISORDERS AND ADMINISTRATION SITE CONDITIONS,,SEVERE,N,,PROBABLE,RECOVERED/RESOLVED,N,N,N,N,N,N,N,2013-12-26,2013-12-10,2013-12-21,32,43
567,CDISCPILOT01,AE,01-708-1428,1,E04,EPISTAXIS,NOSE BLEED,,EPISTAXIS,,HLT_0386,,HLGT_0577,,"RESPIRATORY, THORACIC AND MEDIASTINAL DISORDERS",,"RESPIRATORY, THORACIC AND MEDIASTINAL DISORDERS",,MILD,N,,REMOTE,RECOVERED/RESOLVED,N,N,N,N,N,N,N,2013-11-23,2013-11-22,2013-11-22,14,14
568,CDISCPILOT01,AE,01-709-1007,1,E02,APPLICATION SITE DERMATITIS,APPLICATION SITE RASH,,APPLICATION SITE DERMATITIS,,HLT_0343,,HLGT_0241,,GENERAL DISORDERS AND ADMINISTRATION SITE CONDITIONS,,GENERAL DISORDERS AND ADMINISTRATION SITE CONDITIONS,,MILD,N,,PROBABLE,NOT RECOVERED/NOT RESOLVED,N,N,N,N,N,N,N,2012-08-18,2012-08-16,2012-08-19,17,20
569,CDISCPILOT01,AE,01-709-1007,2,E02,APPLICATION SITE DERMATITIS,APPLICATION SITE RASH,,APPLICATION SITE DERMATITIS,,HLT_0343,,HLGT_0241,,GENERAL DISORDERS AND ADMINISTRATION SITE CONDITIONS,,GENERAL DISORDERS AND ADMINISTRATION SITE CONDITIONS,,MILD,N,,PROBABLE,RECOVERED/RESOLVED,N,N,N,N,N,N,N,2012-09-01,2012-08-16,2012-08-19,17,20
570,CDISCPILOT01,AE,01-709-1007,3,E03,APPLICATION SITE DERMATITIS,APPLICATION SITE RASH,,APPLICATION SITE DERMATITIS,,HLT_0343,,HLGT_0241,,GENERAL DISORDERS AND ADMINISTRATION SITE CONDITIONS,,GENERAL DISORDERS AND ADMINISTRATION SITE CONDITIONS,,SEVERE,N,,PROBABLE,NOT RECOVERED/NOT RESOLVED,N,N,N,N,N,N,N,2012-09-01,2012-08-21,,22,
571,CDISCPILOT01,AE,01-709-1007,4,E04,DIARRHOEA,DIARRHEA,,DIARRHOEA,,HLT_0148,,HLGT_0588,,GASTROINTESTINAL DISORDERS,,GASTROINTESTINAL DISORDERS,,MILD,N,,POSSIBLE,RECOVERED/RESOLVED,N,N,N,N,N,N,N,2012-09-01,2012-08-30,2012-08-30,31,31
572,CDISCPILOT01,AE,01-709-1020,3,E03,ABDOMINAL PAIN,ABDOMINAL PAIN,,ABDOMINAL PAIN,,HLT_0217,,HLGT_0419,,GASTROINTESTINAL DISORDERS,,GASTROINTESTINAL DISORDERS,,MILD,N,,POSSIBLE,RECOVERED/RESOLVED,N,N,N,N,N,N,N,2013-01-12,2013-01-03,2013-01-11,34,42
573,CDISCPILOT01,AE,01-709-1020,1,E01,APPLICATION SITE DERMATITIS,APPLICATION SITE RASH,,APPLICATION SITE DERMATITIS,,HLT_0343,,HLGT_0241,,GENERAL DISORDERS AND ADMINISTRATION SITE CONDITIONS,,GENERAL DISORDERS AND ADMINISTRATION SITE CONDITIONS,,MILD,N,,PROBABLE,NOT RECOVERED/NOT RESOLVED,N,N,N,N,N,N,N,2012-12-27,2012-12-27,,27,
574,CDISCPILOT01,AE,01-709-1020,4,E04,APPLICATION SITE PRURITUS,APPLICATION SITE ITCHING,,APPLICATION SITE PRURITUS,,HLT_0317,,HLGT_0338,,GENERAL DISORDERS AND ADMINISTRATION SITE CONDITIONS,,GENERAL DISORDERS AND ADMINISTRATION SITE CONDITIONS,,MILD,N,,PROBABLE,NOT RECOVERED/NOT RESOLVED,N,N,N,N,N,N,N,2013-01-26,2013-01-15,,46,
575,CDISCPILOT01,AE,01-709-1020,2,E02,DIARRHOEA,DIARRHEA,,DIARRHOEA,,HLT_0148,,HLGT_0588,,GASTROINTESTINAL DISORDERS,,GASTROINTESTINAL DISORDERS,,MILD,N,,POSSIBLE,RECOVERED/RESOLVED,N,N,N,N,N,N,N,2013-01-12,2013-01-03,2013-01-11,34,42
576,CDISCPILOT01,AE,01-709-1029,2,E08,APPLICATION SITE ERYTHEMA,APPLICATION SITE REDNESS,,APPLICATION SITE ERYTHEMA,,HLT_0617,,HLGT_0152,,GENERAL DISORDERS AND ADMINISTRATION SITE CONDITIONS,,GENERAL DISORDERS AND ADMINISTRATION SITE CONDITIONS,,MILD,N,,PROBABLE,NOT RECOVERED/NOT RESOLVED,N,N,N,N,N,N,N,2013-01-21,2013-01-17,,24,
577,CDISCPILOT01,AE,01-709-1029,10,E11,COUGH,COUGH,,COUGH,,HLT_0701,,HLGT_0280,,"RESPIRATORY, THORACIC AND MEDIASTINAL DISORDERS",,"RESPIRATORY, THORACIC AND MEDIASTINAL DISORDERS",,MILD,N,,NONE,NOT RECOVERED/NOT RESOLVED,N,N,N,N,N,N,N,2013-05-15,2013-05-12,2013-05-19,139,146
578,CDISCPILOT01,AE,01-709-1029,13,E11,COUGH,COUGH,,COUGH,,HLT_0701,,HLGT_0280,,"RESPIRATORY, THORACIC AND MEDIASTINAL DISORDERS",,"RESPIRATORY, THORACIC AND MEDIASTINAL DISORDERS",,MILD,N,,NONE,RECOVERED/RESOLVED,N,N,N,N,N,N,N,2013-06-12,2013-05-12,2013-05-19,139,146
579,CDISCPILOT01,AE,01-709-1029,3,E07,MUSCLE SPASMS,CRAMP,,MUSCLE SPASMS,,HLT_0078,,HLGT_0750,,MUSCULOSKELETAL AND CONNECTIVE TISSUE DISORDERS,,MUSCULOSKELETAL AND CONNECTIVE TISSUE DISORDERS,,MILD,N,,REMOTE,NOT RECOVERED/NOT RESOLVED,N,N,N,N,N,N,N,2013-02-06,2013-01-24,2013-02-27,31,65
580,CDISCPILOT01,AE,01-709-1029,5,E07,MUSCLE SPASMS,CRAMP,,MUSCLE SPASMS,,HLT_0078,,HLGT_0750,,MUSCULOSKELETAL AND CONNECTIVE TISSUE DISORDERS,,MUSCULOSKELETAL AND CONNECTIVE TISSUE DISORDERS,,MILD,N,,REMOTE,RECOVERED/RESOLVED,N,N,N,N,N,N,N,2013-03-20,2013-01-24,2013-02-27,31,65
581,CDISCPILOT01,AE,01-709-1029,1,E09,MYOCARDIAL INFARCTION,SEPTAL MYOCARDIAL INFARCTION,,MYOCARDIAL INFARCTION,,HLT_0649,,HLGT_0688,,CARDIAC DISORDERS,,CARDIAC DISORDERS,,MILD,N,,NONE,NOT RECOVERED/NOT RESOLVED,N,N,N,N,N,N,N,2013-01-09,2013-01-09,2013-02-19,16,57
582,CDISCPILOT01,AE,01-709-1029,4,E09,MYOCARDIAL INFARCTION,SEPTAL MYOCARDIAL INFARCTION,,MYOCARDIAL INFARCTION,,HLT_0649,,HLGT_0688,,CARDIAC DISORDERS,,CARDIAC DISORDERS,,MILD,N,,NONE,RECOVERED/RESOLVED,N,N,N,N,N,N,N,2013-03-20,2013-01-09,2013-02-19,16,57
583,CDISCPILOT01,AE,01-709-1029,6,E10,MYOCARDIAL INFARCTION,SEPTAL MYOCARDIAL INFARCTION,,MYOCARDIAL INFARCTION,,HLT_0649,,HLGT_0688,,CARDIAC DISORDERS,,CARDIAC DISORDERS,,MILD,N,,NONE,NOT RECOVERED/NOT RESOLVED,N,N,N,N,N,N,N,2013-03-20,2013-03-20,2013-04-16,86,113
584,CDISCPILOT01,AE,01-709-1029,8,E10,MYOCARDIAL INFARCTION,SEPTAL MYOCARDIAL INFARCTION,,MYOCARDIAL INFARCTION,,HLT_0649,,HLGT_0688,,CARDIAC DISORDERS,,CARDIAC DISORDERS,,MILD,N,,NONE,RECOVERED/RESOLVED,N,N,N,N,N,N,N,2013-05-15,2013-03-20,2013-04-16,86,113
585,CDISCPILOT01,AE,01-709-1029,12,E13,MYOCARDIAL INFARCTION,SEPTAL MYOCARDIAL INFARCTION,,MYOCARDIAL INFARCTION,,HLT_0649,,HLGT_0688,,CARDIAC DISORDERS,,CARDIAC DISORDERS,,MILD,N,,REMOTE,NOT RECOVERED/NOT RESOLVED,N,N,N,N,N,N,N,2013-05-15,2013-05-15,,142,
586,CDISCPILOT01,AE,01-709-1029,11,E12,PHARYNGEAL ERYTHEMA,RED THROAT,,PHARYNGEAL ERYTHEMA,,HLT_0591,,HLGT_0398,,"RESPIRATORY, THORACIC AND MEDIASTINAL DISORDERS",,"RESPIRATORY, THORACIC AND MEDIASTINAL DISORDERS",,MILD,N,,NONE,NOT RECOVERED/NOT RESOLVED,N,N,N,N,N,N,N,2013-05-15,2013-05-12,2013-05-19,139,146
587,CDISCPILOT01,AE,01-709-1029,14,E12,PHARYNGEAL ERYTHEMA,RED THROAT,,PHARYNGEAL ERYTHEMA,,HLT_0591,,HLGT_0398,,"RESPIRATORY, THORACIC AND MEDIASTINAL DISORDERS",,"RESPIRATORY, THORACIC AND MEDIASTINAL DISORDERS",,MILD,N,,NONE,RECOVERED/RESOLVED,N,N,N,N,N,N,N,2013-06-12,2013-05-12,2013-05-19,139,146
588,CDISCPILOT01,AE,01-709-1029,16,E14,PRURITUS,ITCHING,,PRURITUS,,HLT_0778,,HLGT_0695,,SKIN AND SUBCUTANEOUS TISSUE DISORDERS,,SKIN AND SUBCUTANEOUS TISSUE DISORDERS,,MILD,N,,PROBABLE,NOT RECOVERED/NOT RESOLVED,N,N,N,N,N,N,N,2013-06-26,2013-06-19,,177,
589,CDISCPILOT01,AE,01-709-1029,7,E15,SINUS BRADYCARDIA,SINUS BRADYCARDIA,,SINUS BRADYCARDIA,,HLT_0644,,HLGT_0500,,CARDIAC DISORDERS,,CARDIAC DISORDERS,,MILD,N,,REMOTE,NOT RECOVERED/NOT RESOLVED,N,N,N,N,N,N,N,2013-03-20,2013-03-20,2013-04-16,86,113
590,CDISCPILOT01,AE,01-709-1029,9,E15,SINUS BRADYCARDIA,SINUS BRADYCARDIA,,SINUS BRADYCARDIA,,HLT_0644,,HLGT_0500,,CARDIAC DISORDERS,,CARDIAC DISORDERS,,MILD,N,,REMOTE,RECOVERED/RESOLVED,N,N,N,N,N,N,N,2013-05-15,2013-03-20,2013-04-16,86,113
591,CDISCPILOT01,AE,01-709-1029,15,E16,SINUS BRADYCARDIA,SINUS BRADYCARDIA,,SINUS BRADYCARDIA,,HLT_0644,,HLGT_0500,,CARDIAC DISORDERS,,CARDIAC DISORDERS,,MILD,N,,REMOTE,NOT RECOVERED/NOT RESOLVED,N,N,N,N,N,N,N,2013-06-12,2013-06-12,,170,
592,CDISCPILOT01,AE,01-709-1081,2,E06,OEDEMA PERIPHERAL,PERIPHERAL SWELLING,,OEDEMA PERIPHERAL,,HLT_0661,,HLGT_0137,,GENERAL DISORDERS AND ADMINISTRATION SITE CONDITIONS,,GENERAL DISORDERS AND ADMINISTRATION SITE CONDITIONS,,MODERATE,N,,REMOTE,NOT RECOVERED/NOT RESOLVED,N,N,N,N,N,N,N,2014-05-10,2014-05-01,,104,
593,CDISCPILOT01,AE,01-709-1081,1,E05,RASH,RASH,,RASH,,HLT_0762,,HLGT_0198,,SKIN AND SUBCUTANEOUS TISSUE DISORDERS,,SKIN AND SUBCUTANEOUS TISSUE DISORDERS,,MODERATE,N,,PROBABLE,NOT RECOVERED/NOT RESOLVED,N,N,N,N,N,N,N,2014-04-21,2014-04-07,,80,
594,CDISCPILOT01,AE,01-709-1088,1,E02,APPLICATION SITE DERMATITIS,APPLICATION SITE RASH,,APPLICATION SITE DERMATITIS,,HLT_0343,,HLGT_0241,,GENERAL DISORDERS AND ADMINISTRATION SITE CONDITIONS,,GENERAL DISORDERS AND ADMINISTRATION SITE CONDITIONS,,MILD,N,,PROBABLE,NOT RECOVERED/NOT RESOLVED,N,N,N,N,N,N,N,2014-05-08,2014-05-08,,27,
595,CDISCPILOT01,AE,01-709-1088,2,E04,RASH,RASH,,RASH,,HLT_0762,,HLGT_0198,,SKIN AND SUBCUTANEOUS TISSUE DISORDERS,,SKIN AND SUBCUTANEOUS TISSUE DISORDERS,,MILD,N,,NONE,NOT RECOVERED/NOT RESOLVED,N,N,N,N,N,N,N,2014-08-02,2014-08-02,,113,
596,CDISCPILOT01,AE,01-709-1099,8,E06,ACROCHORDON EXCISION,SKIN TAG REMOVAL,,ACROCHORDON EXCISION,,HLT_0629,,HLGT_0103,,SURGICAL AND MEDICAL PROCEDURES,,SURGICAL AND MEDICAL PROCEDURES,,MILD,N,,NONE,RECOVERED/RESOLVED,N,N,N,N,N,N,N,2014-04-11,2014-03-23,2014-03-23,150,150
597,CDISCPILOT01,AE,01-709-1099,2,E02,APPLICATION SITE DERMATITIS,APPLICATION SITE RASH,,APPLICATION SITE DERMATITIS,,HLT_0343,,HLGT_0241,,GENERAL DISORDERS AND ADMINISTRATION SITE CONDITIONS,,GENERAL DISORDERS AND ADMINISTRATION SITE CONDITIONS,,MILD,N,,PROBABLE,NOT RECOVERED/NOT RESOLVED,N,N,N,N,N,N,N,2013-11-12,2013-11-12,,19,
598,CDISCPILOT01,AE,01-709-1099,6,E02,APPLICATION SITE DERMATITIS,APPLICATION SITE RASH,,APPLICATION SITE DERMATITIS,,HLT_0343,,HLGT_0241,,GENERAL DISORDERS AND ADMINISTRATION SITE CONDITIONS,,GENERAL DISORDERS AND ADMINISTRATION SITE CONDITIONS,,MODERATE,N,,PROBABLE,NOT RECOVERED/NOT RESOLVED,N,N,N,N,N,N,N,2013-12-26,2013-11-12,,19,
599,CDISCPILOT01,AE,01-709-1099,4,E05,APPLICATION SITE PRURITUS,APPLICATION SITE ITCHING,,APPLICATION SITE PRURITUS,,HLT_0317,,HLGT_0338,,GENERAL DISORDERS AND ADMINISTRATION SITE CONDITIONS,,GENERAL DISORDERS AND ADMINISTRATION SITE CONDITIONS,,MILD,N,,PROBABLE,NOT RECOVERED/NOT RESOLVED,N,N,N,N,N,N,N,2013-11-12,2013-11-12,,19,
600,CDISCPILOT01,AE,01-709-1099,7,E05,APPLICATION SITE PRURITUS,APPLICATION SITE ITCHING,,APPLICATION SITE PRURITUS,,HLT_0317,,HLGT_0338,,GENERAL DISORDERS AND ADMINISTRATION SITE CONDITIONS,,GENERAL DISORDERS AND ADMINISTRATION SITE CONDITIONS,,MODERATE,N,,PROBABLE,NOT RECOVERED/NOT RESOLVED,N,N,N,N,N,N,N,2013-12-26,2013-11-12,,19,
601,CDISCPILOT01,AE,01-709-1099,3,E04,APPLICATION SITE VESICLES,APPLICATION SITE VESICLES,,APPLICATION SITE VESICLES,,HLT_0180,,HLGT_0576,,GENERAL DISORDERS AND ADMINISTRATION SITE CONDITIONS,,GENERAL DISORDERS AND ADMINISTRATION SITE CONDITIONS,,MILD,N,,PROBABLE,NOT RECOVERED/NOT RESOLVED,N,N,N,N,N,N,N,2013-11-12,2013-11-12,,19,
602,CDISCPILOT01,AE,01-709-1099,1,E01,NASOPHARYNGITIS,COLD SYMPTOMS,,NASOPHARYNGITIS,,HLT_0036,,HLGT_0709,,INFECTIONS AND INFESTATIONS,,INFECTIONS AND INFESTATIONS,,MILD,N,,NONE,NOT RECOVERED/NOT RESOLVED,N,N,N,N,N,N,N,2013-11-12,2013-11-06,2013-11-17,13,24
603,CDISCPILOT01,AE,01-709-1099,5,E01,NASOPHARYNGITIS,COLD SYMPTOMS,,NASOPHARYNGITIS,,HLT_0036,,HLGT_0709,,INFECTIONS AND INFESTATIONS,,INFECTIONS AND INFESTATIONS,,MILD,N,,NONE,RECOVERED/RESOLVED,N,N,N,N,N,N,N,2013-11-27,2013-11-06,2013-11-17,13,24
604,CDISCPILOT01,AE,01-709-1102,1,E01,APPLICATION SITE DERMATITIS,APPLICATION SITE RASH,,APPLICATION SITE DERMATITIS,,HLT_0343,,HLGT_0241,,GENERAL DISORDERS AND ADMINISTRATION SITE CONDITIONS,,GENERAL DISORDERS AND ADMINISTRATION SITE CONDITIONS,,MILD,N,,PROBABLE,NOT RECOVERED/NOT RESOLVED,N,N,N,N,N,N,N,2013-02-11,2013-02-11,,28,
605,CDISCPILOT01,AE,01-709-1102,3,E01,APPLICATION SITE DERMATITIS,APPLICATION SITE RASH,,APPLICATION SITE DERMATITIS,,HLT_0343,,HLGT_0241,,GENERAL DISORDERS AND ADMINISTRATION SITE CONDITIONS,,GENERAL DISORDERS AND ADMINISTRATION SITE CONDITIONS,,MODERATE,N,,PROBABLE,NOT RECOVERED/NOT RESOLVED,N,N,N,N,N,N,N,2013-03-12,2013-02-11,,28,
606,CDISCPILOT01,AE,01-709-1102,2,E02,APPLICATION SITE PRURITUS,APPLICATION SITE ITCHING,,APPLICATION SITE PRURITUS,,HLT_0317,,HLGT_0338,,GENERAL DISORDERS AND ADMINISTRATION SITE CONDITIONS,,GENERAL DISORDERS AND ADMINISTRATION SITE CONDITIONS,,MILD,N,,PROBABLE,NOT RECOVERED/NOT RESOLVED,N,N,N,N,N,N,N,2013-02-11,2013-02-11,,28,
607,CDISCPILOT01,AE,01-709-1102,4,E02,APPLICATION SITE PRURITUS,APPLICATION SITE ITCHING,,APPLICATION SITE PRURITUS,,HLT_0317,,HLGT_0338,,GENERAL DISORDERS AND ADMINISTRATION SITE CONDITIONS,,GENERAL DISORDERS AND ADMINISTRATION SITE CONDITIONS,,MODERATE,N,,PROBABLE,NOT RECOVERED/NOT RESOLVED,N,N,N,N,N,N,N,2013-03-12,2013-02-11,,28,
608,CDISCPILOT01,AE,01-709-1102,6,E04,APPLICATION SITE VESICLES,APPLICATION SITE BLISTER,,APPLICATION SITE VESICLES,,HLT_0180,,HLGT_0576,,GENERAL DISORDERS AND ADMINISTRATION SITE CONDITIONS,,GENERAL DISORDERS AND ADMINISTRATION SITE CONDITIONS,,MILD,N,,PROBABLE,RECOVERED/RESOLVED,N,N,N,N,N,N,N,2013-03-31,2013-03-26,2013-03-27,71,72
609,CDISCPILOT01,AE,01-709-1102,5,E05,DIZZINESS,DIZZINESS,,DIZZINESS,,HLT_0619,,HLGT_0751,,NERVOUS SYSTEM DISORDERS,,NERVOUS SYSTEM DISORDERS,,MILD,N,,POSSIBLE,RECOVERED/RESOLVED,N,N,N,N,N,N,N,2013-03-31,2013-03-20,2013-03-26,65,71
610,CDISCPILOT01,AE,01-709-1168,3,E03,PRURITUS,ITCHY,,PRURITUS,,HLT_0778,,HLGT_0695,,SKIN AND SUBCUTANEOUS TISSUE DISORDERS,,SKIN AND SUBCUTANEOUS TISSUE DISORDERS,,MODERATE,N,,PROBABLE,NOT RECOVERED/NOT RESOLVED,N,N,N,N,N,N,N,2013-09-13,2013-09-06,2013-10-11,36,71
611,CDISCPILOT01,AE,01-709-1168,5,E03,PRURITUS,ITCHY,,PRURITUS,,HLT_0778,,HLGT_0695,,SKIN AND SUBCUTANEOUS TISSUE DISORDERS,,SKIN AND SUBCUTANEOUS TISSUE DISORDERS,,MODERATE,N,,PROBABLE,RECOVERED/RESOLVED,N,N,N,N,N,N,N,2013-11-01,2013-09-06,2013-10-11,36,71
612,CDISCPILOT01,AE,01-709-1168,4,E04,RASH,RASH,,RASH,,HLT_0762,,HLGT_0198,,SKIN AND SUBCUTANEOUS TISSUE DISORDERS,,SKIN AND SUBCUTANEOUS TISSUE DISORDERS,,MODERATE,N,,PROBABLE,NOT RECOVERED/NOT RESOLVED,N,N,N,N,N,N,N,2013-09-13,2013-09-06,2013-10-11,36,71
613,CDISCPILOT01,AE,01-709-1168,6,E04,RASH,RASH,,RASH,,HLT_0762,,HLGT_0198,,SKIN AND SUBCUTANEOUS TISSUE DISORDERS,,SKIN AND SUBCUTANEOUS TISSUE DISORDERS,,MODERATE,N,,PROBABLE,RECOVERED/RESOLVED,N,N,N,N,N,N,N,2013-11-01,2013-09-06,2013-10-11,36,71
614,CDISCPILOT01,AE,01-709-1168,1,E02,SKIN IRRITATION,IRRITATION SKIN,,SKIN IRRITATION,,HLT_0583,,HLGT_0384,,SKIN AND SUBCUTANEOUS TISSUE DISORDERS,,SKIN AND SUBCUTANEOUS TISSUE DISORDERS,,MILD,N,,PROBABLE,NOT RECOVERED/NOT RESOLVED,N,N,N,N,N,N,N,2013-08-17,2013-08-17,2013-09-06,16,36
615,CDISCPILOT01,AE,01-709-1168,2,E02,SKIN IRRITATION,IRRITATION SKIN,,SKIN IRRITATION,,HLT_0583,,HLGT_0384,,SKIN AND SUBCUTANEOUS TISSUE DISORDERS,,SKIN AND SUBCUTANEOUS TISSUE DISORDERS,,MILD,N,,PROBABLE,RECOVERED/RESOLVED,N,N,N,N,N,N,N,2013-09-13,2013-08-17,2013-09-06,16,36
616,CDISCPILOT01,AE,01-709-1217,3,E05,APPLICATION SITE DERMATITIS,APPLICATION SITE RASH,,APPLICATION SITE DERMATITIS,,HLT_0343,,HLGT_0241,,GENERAL DISORDERS AND ADMINISTRATION SITE CONDITIONS,,GENERAL DISORDERS AND ADMINISTRATION SITE CONDITIONS,,MILD,N,,PROBABLE,NOT RECOVERED/NOT RESOLVED,N,N,N,N,N,N,N,2013-03-30,2013-03-26,2013-06-18,23,107
617,CDISCPILOT01,AE,01-709-1217,8,E05,APPLICATION SITE DERMATITIS,APPLICATION SITE RASH,,APPLICATION SITE DERMATITIS,,HLT_0343,,HLGT_0241,,GENERAL DISORDERS AND ADMINISTRATION SITE CONDITIONS,,GENERAL DISORDERS AND ADMINISTRATION SITE CONDITIONS,,MODERATE,N,,PROBABLE,NOT RECOVERED/NOT RESOLVED,N,N,N,N,N,N,N,2013-04-29,2013-03-26,2013-06-18,23,107
618,CDISCPILOT01,AE,01-709-1217,10,E05,APPLICATION SITE DERMATITIS,APPLICATION SITE RASH,,APPLICATION SITE DERMATITIS,,HLT_0343,,HLGT_0241,,GENERAL DISORDERS AND ADMINISTRATION SITE CONDITIONS,,GENERAL DISORDERS AND ADMINISTRATION SITE CONDITIONS,,MODERATE,N,,PROBABLE,RECOVERED/RESOLVED,N,N,N,N,N,N,N,2013-06-25,2013-03-26,2013-06-18,23,107
619,CDISCPILOT01,AE,01-709-1217,2,E06,COUGH,COUGH,,COUGH,,HLT_0701,,HLGT_0280,,"RESPIRATORY, THORACIC AND MEDIASTINAL DISORDERS",,"RESPIRATORY, THORACIC AND MEDIASTINAL DISORDERS",,MILD,N,,NONE,NOT RECOVERED/NOT RESOLVED,N,N,N,N,N,N,N,2013-03-30,2013-03-20,,17,
620,CDISCPILOT01,AE,01-709-1217,1,E09,DIZZINESS,DIZZINESS,,DIZZINESS,,HLT_0619,,HLGT_0751,,NERVOUS SYSTEM DISORDERS,,NERVOUS SYSTEM DISORDERS,,MODERATE,N,,POSSIBLE,RECOVERED/RESOLVED,N,N,N,N,N,N,N,2013-03-19,2013-03-06,2013-03-06,3,3
621,CDISCPILOT01,AE,01-709-1217,4,E07,DIZZINESS,DIZZINESS,,DIZZINESS,,HLT_0619,,HLGT_0751,,NERVOUS SYSTEM DISORDERS,,NERVOUS SYSTEM DISORDERS,,MILD,N,,POSSIBLE,RECOVERED/RESOLVED,N,N,N,N,N,N,N,2013-03-30,2013-03-27,2013-03-27,24,24
622,CDISCPILOT01,AE,01-709-1217,6,E08,DIZZINESS,DIZZINESS,,DIZZINESS,,HLT_0619,,HLGT_0751,,NERVOUS SYSTEM DISORDERS,,NERVOUS SYSTEM DISORDERS,,MILD,N,,POSSIBLE,NOT RECOVERED/NOT RESOLVED,N,N,N,N,N,N,N,2013-04-01,2013-04-01,2013-04-11,29,39
623,CDISCPILOT01,AE,01-709-1217,7,E08,DIZZINESS,DIZZINESS,,DIZZINESS,,HLT_0619,,HLGT_0751,,NERVOUS SYSTEM DISORDERS,,NERVOUS SYSTEM DISORDERS,,MILD,N,,POSSIBLE,RECOVERED/RESOLVED,N,N,N,N,N,N,N,2013-04-13,2013-04-01,2013-04-11,29,39
624,CDISCPILOT01,AE,01-709-1217,5,E13,ELECTROCARDIOGRAM T WAVE INVERSION,T WAVE INVERTED,,ELECTROCARDIOGRAM T WAVE INVERSION,,HLT_0289,,HLGT_0130,,INVESTIGATIONS,,INVESTIGATIONS,,MILD,N,,NONE,NOT RECOVERED/NOT RESOLVED,N,N,N,N,N,N,N,2013-03-30,2013-03-30,,27,
625,CDISCPILOT01,AE,01-709-1217,9,E14,HEADACHE,HEADACHE,,HEADACHE,,HLT_0064,,HLGT_0344,,NERVOUS SYSTEM DISORDERS,,NERVOUS SYSTEM DISORDERS,,MILD,N,,REMOTE,RECOVERED/RESOLVED,N,N,N,N,N,N,N,2013-05-25,2013-05-17,2013-05-18,75,76
626,CDISCPILOT01,AE,01-709-1217,11,E10,PRURITUS,ITCHING,,PRURITUS,,HLT_0778,,HLGT_0695,,SKIN AND SUBCUTANEOUS TISSUE DISORDERS,,SKIN AND SUBCUTANEOUS TISSUE DISORDERS,,MODERATE,N,,PROBABLE,RECOVERED/RESOLVED,N,N,N,N,N,N,N,2013-06-25,2013-05-27,2013-06-18,85,107
627,CDISCPILOT01,AE,01-709-1238,2,E07,APPLICATION SITE DERMATITIS,APPLICATION SITE RASH,,APPLICATION SITE DERMATITIS,,HLT_0343,,HLGT_0241,,GENERAL DISORDERS AND ADMINISTRATION SITE CONDITIONS,,GENERAL DISORDERS AND ADMINISTRATION SITE CONDITIONS,,MODERATE,N,,PROBABLE,NOT RECOVERED/NOT RESOLVED,N,N,N,N,N,N,N,2013-06-19,2013-05-30,,16,
628,CDISCPILOT01,AE,01-709-1238,4,E09,APPLICATION SITE DISCHARGE,APPLICATION SITE DISCHARGE,,APPLICATION SITE DISCHARGE,,HLT_0200,,HLGT_0457,,GENERAL DISORDERS AND ADMINISTRATION SITE CONDITIONS,,GENERAL DISORDERS AND ADMINISTRATION SITE CONDITIONS,,MODERATE,N,,PROBABLE,NOT RECOVERED/NOT RESOLVED,N,N,N,N,N,N,N,2013-06-19,2013-05-30,,16,
629,CDISCPILOT01,AE,01-709-1238,3,E08,APPLICATION SITE PRURITUS,APPLICATION SITE ITCHING,,APPLICATION SITE PRURITUS,,HLT_0317,,HLGT_0338,,GENERAL DISORDERS AND ADMINISTRATION SITE CONDITIONS,,GENERAL DISORDERS AND ADMINISTRATION SITE CONDITIONS,,MODERATE,N,,PROBABLE,NOT RECOVERED/NOT RESOLVED,N,N,N,N,N,N,N,2013-06-19,2013-05-30,,16,
630,CDISCPILOT01,AE,01-709-1238,6,E04,COUGH,COUGH,,COUGH,,HLT_0701,,HLGT_0280,,"RESPIRATORY, THORACIC AND MEDIASTINAL DISORDERS",,"RESPIRATORY, THORACIC AND MEDIASTINAL DISORDERS",,MODERATE,N,,NONE,NOT RECOVERED/NOT RESOLVED,N,N,N,N,N,N,N,2013-06-19,2013-06-09,,26,
631,CDISCPILOT01,AE,01-709-1238,1,E02,DIARRHOEA,DIARRHEA,,DIARRHOEA,,HLT_0148,,HLGT_0588,,GASTROINTESTINAL DISORDERS,,GASTROINTESTINAL DISORDERS,,MODERATE,N,,NONE,RECOVERED/RESOLVED,N,N,N,N,N,N,N,2013-05-29,2013-05-28,2013-05-28,14,14
632,CDISCPILOT01,AE,01-709-1238,5,E05,HIP FRACTURE,HIP FRACTURE,,HIP FRACTURE,,HLT_0097,,HLGT_0131,,"INJURY, POISONING AND PROCEDURAL COMPLICATIONS",,"INJURY, POISONING AND PROCEDURAL COMPLICATIONS",,MODERATE,N,,NONE,RECOVERED/RESOLVED,N,N,N,N,N,N,N,2013-06-19,2013-05-31,2013-05-31,17,17
633,CDISCPILOT01,AE,01-709-1238,8,E10,SKIN LESION EXCISION,SKIN LESION EXCISION,,SKIN LESION EXCISION,,HLT_0498,,HLGT_0450,,SURGICAL AND MEDICAL PROCEDURES,,SURGICAL AND MEDICAL PROCEDURES,,MILD,N,,NONE,RECOVERED/RESOLVED,N,N,N,N,N,N,N,2013-07-02,2013-06-28,2013-06-28,45,45
634,CDISCPILOT01,AE,01-709-1238,7,E06,UPPER RESPIRATORY TRACT INFECTION,UPPER RESPIRATORY INFECTION,,UPPER RESPIRATORY TRACT INFECTION,,HLT_0520,,HLGT_0489,,INFECTIONS AND INFESTATIONS,,INFECTIONS AND INFESTATIONS,,MODERATE,N,,NONE,NOT RECOVERED/NOT RESOLVED,N,N,N,N,N,N,N,2013-06-19,2013-06-09,,26,
635,CDISCPILOT01,AE,01-709-1259,5,E08,BENIGN PROSTATIC HYPERPLASIA,ENLARGED PROSTATE,,BENIGN PROSTATIC HYPERPLASIA,,HLT_0215,,HLGT_0568,,REPRODUCTIVE SYSTEM AND BREAST DISORDERS,,REPRODUCTIVE SYSTEM AND BREAST DISORDERS,,MILD,N,,NONE,NOT RECOVERED/NOT RESOLVED,N,N,N,N,Y,N,N,2013-03-23,2013-03-17,2013-03-30,51,64
636,CDISCPILOT01,AE,01-709-1259,6,E08,BENIGN PROSTATIC HYPERPLASIA,ENLARGED PROSTATE,,BENIGN PROSTATIC HYPERPLASIA,,HLT_0215,,HLGT_0568,,REPRODUCTIVE SYSTEM AND BREAST DISORDERS,,REPRODUCTIVE SYSTEM AND BREAST DISORDERS,,SEVERE,N,,NONE,RECOVERED/RESOLVED,N,N,N,N,Y,N,N,2013-04-20,2013-03-17,2013-03-30,51,64
637,CDISCPILOT01,AE,01-709-1259,3,E06,BLOOD URINE PRESENT,BLOOD IN URINE,,BLOOD URINE PRESENT,,HLT_0458,,HLGT_0289,,INVESTIGATIONS,,INVESTIGATIONS,,MILD,N,,NONE,NOT RECOVERED/NOT RESOLVED,N,N,N,N,N,N,N,2013-03-23,2013-03-14,,48,
638,CDISCPILOT01,AE,01-709-1259,4,E07,CYSTOSCOPY,CYSTOSCOPY,,CYSTOSCOPY,,HLT_0436,,HLGT_0041,,INVESTIGATIONS,,INVESTIGATIONS,,MILD,N,,NONE,RECOVERED/RESOLVED,N,N,N,N,N,N,N,2013-03-23,2013-03-17,2013-03-17,51,51
639,CDISCPILOT01,AE,01-709-1259,8,E12,DEHYDRATION,DEHYDRATION,,DEHYDRATION,,HLT_0533,,HLGT_0011,,METABOLISM AND NUTRITION DISORDERS,,METABOLISM AND NUTRITION DISORDERS,,MILD,N,,NONE,RECOVERED/RESOLVED,N,N,N,N,N,N,N,2013-04-20,2013-04-13,2013-04-14,78,79
640,CDISCPILOT01,AE,01-709-1259,9,E13,HYPOTENSION,LOW BLOOD PRESSURE,,HYPOTENSION,,HLT_0761,,HLGT_0412,,VASCULAR DISORDERS,,VASCULAR DISORDERS,,MILD,N,,POSSIBLE,RECOVERED/RESOLVED,N,N,N,N,Y,N,N,2013-04-20,2013-04-13,2013-04-14,78,79
641,CDISCPILOT01,AE,01-709-1259,1,E05,LOCALISED INFECTION,INFECTED FINGER,,LOCALISED INFECTION,,HLT_0435,,HLGT_0557,,INFECTIONS AND INFESTATIONS,,INFECTIONS AND INFESTATIONS,,MILD,N,,NONE,NOT RECOVERED/NOT RESOLVED,N,N,N,N,N,N,N,2013-02-10,2013-02-05,2013-02-13,11,19
642,CDISCPILOT01,AE,01-709-1259,2,E05,LOCALISED INFECTION,INFECTED FINGER,,LOCALISED INFECTION,,HLT_0435,,HLGT_0557,,INFECTIONS AND INFESTATIONS,,INFECTIONS AND INFESTATIONS,,MILD,N,,NONE,RECOVERED/RESOLVED,N,N,N,N,N,N,N,2013-02-22,2013-02-05,2013-02-13,11,19
643,CDISCPILOT01,AE,01-709-1259,10,E14,ORTHOSTATIC HYPOTENSION,POSTURAL HYPOTENSION,,ORTHOSTATIC HYPOTENSION,,HLT_0194,,HLGT_0111,,VASCULAR DISORDERS,,VASCULAR DISORDERS,,MILD,N,,POSSIBLE,NOT RECOVERED/NOT RESOLVED,N,N,N,N,N,N,N,2013-04-20,2013-04-20,2013-06-13,85,139
644,CDISCPILOT01,AE,01-709-1259,11,E14,ORTHOSTATIC HYPOTENSION,POSTURAL HYPOTENSION,,ORTHOSTATIC HYPOTENSION,,HLT_0194,,HLGT_0111,,VASCULAR DISORDERS,,VASCULAR DISORDERS,,MILD,N,,POSSIBLE,RECOVERED/RESOLVED,N,N,N,N,N,N,N,2013-06-13,2013-04-20,2013-06-13,85,139
645,CDISCPILOT01,AE,01-709-1259,7,E11,PYREXIA,FEVER,,PYREXIA,,HLT_0310,,HLGT_0652,,GENERAL DISORDERS AND ADMINISTRATION SITE CONDITIONS,,GENERAL DISORDERS AND ADMINISTRATION SITE CONDITIONS,,MILD,N,,NONE,RECOVERED/RESOLVED,N,N,N,N,N,N,N,2013-04-20,2013-04-13,2013-04-14,78,79
646,CDISCPILOT01,AE,01-709-1285,2,E04,APPLICATION SITE DERMATITIS,APPLICATION SITE RASH,,APPLICATION SITE DERMATITIS,,HLT_0343,,HLGT_0241,,GENERAL DISORDERS AND ADMINISTRATION SITE CONDITIONS,,GENERAL DISORDERS AND ADMINISTRATION SITE CONDITIONS,,MILD,N,,PROBABLE,NOT RECOVERED/NOT RESOLVED,N,N,N,N,N,N,N,2013-04-19,2013-04-19,2013-05-31,27,69
647,CDISCPILOT01,AE,01-709-1285,5,E04,APPLICATION SITE DERMATITIS,APPLICATION SITE RASH,,APPLICATION SITE DERMATITIS,,HLT_0343,,HLGT_0241,,GENERAL DISORDERS AND ADMINISTRATION SITE CONDITIONS,,GENERAL DISORDERS AND ADMINISTRATION SITE CONDITIONS,,MILD,N,,PROBABLE,RECOVERED/RESOLVED,N,N,N,N,N,N,N,2013-05-31,2013-04-19,2013-05-31,27,69
648,CDISCPILOT01,AE,01-709-1285,3,E05,APPLICATION SITE PRURITUS,APPLICATION SITE ITCHING,,APPLICATION SITE PRURITUS,,HLT_0317,,HLGT_0338,,GENERAL DISORDERS AND ADMINISTRATION SITE CONDITIONS,,GENERAL DISORDERS AND ADMINISTRATION SITE CONDITIONS,,MILD,N,,PROBABLE,NOT RECOVERED/NOT RESOLVED,N,N,N,N,N,N,N,2013-04-19,2013-04-19,2013-05-31,27,69
649,CDISCPILOT01,AE,01-709-1285,6,E05,APPLICATION SITE PRURITUS,APPLICATION SITE ITCHING,,APPLICATION SITE PRURITUS,,HLT_0317,,HLGT_0338,,GENERAL DISORDERS AND ADMINISTRATION SITE CONDITIONS,,GENERAL DISORDERS AND ADMINISTRATION SITE CONDITIONS,,MILD,N,,PROBABLE,RECOVERED/RESOLVED,N,N,N,N,N,N,N,2013-05-31,2013-04-19,2013-05-31,27,69
650,CDISCPILOT01,AE,01-709-1285,1,E03,HEMIANOPIA HOMONYMOUS,HOMONYMOUS HEMIANOPSIA,,HEMIANOPIA HOMONYMOUS,,HLT_0639,,HLGT_0547,,NERVOUS SYSTEM DISORDERS,,NERVOUS SYSTEM DISORDERS,,MILD,N,,NONE,NOT RECOVERED/NOT RESOLVED,N,N,Y,N,N,N,N,2013-04-19,2013-04-14,,22,
651,CDISCPILOT01,AE,01-709-1285,4,E06,SINUS BRADYCARDIA,SINUS BRADYCARDIA,,SINUS BRADYCARDIA,,HLT_0644,,HLGT_0500,,CARDIAC DISORDERS,,CARDIAC DISORDERS,,MILD,N,,POSSIBLE,NOT RECOVERED/NOT RESOLVED,N,N,N,N,N,N,N,2013-05-19,2013-05-19,,57,
652,CDISCPILOT01,AE,01-709-1301,1,E02,DIABETES MELLITUS,DIABETES,,DIABETES MELLITUS,,HLT_0447,,HLGT_0572,,METABOLISM AND NUTRITION DISORDERS,,METABOLISM AND NUTRITION DISORDERS,,MILD,N,,NONE,NOT RECOVERED/NOT RESOLVED,N,N,N,N,N,N,N,2013-08-30,2013-08-30,,43,
653,CDISCPILOT01,AE,01-709-1306,5,E03,APPLICATION SITE IRRITATION,APPLICATION SITE BURNING,,APPLICATION SITE IRRITATION,,HLT_0061,,HLGT_0346,,GENERAL DISORDERS AND ADMINISTRATION SITE CONDITIONS,,GENERAL DISORDERS AND ADMINISTRATION SITE CONDITIONS,,MODERATE,N,,PROBABLE,NOT RECOVERED/NOT RESOLVED,N,N,N,N,N,N,N,2014-05-28,2014-05-04,2014-06-23,91,141
654,CDISCPILOT01,AE,01-709-1306,9,E03,APPLICATION SITE IRRITATION,APPLICATION SITE BURNING,,APPLICATION SITE IRRITATION,,HLT_0061,,HLGT_0346,,GENERAL DISORDERS AND ADMINISTRATION SITE CONDITIONS,,GENERAL DISORDERS AND ADMINISTRATION SITE CONDITIONS,,MODERATE,N,,PROBABLE,RECOVERED/RESOLVED,N,N,N,N,N,N,N,2014-06-25,2014-05-04,2014-06-23,91,141
655,CDISCPILOT01,AE,01-709-1306,2,E02,APPLICATION SITE PRURITUS,APPLICATION SITE ITCHING,,APPLICATION SITE PRURITUS,,HLT_0317,,HLGT_0338,,GENERAL DISORDERS AND ADMINISTRATION SITE CONDITIONS,,GENERAL DISORDERS AND ADMINISTRATION SITE CONDITIONS,,MILD,N,,PROBABLE,NOT RECOVERED/NOT RESOLVED,N,N,N,N,N,N,N,2014-04-30,2014-04-20,2014-06-23,77,141
656,CDISCPILOT01,AE,01-709-1306,4,E02,APPLICATION SITE PRURITUS,APPLICATION SITE ITCHING,,APPLICATION SITE PRURITUS,,HLT_0317,,HLGT_0338,,GENERAL DISORDERS AND ADMINISTRATION SITE CONDITIONS,,GENERAL DISORDERS AND ADMINISTRATION SITE CONDITIONS,,MODERATE,N,,PROBABLE,NOT RECOVERED/NOT RESOLVED,N,N,N,N,N,N,N,2014-05-28,2014-04-20,2014-06-23,77,141
657,CDISCPILOT01,AE,01-709-1306,8,E02,APPLICATION SITE PRURITUS,APPLICATION SITE ITCHING,,APPLICATION SITE PRURITUS,,HLT_0317,,HLGT_0338,,GENERAL DISORDERS AND ADMINISTRATION SITE CONDITIONS,,GENERAL DISORDERS AND ADMINISTRATION SITE CONDITIONS,,MODERATE,N,,PROBABLE,RECOVERED/RESOLVED,N,N,N,N,N,N,N,2014-06-25,2014-04-20,2014-06-23,77,141
658,CDISCPILOT01,AE,01-709-1306,6,E04,DRUG ERUPTION,DRUG RASH,,DRUG ERUPTION,,HLT_0430,,HLGT_0253,,SKIN AND SUBCUTANEOUS TISSUE DISORDERS,,SKIN AND SUBCUTANEOUS TISSUE DISORDERS,,MILD,N,,NONE,RECOVERED/RESOLVED,N,N,N,N,N,N,N,2014-05-28,2014-05-20,2014-05-23,107,110
659,CDISCPILOT01,AE,01-709-1306,1,E01,RASH,RASH,,RASH,,HLT_0762,,HLGT_0198,,SKIN AND SUBCUTANEOUS TISSUE DISORDERS,,SKIN AND SUBCUTANEOUS TISSUE DISORDERS,,MILD,N,,PROBABLE,NOT RECOVERED/NOT RESOLVED,N,N,N,N,N,N,N,2014-04-30,2014-04-20,2014-06-23,77,141
660,CDISCPILOT01,AE,01-709-1306,3,E01,RASH,RASH,,RASH,,HLT_0762,,HLGT_0198,,SKIN AND SUBCUTANEOUS TISSUE DISORDERS,,SKIN AND SUBCUTANEOUS TISSUE DISORDERS,,MODERATE,N,,PROBABLE,NOT RECOVERED/NOT RESOLVED,N,N,N,N,N,N,N,2014-05-28,2014-04-20,2014-06-23,77,141
661,CDISCPILOT01,AE,01-709-1306,7,E01,RASH,RASH,,RASH,,HLT_0762,,HLGT_0198,,SKIN AND SUBCUTANEOUS TISSUE DISORDERS,,SKIN AND SUBCUTANEOUS TISSUE DISORDERS,,MODERATE,N,,PROBABLE,RECOVERED/RESOLVED,N,N,N,N,N,N,N,2014-06-25,2014-04-20,2014-06-23,77,141
662,CDISCPILOT01,AE,01-709-1309,12,E10,ALLERGIC GRANULOMATOUS ANGIITIS,ALLERGIC GRANULOMATOSIS,,ALLERGIC GRANULOMATOUS ANGIITIS,,HLT_0114,,HLGT_0157,,"RESPIRATORY, THORACIC AND MEDIASTINAL DISORDERS",,"RESPIRATORY, THORACIC AND MEDIASTINAL DISORDERS",,MILD,N,,NONE,RECOVERED/RESOLVED,N,N,N,N,N,N,N,2013-07-16,2013-07-04,2013-07-04,16,16
663,CDISCPILOT01,AE,01-709-1309,14,E12,APPLICATION SITE PRURITUS,APPLICATION SITE ITCHING,,APPLICATION SITE PRURITUS,,HLT_0317,,HLGT_0338,,GENERAL DISORDERS AND ADMINISTRATION SITE CONDITIONS,,GENERAL DISORDERS AND ADMINISTRATION SITE CONDITIONS,,MILD,N,,PROBABLE,NOT RECOVERED/NOT RESOLVED,N,N,N,N,N,N,N,2013-07-31,2013-07-28,,40,
664,CDISCPILOT01,AE,01-709-1309,8,E09,BIOPSY,BIOPSY,,BIOPSY,,HLT_0685,,HLGT_0076,,INVESTIGATIONS,,INVESTIGATIONS,,MILD,N,,NONE,RECOVERED/RESOLVED,N,N,N,N,N,N,N,2013-07-01,2013-06-26,2013-06-26,8,8
665,CDISCPILOT01,AE,01-709-1309,9,E08,DIZZINESS,DIZZINESS,,DIZZINESS,,HLT_0619,,HLGT_0751,,NERVOUS SYSTEM DISORDERS,,NERVOUS SYSTEM DISORDERS,,MILD,N,,NONE,NOT RECOVERED/NOT RESOLVED,N,N,N,N,N,N,N,2013-07-01,2013-07-01,2013-07-01,13,13
666,CDISCPILOT01,AE,01-709-1309,11,E08,DIZZINESS,DIZZINESS,,DIZZINESS,,HLT_0619,,HLGT_0751,,NERVOUS SYSTEM DISORDERS,,NERVOUS SYSTEM DISORDERS,,MILD,N,,NONE,RECOVERED/RESOLVED,N,N,N,N,N,N,N,2013-07-16,2013-07-01,2013-07-01,13,13
667,CDISCPILOT01,AE,01-709-1309,15,E13,FEELING COLD,FEELING COLD,,FEELING COLD,,HLT_0340,,HLGT_0717,,GENERAL DISORDERS AND ADMINISTRATION SITE CONDITIONS,,GENERAL DISORDERS AND ADMINISTRATION SITE CONDITIONS,,MILD,N,,NONE,NOT RECOVERED/NOT RESOLVED,N,N,N,N,N,N,N,2013-09-11,2013-09-06,,80,
668,CDISCPILOT01,AE,01-709-1309,5,E06,NASAL CONGESTION,NASAL CONGESTION,,NASAL CONGESTION,,HLT_0118,,HLGT_0549,,"RESPIRATORY, THORACIC AND MEDIASTINAL DISORDERS",,"RESPIRATORY, THORACIC AND MEDIASTINAL DISORDERS",,MILD,N,,REMOTE,RECOVERED/RESOLVED,N,N,N,N,N,N,N,2013-07-01,2013-06-19,2013-06-20,1,2
669,CDISCPILOT01,AE,01-709-1309,6,E07,NIGHTMARE,NIGHTMARE,,NIGHTMARE,,HLT_0186,,HLGT_0049,,PSYCHIATRIC DISORDERS,,PSYCHIATRIC DISORDERS,,MILD,N,,REMOTE,RECOVERED/RESOLVED,N,N,N,N,N,N,N,2013-07-01,2013-06-19,2013-06-20,1,2
670,CDISCPILOT01,AE,01-709-1309,1,E02,RASH MACULO-PAPULAR,MACULOPAPULAR RASH,,RASH MACULO-PAPULAR,,HLT_0500,,HLGT_0097,,SKIN AND SUBCUTANEOUS TISSUE DISORDERS,,SKIN AND SUBCUTANEOUS TISSUE DISORDERS,,MILD,N,,POSSIBLE,NOT RECOVERED/NOT RESOLVED,N,N,N,N,N,N,N,2013-06-17,2013-06-10,2013-07-01,-9,13
671,CDISCPILOT01,AE,01-709-1309,10,E02,RASH MACULO-PAPULAR,MACULOPAPULAR RASH,,RASH MACULO-PAPULAR,,HLT_0500,,HLGT_0097,,SKIN AND SUBCUTANEOUS TISSUE DISORDERS,,SKIN AND SUBCUTANEOUS TISSUE DISORDERS,,MILD,N,,POSSIBLE,RECOVERED/RESOLVED,N,N,N,N,N,N,N,2013-07-16,2013-06-10,2013-07-01,-9,13
672,CDISCPILOT01,AE,01-709-1309,7,E04,RASH MACULO-PAPULAR,MACULOPAPULAR RASH,,RASH MACULO-PAPULAR,,HLT_0500,,HLGT_0097,,SKIN AND SUBCUTANEOUS TISSUE DISORDERS,,SKIN AND SUBCUTANEOUS TISSUE DISORDERS,,MILD,N,,PROBABLE,NOT RECOVERED/NOT RESOLVED,N,N,N,N,N,N,N,2013-07-01,2013-06-20,,2,
673,CDISCPILOT01,AE,01-709-1309,2,E03,RASH PAPULAR,PAPULAR RASH,,RASH PAPULAR,,HLT_0549,,HLGT_0007,,SKIN AND SUBCUTANEOUS TISSUE DISORDERS,,SKIN AND SUBCUTANEOUS TISSUE DISORDERS,,MILD,N,,POSSIBLE,NOT RECOVERED/NOT RESOLVED,N,N,N,N,N,N,N,2013-06-19,2013-06-18,2013-07-16,-1,28
674,CDISCPILOT01,AE,01-709-1309,13,E03,RASH PAPULAR,PAPULAR RASH,,RASH PAPULAR,,HLT_0549,,HLGT_0007,,SKIN AND SUBCUTANEOUS TISSUE DISORDERS,,SKIN AND SUBCUTANEOUS TISSUE DISORDERS,,MILD,N,,POSSIBLE,RECOVERED/RESOLVED,N,N,N,N,N,N,N,2013-07-18,2013-06-18,2013-07-16,-1,28
675,CDISCPILOT01,AE,01-709-1309,3,E05,VOMITING,VOMITING,,VOMITING,,HLT_0016,,HLGT_0350,,GASTROINTESTINAL DISORDERS,,GASTROINTESTINAL DISORDERS,,MILD,N,,POSSIBLE,NOT RECOVERED/NOT RESOLVED,N,N,N,N,N,N,N,2013-06-19,2013-06-19,2013-06-19,1,1
676,CDISCPILOT01,AE,01-709-1309,4,E05,VOMITING,VOMITING,,VOMITING,,HLT_0016,,HLGT_0350,,GASTROINTESTINAL DISORDERS,,GASTROINTESTINAL DISORDERS,,MILD,N,,POSSIBLE,RECOVERED/RESOLVED,N,N,N,N,N,N,N,2013-07-01,2013-06-19,2013-06-19,1,1
677,CDISCPILOT01,AE,01-709-1312,1,E04,APPLICATION SITE DERMATITIS,APPLICATION SITE RASH,,APPLICATION SITE DERMATITIS,,HLT_0343,,HLGT_0241,,GENERAL DISORDERS AND ADMINISTRATION SITE CONDITIONS,,GENERAL DISORDERS AND ADMINISTRATION SITE CONDITIONS,,MILD,N,,PROBABLE,NOT RECOVERED/NOT RESOLVED,N,N,N,N,N,N,N,2014-05-17,2014-05-17,,28,
678,CDISCPILOT01,AE,01-709-1312,2,E05,ELECTROCARDIOGRAM ST SEGMENT DEPRESSION,ST SEGMENT DEPRESSED,,ELECTROCARDIOGRAM ST SEGMENT DEPRESSION,,HLT_0610,,HLGT_0220,,INVESTIGATIONS,,INVESTIGATIONS,,MILD,N,,REMOTE,NOT RECOVERED/NOT RESOLVED,N,N,N,N,N,N,N,2014-10-19,2014-10-19,,183,
679,CDISCPILOT01,AE,01-709-1326,5,E07,APPLICATION SITE BLEEDING,APPLICATION SITE BLEEDING,,APPLICATION SITE BLEEDING,,HLT_0718,,HLGT_0324,,GENERAL DISORDERS AND ADMINISTRATION SITE CONDITIONS,,GENERAL DISORDERS AND ADMINISTRATION SITE CONDITIONS,,MODERATE,N,,PROBABLE,RECOVERED/RESOLVED,N,N,N,N,N,N,N,2013-06-26,2013-06-07,2013-06-17,64,74
680,CDISCPILOT01,AE,01-709-1326,1,E05,APPLICATION SITE DERMATITIS,APPLICATION SITE RASH,,APPLICATION SITE DERMATITIS,,HLT_0343,,HLGT_0241,,GENERAL DISORDERS AND ADMINISTRATION SITE CONDITIONS,,GENERAL DISORDERS AND ADMINISTRATION SITE CONDITIONS,,MILD,N,,PROBABLE,NOT RECOVERED/NOT RESOLVED,N,N,N,N,N,N,N,2013-05-01,2013-05-01,,27,
681,CDISCPILOT01,AE,01-709-1326,2,E06,APPLICATION SITE PRURITUS,APPLICATION SITE ITCHING,,APPLICATION SITE PRURITUS,,HLT_0317,,HLGT_0338,,GENERAL DISORDERS AND ADMINISTRATION SITE CONDITIONS,,GENERAL DISORDERS AND ADMINISTRATION SITE CONDITIONS,,MILD,N,,PROBABLE,NOT RECOVERED/NOT RESOLVED,N,N,N,N,N,N,N,2013-05-01,2013-05-01,,27,
682,CDISCPILOT01,AE,01-709-1326,6,E08,COUGH,COUGH,,COUGH,,HLT_0701,,HLGT_0280,,"RESPIRATORY, THORACIC AND MEDIASTINAL DISORDERS",,"RESPIRATORY, THORACIC AND MEDIASTINAL DISORDERS",,MILD,N,,NONE,NOT RECOVERED/NOT RESOLVED,N,N,N,N,N,N,N,2013-07-26,2013-07-12,,99,
683,CDISCPILOT01,AE,01-709-1326,4,E04,SYNCOPE,SYNCOPE,,SYNCOPE,,HLT_0440,,HLGT_0310,,NERVOUS SYSTEM DISORDERS,,NERVOUS SYSTEM DISORDERS,,MILD,N,,POSSIBLE,RECOVERED/RESOLVED,N,N,N,N,Y,N,N,2013-06-01,2013-05-21,2013-05-21,47,47
684,CDISCPILOT01,AE,01-709-1326,3,E03,VOMITING,VOMITING,,VOMITING,,HLT_0016,,HLGT_0350,,GASTROINTESTINAL DISORDERS,,GASTROINTESTINAL DISORDERS,,MILD,N,,POSSIBLE,RECOVERED/RESOLVED,N,N,N,N,N,N,N,2013-06-01,2013-05-21,2013-05-21,47,47
685,CDISCPILOT01,AE,01-709-1329,1,E02,DIZZINESS,DIZZINESS,,DIZZINESS,,HLT_0619,,HLGT_0751,,NERVOUS SYSTEM DISORDERS,,NERVOUS SYSTEM DISORDERS,,MILD,N,,POSSIBLE,RECOVERED/RESOLVED,N,N,N,N,N,N,N,2013-08-29,2013-08-25,2013-08-25,11,11
686,CDISCPILOT01,AE,01-709-1329,2,E03,PYREXIA,FEVER,,PYREXIA,,HLT_0310,,HLGT_0652,,GENERAL DISORDERS AND ADMINISTRATION SITE CONDITIONS,,GENERAL DISORDERS AND ADMINISTRATION SITE CONDITIONS,,MILD,N,,REMOTE,RECOVERED/RESOLVED,N,N,N,N,N,N,N,2013-08-29,2013-08-25,2013-08-25,11,11
687,CDISCPILOT01,AE,01-709-1339,2,E05,BLOOD ALKALINE PHOSPHATASE INCREASED,ALK PHOS RAISED,,BLOOD ALKALINE PHOSPHATASE INCREASED,,HLT_0615,,HLGT_0298,,INVESTIGATIONS,,INVESTIGATIONS,,MODERATE,N,,NONE,NOT RECOVERED/NOT RESOLVED,N,N,N,N,N,N,N,2013-05-12,2013-05-12,,141,
688,CDISCPILOT01,AE,01-709-1339,1,E04,HEADACHE,HEADACHE,,HEADACHE,,HLT_0064,,HLGT_0344,,NERVOUS SYSTEM DISORDERS,,NERVOUS SYSTEM DISORDERS,,MODERATE,N,,NONE,NOT RECOVERED/NOT RESOLVED,N,N,N,N,N,N,N,2013-02-19,2011-11,,,
689,CDISCPILOT01,AE,01-709-1424,1,E05,SYNCOPE,SYNCOPE,,SYNCOPE,,HLT_0440,,HLGT_0310,,NERVOUS SYSTEM DISORDERS,,NERVOUS SYSTEM DISORDERS,,MODERATE,Y,,POSSIBLE,RECOVERED/RESOLVED,N,N,N,N,N,Y,N,2013-03-08,2013-03-07,2013-03-07,5,5
690,CDISCPILOT01,AE,01-710-1002,1,E01,TRANSIENT ISCHAEMIC ATTACK,TRANSIENT ISCHEMIC ATTACKS,,TRANSIENT ISCHAEMIC ATTACK,,HLT_0041,,HLGT_0433,,NERVOUS SYSTEM DISORDERS,,NERVOUS SYSTEM DISORDERS,,MILD,N,,REMOTE,NOT RECOVERED/NOT RESOLVED,N,N,N,N,Y,N,N,2014-01-18,2014-01-16,2014-01-20,3,7
691,CDISCPILOT01,AE,01-710-1002,2,E01,TRANSIENT ISCHAEMIC ATTACK,TRANSIENT ISCHEMIC ATTACKS,,TRANSIENT ISCHAEMIC ATTACK,,HLT_0041,,HLGT_0433,,NERVOUS SYSTEM DISORDERS,,NERVOUS SYSTEM DISORDERS,,MILD,N,,REMOTE,RECOVERED/RESOLVED,N,N,N,N,Y,N,N,2014-01-20,2014-01-16,2014-01-20,3,7
692,CDISCPILOT01,AE,01-710-1006,12,E11,CONTUSION,BRUISING OF FACE,,CONTUSION,,HLT_0713,,HLGT_0381,,"INJURY, POISONING AND PROCEDURAL COMPLICATIONS",,"INJURY, POISONING AND PROCEDURAL COMPLICATIONS",,MILD,N,,NONE,NOT RECOVERED/NOT RESOLVED,N,N,N,N,N,N,N,2013-08-10,2013-08-08,,180,
693,CDISCPILOT01,AE,01-710-1006,1,E01,DIZZINESS,DIZZINESS,,DIZZINESS,,HLT_0619,,HLGT_0751,,NERVOUS SYSTEM DISORDERS,,NERVOUS SYSTEM DISORDERS,,MILD,N,,NONE,RECOVERED/RESOLVED,N,N,N,N,N,N,N,2013-02-22,2013-02-18,2013-02-19,9,10
694,CDISCPILOT01,AE,01-710-1006,4,E05,DIZZINESS,FELT FAINT,,DIZZINESS,,HLT_0619,,HLGT_0751,,NERVOUS SYSTEM DISORDERS,,NERVOUS SYSTEM DISORDERS,,MILD,N,,NONE,RECOVERED/RESOLVED,N,N,N,N,N,N,N,2013-05-04,2013-04-16,2013-04-16,66,66
695,CDISCPILOT01,AE,01-710-1006,11,E10,FACIAL BONES FRACTURE,FRACTURED NOSE,,FACIAL BONES FRACTURE,,HLT_0305,,HLGT_0585,,"INJURY, POISONING AND PROCEDURAL COMPLICATIONS",,"INJURY, POISONING AND PROCEDURAL COMPLICATIONS",,MODERATE,N,,NONE,NOT RECOVERED/NOT RESOLVED,N,N,N,N,N,N,N,2013-08-10,2013-08-08,,180,
696,CDISCPILOT01,AE,01-710-1006,10,E09,FALL,FALL,,FALL,,HLT_0168,,HLGT_0446,,"INJURY, POISONING AND PROCEDURAL COMPLICATIONS",,"INJURY, POISONING AND PROCEDURAL COMPLICATIONS",,MILD,N,,NONE,RECOVERED/RESOLVED,N,N,N,N,N,N,N,2013-08-10,2013-08-08,2013-08-08,180,180
697,CDISCPILOT01,AE,01-710-1006,6,E06,NEPHROLITHIASIS,KIDNEY STONE,,NEPHROLITHIASIS,,HLT_0439,,HLGT_0546,,RENAL AND URINARY DISORDERS,,RENAL AND URINARY DISORDERS,,MODERATE,N,,NONE,RECOVERED/RESOLVED,N,N,N,N,N,N,N,2013-05-04,2013-04-17,2013-04-17,67,67
698,CDISCPILOT01,AE,01-710-1006,7,E07,PRURITUS,PRURITUS,,PRURITUS,,HLT_0778,,HLGT_0695,,SKIN AND SUBCUTANEOUS TISSUE DISORDERS,,SKIN AND SUBCUTANEOUS TISSUE DISORDERS,,MODERATE,N,,POSSIBLE,NOT RECOVERED/NOT RESOLVED,N,N,N,N,N,N,N,2013-06-01,2013-05-18,,98,
699,CDISCPILOT01,AE,01-710-1006,2,E02,SALIVARY HYPERSECRETION,SALIVATION,,SALIVARY HYPERSECRETION,,HLT_0374,,HLGT_0488,,GASTROINTESTINAL DISORDERS,,GASTROINTESTINAL DISORDERS,,MILD,N,,POSSIBLE,NOT RECOVERED/NOT RESOLVED,N,N,N,N,N,N,N,2013-03-08,2013-03-01,,20,
700,CDISCPILOT01,AE,01-710-1006,8,E08,SINUS BRADYCARDIA,SINUS BRADYCARDIA,,SINUS BRADYCARDIA,,HLT_0644,,HLGT_0500,,CARDIAC DISORDERS,,CARDIAC DISORDERS,,MODERATE,N,,REMOTE,NOT RECOVERED/NOT RESOLVED,N,N,N,N,N,N,N,2013-06-29,2013-06-29,2013-07-04,140,145
701,CDISCPILOT01,AE,01-710-1006,9,E08,SINUS BRADYCARDIA,SINUS BRADYCARDIA,,SINUS BRADYCARDIA,,HLT_0644,,HLGT_0500,,CARDIAC DISORDERS,,CARDIAC DISORDERS,,MODERATE,N,,REMOTE,RECOVERED/RESOLVED,N,N,N,N,N,N,N,2013-07-27,2013-06-29,2013-07-04,140,145
702,CDISCPILOT01,AE,01-710-1006,3,E03,SKIN IRRITATION,SKIN IRRITATION,,SKIN IRRITATION,,HLT_0583,,HLGT_0384,,SKIN AND SUBCUTANEOUS TISSUE DISORDERS,,SKIN AND SUBCUTANEOUS TISSUE DISORDERS,,MILD,N,,POSSIBLE,NOT RECOVERED/NOT RESOLVED,N,N,N,N,N,N,N,2013-03-08,2013-03-01,,20,
703,CDISCPILOT01,AE,01-710-1006,5,E04,URINARY TRACT INFECTION,URINARY INFECTION,,URINARY TRACT INFECTION,,HLT_0161,,HLGT_0093,,INFECTIONS AND INFESTATIONS,,INFECTIONS AND INFESTATIONS,,MILD,N,,NONE,RECOVERED/RESOLVED,N,N,N,N,N,N,N,2013-05-04,2013-04-17,2013-04-19,67,69
704,CDISCPILOT01,AE,01-710-1021,1,E01,CHEST PAIN,CHEST PAIN,,CHEST PAIN,,HLT_0717,,HLGT_0195,,GENERAL DISORDERS AND ADMINISTRATION SITE CONDITIONS,,GENERAL DISORDERS AND ADMINISTRATION SITE CONDITIONS,,MILD,N,,REMOTE,RECOVERED/RESOLVED,N,N,N,N,N,N,N,2013-10-11,2013-10-10,2013-10-10,14,14
705,CDISCPILOT01,AE,01-710-1021,2,E02,PRURITUS,ITCHING,,PRURITUS,,HLT_0778,,HLGT_0695,,SKIN AND SUBCUTANEOUS TISSUE DISORDERS,,SKIN AND SUBCUTANEOUS TISSUE DISORDERS,,MODERATE,N,,POSSIBLE,NOT RECOVERED/NOT RESOLVED,N,N,N,N,N,N,N,2013-10-27,2013-10-21,2013-10-31,25,35
706,CDISCPILOT01,AE,01-710-1021,3,E02,PRURITUS,ITCHING,,PRURITUS,,HLT_0778,,HLGT_0695,,SKIN AND SUBCUTANEOUS TISSUE DISORDERS,,SKIN AND SUBCUTANEOUS TISSUE DISORDERS,,MODERATE,N,,POSSIBLE,RECOVERED/RESOLVED,N,N,N,N,N,N,N,2013-11-12,2013-10-21,2013-10-31,25,35
707,CDISCPILOT01,AE,01-710-1027,1,E05,HAEMOPTYSIS,COUGHING BLOOD,,HAEMOPTYSIS,,HLT_0192,,HLGT_0680,,"RESPIRATORY, THORACIC AND MEDIASTINAL DISORDERS",,"RESPIRATORY, THORACIC AND MEDIASTINAL DISORDERS",,MILD,N,,NONE,NOT RECOVERED/NOT RESOLVED,N,N,N,N,N,N,N,2014-05-23,2014-05-09,2014-06-01,71,94
708,CDISCPILOT01,AE,01-710-1027,3,E05,HAEMOPTYSIS,COUGHING BLOOD,,HAEMOPTYSIS,,HLT_0192,,HLGT_0680,,"RESPIRATORY, THORACIC AND MEDIASTINAL DISORDERS",,"RESPIRATORY, THORACIC AND MEDIASTINAL DISORDERS",,MILD,N,,NONE,RECOVERED/RESOLVED,N,N,N,N,N,N,N,2014-06-20,2014-05-09,2014-06-01,71,94
709,CDISCPILOT01,AE,01-710-1027,2,E06,RALES,RALES,,RALES,,HLT_0020,,HLGT_0410,,"RESPIRATORY, THORACIC AND MEDIASTINAL DISORDERS",,"RESPIRATORY, THORACIC AND MEDIASTINAL DISORDERS",,MILD,N,,NONE,NOT RECOVERED/NOT RESOLVED,N,N,N,N,N,N,N,2014-05-23,2014-05-23,2014-06-20,85,113
710,CDISCPILOT01,AE,01-710-1027,4,E06,RALES,RALES,,RALES,,HLT_0020,,HLGT_0410,,"RESPIRATORY, THORACIC AND MEDIASTINAL DISORDERS",,"RESPIRATORY, THORACIC AND MEDIASTINAL DISORDERS",,MILD,N,,NONE,RECOVERED/RESOLVED,N,N,N,N,N,N,N,2014-07-17,2014-05-23,2014-06-20,85,113
711,CDISCPILOT01,AE,01-710-1045,7,E10,ERYTHEMA,ERYTHEMA,,ERYTHEMA,,HLT_0284,,HLGT_0192,,SKIN AND SUBCUTANEOUS TISSUE DISORDERS,,SKIN AND SUBCUTANEOUS TISSUE DISORDERS,,MILD,N,,POSSIBLE,NOT RECOVERED/NOT RESOLVED,N,N,N,N,N,N,N,2013-08-17,2013-08-03,2013-08-17,62,76
712,CDISCPILOT01,AE,01-710-1045,12,E10,ERYTHEMA,ERYTHEMA,,ERYTHEMA,,HLT_0284,,HLGT_0192,,SKIN AND SUBCUTANEOUS TISSUE DISORDERS,,SKIN AND SUBCUTANEOUS TISSUE DISORDERS,,MILD,N,,POSSIBLE,RECOVERED/RESOLVED,N,N,N,N,N,N,N,2013-09-08,2013-08-03,2013-08-17,62,76
713,CDISCPILOT01,AE,01-710-1045,2,E06,NASOPHARYNGITIS,COLD SYMPTOMS,,NASOPHARYNGITIS,,HLT_0036,,HLGT_0709,,INFECTIONS AND INFESTATIONS,,INFECTIONS AND INFESTATIONS,,MILD,N,,NONE,NOT RECOVERED/NOT RESOLVED,N,N,N,N,N,N,N,2013-07-05,2013-07-02,2013-07-09,30,37
714,CDISCPILOT01,AE,01-710-1045,5,E06,NASOPHARYNGITIS,COLD SYMPTOMS,,NASOPHARYNGITIS,,HLT_0036,,HLGT_0709,,INFECTIONS AND INFESTATIONS,,INFECTIONS AND INFESTATIONS,,MILD,N,,NONE,RECOVERED/RESOLVED,N,N,N,N,N,N,N,2013-07-15,2013-07-02,2013-07-09,30,37
715,CDISCPILOT01,AE,01-710-1045,4,E08,PRURITUS,ITCHING,,PRURITUS,,HLT_0778,,HLGT_0695,,SKIN AND SUBCUTANEOUS TISSUE DISORDERS,,SKIN AND SUBCUTANEOUS TISSUE DISORDERS,,MILD,N,,POSSIBLE,NOT RECOVERED/NOT RESOLVED,N,N,N,N,N,N,N,2013-07-05,2013-07-02,2013-08-17,30,76
716,CDISCPILOT01,AE,01-710-1045,10,E08,PRURITUS,ITCHING,,PRURITUS,,HLT_0778,,HLGT_0695,,SKIN AND SUBCUTANEOUS TISSUE DISORDERS,,SKIN AND SUBCUTANEOUS TISSUE DISORDERS,,MILD,N,,POSSIBLE,RECOVERED/RESOLVED,N,N,N,N,N,N,N,2013-09-08,2013-07-02,2013-08-17,30,76
717,CDISCPILOT01,AE,01-710-1045,6,E09,RASH,RASH,,RASH,,HLT_0762,,HLGT_0198,,SKIN AND SUBCUTANEOUS TISSUE DISORDERS,,SKIN AND SUBCUTANEOUS TISSUE DISORDERS,,MILD,N,,POSSIBLE,NOT RECOVERED/NOT RESOLVED,N,N,N,N,N,N,N,2013-07-29,2013-07-22,2013-08-17,50,76
