rownames,STUDYID,DOMAIN,USUBJID,AGSEQ,AGTRT,AGCAT,AGDOSE,AGDOSEU,AGROUTE,AGLNKID,VISITNUM,VISIT,AGSTDTC
1,CDISCPILOT01,AG,01-701-1015,1,18F-Florbetaben,AMYLOID TRACER,300,MBq,Intravenous,2,3,BASELINE,2014-01-02
2,CDISCPILOT01,AG,01-701-1015,2,18F-Flortaucipir,TAU TRACER,370,MBq,Intravenous,3,3,BASELINE,2013-12-29
3,CDISCPILOT01,AG,01-701-1015,3,18F-Florbetaben,AMYLOID TRACER,300,MBq,Intravenous,5,9,WEEK 12,2014-03-26
4,CDISCPILOT01,AG,01-701-1015,4,18F-Flortaucipir,TAU TRACER,370,MBq,Intravenous,6,9,WEEK 12,2014-03-28
5,CDISCPILOT01,AG,01-701-1015,5,18F-Florbetaben,AMYLOID TRACER,300,MBq,Intravenous,8,13,WEEK 26,2014-07-02
6,CDISCPILOT01,AG,01-701-1015,6,18F-Flortaucipir,TAU TRACER,370,MBq,Intravenous,9,13,WEEK 26,2014-06-28
7,CDISCPILOT01,AG,01-701-1023,1,18F-Florbetaben,AMYLOID TRACER,300,MBq,Intravenous,2,3,BASELINE,2012-08-05
8,CDISCPILOT01,AG,01-701-1023,2,18F-Flortaucipir,TAU TRACER,370,MBq,Intravenous,3,3,BASELINE,2012-08-03
9,CDISCPILOT01,AG,01-701-1028,1,18F-Florbetapir,AMYLOID TRACER,370,MBq,Intravenous,1,3,BASELINE,2013-07-19
10,CDISCPILOT01,AG,01-701-1028,2,18F-Flortaucipir,TAU TRACER,370,MBq,Intravenous,3,3,BASELINE,2013-07-15
11,CDISCPILOT01,AG,01-701-1028,3,18F-Florbetapir,AMYLOID TRACER,370,MBq,Intravenous,4,9,WEEK 12,2013-10-09
12,CDISCPILOT01,AG,01-701-1028,4,18F-Flortaucipir,TAU TRACER,370,MBq,Intravenous,6,9,WEEK 12,2013-10-06
13,CDISCPILOT01,AG,01-701-1028,5,18F-Florbetapir,AMYLOID TRACER,370,MBq,Intravenous,7,13,WEEK 26,2014-01-14
14,CDISCPILOT01,AG,01-701-1028,6,18F-Flortaucipir,TAU TRACER,370,MBq,Intravenous,9,13,WEEK 26,2014-01-17
15,CDISCPILOT01,AG,01-701-1034,1,18F-Florbetapir,AMYLOID TRACER,370,MBq,Intravenous,1,3,BASELINE,2014-07-01
16,CDISCPILOT01,AG,01-701-1034,2,18F-Flortaucipir,TAU TRACER,370,MBq,Intravenous,3,3,BASELINE,2014-06-27
17,CDISCPILOT01,AG,01-701-1034,3,18F-Florbetapir,AMYLOID TRACER,370,MBq,Intravenous,4,9,WEEK 12,2014-09-25
18,CDISCPILOT01,AG,01-701-1034,4,18F-Flortaucipir,TAU TRACER,370,MBq,Intravenous,6,9,WEEK 12,2014-09-21
19,CDISCPILOT01,AG,01-701-1034,5,18F-Florbetapir,AMYLOID TRACER,370,MBq,Intravenous,7,13,WEEK 26,2014-12-30
20,CDISCPILOT01,AG,01-701-1034,6,18F-Flortaucipir,TAU TRACER,370,MBq,Intravenous,9,13,WEEK 26,2014-12-28
21,CDISCPILOT01,AG,01-701-1146,1,18F-Florbetapir,AMYLOID TRACER,370,MBq,Intravenous,1,3,BASELINE,2013-05-20
22,CDISCPILOT01,AG,01-701-1146,2,18F-Flortaucipir,TAU TRACER,370,MBq,Intravenous,3,3,BASELINE,2013-05-16
23,CDISCPILOT01,AG,01-701-1153,1,18F-Florbetapir,AMYLOID TRACER,370,MBq,Intravenous,1,3,BASELINE,2013-09-23
24,CDISCPILOT01,AG,01-701-1153,2,18F-Flortaucipir,TAU TRACER,370,MBq,Intravenous,3,3,BASELINE,2013-09-20
25,CDISCPILOT01,AG,01-701-1153,3,18F-Florbetapir,AMYLOID TRACER,370,MBq,Intravenous,4,9,WEEK 12,2013-12-16
26,CDISCPILOT01,AG,01-701-1153,4,18F-Flortaucipir,TAU TRACER,370,MBq,Intravenous,6,9,WEEK 12,2013-12-18
27,CDISCPILOT01,AG,01-701-1153,5,18F-Florbetapir,AMYLOID TRACER,370,MBq,Intravenous,7,13,WEEK 26,2014-04-01
28,CDISCPILOT01,AG,01-701-1153,6,18F-Flortaucipir,TAU TRACER,370,MBq,Intravenous,9,13,WEEK 26,2014-04-04
29,CDISCPILOT01,AG,01-701-1181,1,18F-Florbetaben,AMYLOID TRACER,300,MBq,Intravenous,2,3,BASELINE,2013-12-05
30,CDISCPILOT01,AG,01-701-1181,2,18F-Flortaucipir,TAU TRACER,370,MBq,Intravenous,3,3,BASELINE,2013-12-02
31,CDISCPILOT01,AG,01-701-1234,1,18F-Florbetapir,AMYLOID TRACER,370,MBq,Intravenous,1,3,BASELINE,2013-03-30
32,CDISCPILOT01,AG,01-701-1234,2,18F-Flortaucipir,TAU TRACER,370,MBq,Intravenous,3,3,BASELINE,2013-03-26
33,CDISCPILOT01,AG,01-701-1234,3,18F-Florbetapir,AMYLOID TRACER,370,MBq,Intravenous,4,9,WEEK 12,2013-07-07
34,CDISCPILOT01,AG,01-701-1234,4,18F-Flortaucipir,TAU TRACER,370,MBq,Intravenous,6,9,WEEK 12,2013-07-11
35,CDISCPILOT01,AG,01-701-1234,5,18F-Florbetapir,AMYLOID TRACER,370,MBq,Intravenous,7,13,WEEK 26,2013-09-22
36,CDISCPILOT01,AG,01-701-1234,6,18F-Flortaucipir,TAU TRACER,370,MBq,Intravenous,9,13,WEEK 26,2013-09-20
37,CDISCPILOT01,AG,01-701-1275,1,18F-Florbetaben,AMYLOID TRACER,300,MBq,Intravenous,2,3,BASELINE,2014-02-07
38,CDISCPILOT01,AG,01-701-1275,2,18F-Flortaucipir,TAU TRACER,370,MBq,Intravenous,3,3,BASELINE,2014-02-03
39,CDISCPILOT01,AG,01-701-1275,3,18F-Florbetaben,AMYLOID TRACER,300,MBq,Intravenous,5,9,WEEK 12,2014-05-03
40,CDISCPILOT01,AG,01-701-1275,4,18F-Flortaucipir,TAU TRACER,370,MBq,Intravenous,6,9,WEEK 12,2014-04-29
41,CDISCPILOT01,AG,01-701-1302,1,18F-Florbetaben,AMYLOID TRACER,300,MBq,Intravenous,2,3,BASELINE,2013-08-29
42,CDISCPILOT01,AG,01-701-1302,2,18F-Flortaucipir,TAU TRACER,370,MBq,Intravenous,3,3,BASELINE,2013-08-26
43,CDISCPILOT01,AG,01-701-1302,3,18F-Florbetaben,AMYLOID TRACER,300,MBq,Intravenous,5,9,WEEK 12,2013-11-05
44,CDISCPILOT01,AG,01-701-1302,4,18F-Flortaucipir,TAU TRACER,370,MBq,Intravenous,6,9,WEEK 12,2013-11-09
45,CDISCPILOT01,AG,01-701-1345,1,18F-Florbetaben,AMYLOID TRACER,300,MBq,Intravenous,2,3,BASELINE,2013-10-08
46,CDISCPILOT01,AG,01-701-1345,2,18F-Flortaucipir,TAU TRACER,370,MBq,Intravenous,3,3,BASELINE,2013-10-06
47,CDISCPILOT01,AG,01-701-1345,3,18F-Florbetaben,AMYLOID TRACER,300,MBq,Intravenous,5,9,WEEK 12,2013-12-31
48,CDISCPILOT01,AG,01-701-1345,4,18F-Flortaucipir,TAU TRACER,370,MBq,Intravenous,6,9,WEEK 12,2013-12-28
49,CDISCPILOT01,AG,01-701-1360,1,18F-Florbetapir,AMYLOID TRACER,370,MBq,Intravenous,1,3,BASELINE,2013-07-31
50,CDISCPILOT01,AG,01-701-1360,2,18F-Flortaucipir,TAU TRACER,370,MBq,Intravenous,3,3,BASELINE,2013-07-28
51,CDISCPILOT01,AG,01-701-1383,1,18F-Florbetapir,AMYLOID TRACER,370,MBq,Intravenous,1,3,BASELINE,2013-02-04
52,CDISCPILOT01,AG,01-701-1383,2,18F-Flortaucipir,TAU TRACER,370,MBq,Intravenous,3,3,BASELINE,2013-02-02
53,CDISCPILOT01,AG,01-701-1383,3,18F-Florbetapir,AMYLOID TRACER,370,MBq,Intravenous,4,9,WEEK 12,2013-04-30
54,CDISCPILOT01,AG,01-701-1383,4,18F-Flortaucipir,TAU TRACER,370,MBq,Intravenous,6,9,WEEK 12,2013-04-28
55,CDISCPILOT01,AG,01-701-1383,5,18F-Florbetapir,AMYLOID TRACER,370,MBq,Intravenous,7,13,WEEK 26,2013-08-06
56,CDISCPILOT01,AG,01-701-1383,6,18F-Flortaucipir,TAU TRACER,370,MBq,Intravenous,9,13,WEEK 26,2013-08-02
57,CDISCPILOT01,AG,01-701-1392,1,18F-Florbetapir,AMYLOID TRACER,370,MBq,Intravenous,1,3,BASELINE,2012-10-28
58,CDISCPILOT01,AG,01-701-1392,2,18F-Flortaucipir,TAU TRACER,370,MBq,Intravenous,3,3,BASELINE,2012-10-24
59,CDISCPILOT01,AG,01-701-1392,3,18F-Florbetapir,AMYLOID TRACER,370,MBq,Intravenous,4,9,WEEK 12,2013-01-20
60,CDISCPILOT01,AG,01-701-1392,4,18F-Flortaucipir,TAU TRACER,370,MBq,Intravenous,6,9,WEEK 12,2013-01-17
61,CDISCPILOT01,AG,01-701-1392,5,18F-Florbetapir,AMYLOID TRACER,370,MBq,Intravenous,7,13,WEEK 26,2013-04-28
62,CDISCPILOT01,AG,01-701-1392,6,18F-Flortaucipir,TAU TRACER,370,MBq,Intravenous,9,13,WEEK 26,2013-05-02
63,CDISCPILOT01,AG,01-714-1288,1,18F-Florbetapir,AMYLOID TRACER,370,MBq,Intravenous,1,3,BASELINE,2013-12-04
64,CDISCPILOT01,AG,01-714-1288,2,18F-Flortaucipir,TAU TRACER,370,MBq,Intravenous,3,3,BASELINE,2013-12-02
65,CDISCPILOT01,AG,01-714-1288,3,18F-Florbetapir,AMYLOID TRACER,370,MBq,Intravenous,4,9,WEEK 12,2014-03-02
66,CDISCPILOT01,AG,01-714-1288,4,18F-Flortaucipir,TAU TRACER,370,MBq,Intravenous,6,9,WEEK 12,2014-03-04
67,CDISCPILOT01,AG,01-714-1288,5,18F-Florbetapir,AMYLOID TRACER,370,MBq,Intravenous,7,13,WEEK 26,2014-06-17
68,CDISCPILOT01,AG,01-714-1288,6,18F-Flortaucipir,TAU TRACER,370,MBq,Intravenous,9,13,WEEK 26,2014-06-20
