rownames,STUDYID,DOMAIN,USUBJID,BESEQ,BEREFID,BELNKID,BETERM,BECAT,BELOC,VISITNUM,BEDTC,BESTDTC,BEENDTC
1,CDISCPILOT01,BE,01-701-1015,1,SPEC1.1,,Specimen Collection,COLLECTION,SKIN OF THE AXILLA,1,2025-06-14T08:00,2025-06-14T08:00,
2,CDISCPILOT01,BE,01-701-1015,2,ALIQ1.1.1,,Aliquoting,PREPARATION,SKIN OF THE AXILLA,1,2025-06-14T08:00,2025-06-14T09:00,
3,CDISCPILOT01,BE,01-701-1015,3,ALIQ1.1.2,,Aliquoting,PREPARATION,SKIN OF THE AXILLA,1,2025-06-14T08:00,2025-06-15T09:30,
4,CDISCPILOT01,BE,01-701-1015,4,ALIQ1.1.2-C,,Culturing,CULTURE,SKIN OF THE AXILLA,1,2025-06-14T08:00,2025-06-15T10:00,2025-06-30T10:00
5,CDISCPILOT01,BE,01-701-1015,5,ALIQ1.1.3,,Aliquoting,PREPARATION,SKIN OF THE AXILLA,1,2025-06-14T08:00,2025-06-15T09:45,
6,CDISCPILOT01,BE,01-701-1015,6,ALIQ1.1.3-C,,Culturing,CULTURE,SKIN OF THE AXILLA,1,2025-06-14T08:00,2025-06-15T11:00,2025-06-30T11:00
7,CDISCPILOT01,BE,01-701-1015,7,SPEC1.2,,Specimen Collection,COLLECTION,SKIN OF THE AXILLA,2,2025-06-21T08:00,2025-06-21T08:00,
8,CDISCPILOT01,BE,01-701-1015,8,ALIQ1.2.1,,Aliquoting,PREPARATION,SKIN OF THE AXILLA,2,2025-06-21T08:00,2025-06-22T09:30,
9,CDISCPILOT01,BE,01-701-1015,9,ALIQ1.2.1-C,,Culturing,CULTURE,SKIN OF THE AXILLA,2,2025-06-21T08:00,2025-06-22T10:00,2025-07-07T10:00
10,CDISCPILOT01,BE,01-701-1023,1,SPEC2.1,,Specimen Collection,COLLECTION,URINARY SYSTEM,1,2025-07-15T08:00,2025-07-15T08:00,
11,CDISCPILOT01,BE,01-701-1023,2,ALIQ2.1.1,,Aliquoting,PREPARATION,URINARY SYSTEM,1,2025-07-15T08:00,2025-07-15T09:30,
12,CDISCPILOT01,BE,01-701-1023,3,ALIQ2.1.2,,Aliquoting,PREPARATION,URINARY SYSTEM,1,2025-07-15T08:00,2025-07-16T09:30,
13,CDISCPILOT01,BE,01-701-1023,4,ALIQ2.1.2-C,,Culturing,CULTURE,URINARY SYSTEM,1,2025-07-15T08:00,2025-07-16T10:00,2025-07-31T10:00
14,CDISCPILOT01,BE,01-701-1023,5,SPEC2.2,,Specimen Collection,COLLECTION,URINARY SYSTEM,2,2025-07-22T08:00,2025-07-22T08:00,
15,CDISCPILOT01,BE,01-701-1023,6,ALIQ2.2.1,,Aliquoting,PREPARATION,URINARY SYSTEM,2,2025-07-22T08:00,2025-07-23T09:30,
16,CDISCPILOT01,BE,01-701-1023,7,ALIQ2.2.1-C,,Culturing,CULTURE,URINARY SYSTEM,2,2025-07-22T08:00,2025-07-23T10:00,2025-08-07T10:00
17,CDISCPILOT01,BE,01-701-1028,1,SPEC3.1,,Specimen Collection,COLLECTION,SKIN OF THE AXILLA,1,2025-08-11T08:00,2025-08-11T08:00,
18,CDISCPILOT01,BE,01-701-1028,2,ALIQ3.1.1,,Aliquoting,PREPARATION,SKIN OF THE AXILLA,1,2025-08-11T08:00,2025-08-12T09:30,
19,CDISCPILOT01,BE,01-701-1028,3,ALIQ3.1.1-C,,Culturing,CULTURE,SKIN OF THE AXILLA,1,2025-08-11T08:00,2025-08-12T10:00,2025-08-27T10:00
20,CDISCPILOT01,BE,01-701-1028,4,ALIQ3.1.2,,Aliquoting,PREPARATION,SKIN OF THE AXILLA,1,2025-08-11T08:00,2025-08-30T09:30,
21,CDISCPILOT01,BE,01-701-1028,5,ALIQ3.1.2-C,,Culturing,CULTURE,SKIN OF THE AXILLA,1,2025-08-11T08:00,2025-08-30T10:00,2025-09-14T10:00
22,CDISCPILOT01,BE,01-701-1033,1,SPEC4.1,,Specimen Collection,COLLECTION,LUNG,1,2025-09-10T08:00,2025-09-10T08:00,
23,CDISCPILOT01,BE,01-701-1033,2,ALIQ4.1.1,,Aliquoting,PREPARATION,LUNG,1,2025-09-10T08:00,2025-09-11T09:30,
24,CDISCPILOT01,BE,01-701-1033,3,ALIQ4.1.1-C,,Culturing,CULTURE,LUNG,1,2025-09-10T08:00,2025-09-11T10:00,2025-09-26T10:00
25,CDISCPILOT01,BE,01-701-1034,1,SPEC5.1,,Specimen Collection,COLLECTION,LUNG,1,2025-10-05T08:00,2025-10-05T08:00,
26,CDISCPILOT01,BE,01-701-1034,2,ALIQ5.1.1,,Aliquoting,PREPARATION,LUNG,1,2025-10-05T08:00,2025-10-05T09:30,
27,CDISCPILOT01,BE,01-701-1034,3,ALIQ5.1.1-C,,Culturing,CULTURE,LUNG,1,2025-10-05T08:00,2025-10-05T10:00,2025-10-20T10:00
28,CDISCPILOT01,BE,01-701-1034,4,ALIQ5.1.2,,Aliquoting,PREPARATION,LUNG,1,2025-10-05T08:00,2025-10-05T09:45,
29,CDISCPILOT01,BE,01-701-1034,5,ALIQ5.1.2-C,,Culturing,CULTURE,LUNG,1,2025-10-05T08:00,2025-10-05T11:00,2025-10-20T11:00
30,CDISCPILOT01,BE,01-701-1034,6,SPEC5.2,,Specimen Collection,COLLECTION,LUNG,2,2025-10-15T08:00,2025-10-15T08:00,
31,CDISCPILOT01,BE,01-701-1034,7,ALIQ5.2.1,,Aliquoting,PREPARATION,LUNG,2,2025-10-15T08:00,2025-10-16T09:30,
32,CDISCPILOT01,BE,01-701-1034,8,ALIQ5.2.1-C,,Culturing,CULTURE,LUNG,2,2025-10-15T08:00,2025-10-16T10:00,2025-10-31T10:00
33,CDISCPILOT01,BE,01-701-1034,9,ALIQ5.2.2,,Aliquoting,PREPARATION,LUNG,2,2025-10-15T08:00,2025-10-16T09:45,
34,CDISCPILOT01,BE,01-701-1034,10,ALIQ5.2.2-C,,Culturing,CULTURE,LUNG,2,2025-10-15T08:00,2025-10-16T11:00,2025-10-31T11:00
35,CDISCPILOT01,BE,01-701-1047,1,SPEC6.1,,Specimen Collection,COLLECTION,LUNG,1,2025-11-01T08:00,2025-11-01T08:00,
36,CDISCPILOT01,BE,01-701-1047,2,ALIQ6.1.1,,Aliquoting,PREPARATION,LUNG,1,2025-11-01T08:00,2025-11-01T09:30,
37,CDISCPILOT01,BE,01-701-1047,3,ALIQ6.1.1-C,,Culturing,CULTURE,LUNG,1,2025-11-01T08:00,2025-11-01T10:00,2025-11-16T10:00
38,CDISCPILOT01,BE,01-701-1047,4,ALIQ6.1.2,,Aliquoting,PREPARATION,LUNG,1,2025-11-01T08:00,2025-11-01T09:30,
39,CDISCPILOT01,BE,01-701-1047,5,ALIQ6.1.2-C,,Culturing,CULTURE,LUNG,1,2025-11-01T08:00,2025-11-01T10:00,2025-11-16T10:00
40,CDISCPILOT01,BE,01-701-1057,1,SPEC7.1,,Specimen Collection,COLLECTION,STOMACH,1,2025-12-01T08:00,2025-12-01T08:00,
41,CDISCPILOT01,BE,01-701-1057,2,ALIQ7.1.1,,Aliquoting,PREPARATION,STOMACH,1,2025-12-01T08:00,2025-12-01T09:30,
42,CDISCPILOT01,BE,01-701-1057,3,ALIQ7.1.1,,Aliquoting,PREPARATION,STOMACH,1,2025-12-01T08:00,2025-12-02T09:30,
43,CDISCPILOT01,BE,01-701-1057,4,ALIQ7.1.1-C,,Culturing,CULTURE,STOMACH,1,2025-12-01T08:00,2025-12-02T10:00,2025-12-17T10:00
