rownames,STUDYID,DOMAIN,USUBJID,CESEQ,CELNKID,CELNKGRP,CETERM,CEDECOD,CELAT,CELOC,CECAT,CESCAT,CEPRESP,CEOCCUR,CESEV,CEREL,CEOUT,EPOCH,CEDTC,CESTDTC,CEENDTC,CEDUR,CETPT,CETPTNUM,CETPTREF,CERFTDTC,CEEVINTX,CESTAT,CEREASND
1,ABC,CE,ABC-1001,1,VACCINATION 1-CHILLS,VACCINATION 1 - CHILLS,CHILLS,Chills,,,REACTOGENICITY,SYSTEMIC,Y,N,,,,,,,,,DAY 7,7,VACCINATION 1,2021-11-03T10:50:00,SINCE VACCINATION,,
2,ABC,CE,ABC-1001,2,VACCINATION 1-DELTOID MUSCLE-LEFT-PAIN AT INJECTION SITE,VACCINATION 1 - PAIN AT INJECTION SITE,PAIN AT INJECTION SITE,Injection site pain,LEFT,DELTOID MUSCLE,REACTOGENICITY,ADMINISTRATION SITE,Y,Y,MODERATE,RELATED,RECOVERED/RESOLVED,VACCINATION 1,2021-11-09,2021-11-04,2021-11-07,P4D,DAY 7,7,VACCINATION 1,2021-11-03T10:50:00,SINCE VACCINATION,,
3,ABC,CE,ABC-1001,3,VACCINATION 1-DELTOID MUSCLE-LEFT-REDNESS,VACCINATION 1 - REDNESS,REDNESS,Erythema,LEFT,DELTOID MUSCLE,REACTOGENICITY,ADMINISTRATION SITE,Y,Y,MODERATE,RELATED,RECOVERED/RESOLVED,VACCINATION 1,2021-11-06,2021-11-04,2021-11-04,P1D,DAY 7,7,VACCINATION 1,2021-11-03T10:50:00,SINCE VACCINATION,,
4,ABC,CE,ABC-1001,4,VACCINATION 1-DELTOID MUSCLE-LEFT-SWELLING,VACCINATION 1 - SWELLING,SWELLING,Swelling,LEFT,DELTOID MUSCLE,REACTOGENICITY,ADMINISTRATION SITE,Y,Y,MODERATE,RELATED,RECOVERED/RESOLVED,VACCINATION 1,2021-11-11,2021-11-03,2021-11-09,P7D,DAY 7,7,VACCINATION 1,2021-11-03T10:50:00,SINCE VACCINATION,,
5,ABC,CE,ABC-1001,5,VACCINATION 1-DIARRHEA,VACCINATION 1 - DIARRHEA,DIARRHEA,Diarrhoea,,,REACTOGENICITY,SYSTEMIC,Y,N,,,,,,,,,DAY 7,7,VACCINATION 1,2021-11-03T10:50:00,SINCE VACCINATION,,
6,ABC,CE,ABC-1001,6,VACCINATION 1-FATIGUE,VACCINATION 1 - FATIGUE,FATIGUE,Fatigue,,,REACTOGENICITY,SYSTEMIC,Y,Y,MILD,RELATED,RECOVERED/RESOLVED,VACCINATION 1,2021-11-06,2021-11-03,2021-11-04,P2D,DAY 7,7,VACCINATION 1,2021-11-03T10:50:00,SINCE VACCINATION,,
7,ABC,CE,ABC-1001,7,VACCINATION 1-FEVER,VACCINATION 1 - FEVER,FEVER,Pyrexia,,,REACTOGENICITY,SYSTEMIC,Y,N,,,,,,,,,DAY 7,7,VACCINATION 1,2021-11-03T10:50:00,SINCE VACCINATION,,
8,ABC,CE,ABC-1001,8,VACCINATION 1-HEADACHE,VACCINATION 1 - HEADACHE,HEADACHE,Headache,,,REACTOGENICITY,SYSTEMIC,Y,N,,,,,,,,,DAY 7,7,VACCINATION 1,2021-11-03T10:50:00,SINCE VACCINATION,,
9,ABC,CE,ABC-1001,9,VACCINATION 1-NEW OR WORSENED JOINT PAIN,VACCINATION 1 - NEW OR WORSENED JOINT PAIN,NEW OR WORSENED JOINT PAIN,Arthralgia,,,REACTOGENICITY,SYSTEMIC,Y,Y,MILD,RELATED,RECOVERED/RESOLVED,VACCINATION 1,2021-11-06,2021-11-04,2021-11-04,P1D,DAY 7,7,VACCINATION 1,2021-11-03T10:50:00,SINCE VACCINATION,,
10,ABC,CE,ABC-1001,10,VACCINATION 1-NEW OR WORSENED MUSCLE PAIN,VACCINATION 1 - NEW OR WORSENED MUSCLE PAIN,NEW OR WORSENED MUSCLE PAIN,Myalgia,,,REACTOGENICITY,SYSTEMIC,Y,Y,MILD,RELATED,RECOVERED/RESOLVED,VACCINATION 1,2021-11-06,2021-11-04,2021-11-04,P1D,DAY 7,7,VACCINATION 1,2021-11-03T10:50:00,SINCE VACCINATION,,
11,ABC,CE,ABC-1001,11,VACCINATION 1-VOMITING,VACCINATION 1 - VOMITING,VOMITING,Vomiting,,,REACTOGENICITY,SYSTEMIC,Y,N,,,,,,,,,DAY 7,7,VACCINATION 1,2021-11-03T10:50:00,SINCE VACCINATION,,
12,ABC,CE,ABC-1001,12,VACCINATION 2-CHILLS,VACCINATION 2 - CHILLS,CHILLS,Chills,,,REACTOGENICITY,SYSTEMIC,Y,,,,,,,,,,DAY 7,7,VACCINATION 2,2021-12-30T09:10:00,SINCE VACCINATION,NOT DONE,SUBJECT DID NOT COMPLETE ELECTRONIC DIARY
13,ABC,CE,ABC-1001,13,VACCINATION 2-DELTOID MUSCLE-LEFT-PAIN AT INJECTION SITE,VACCINATION 2 - PAIN AT INJECTION SITE,PAIN AT INJECTION SITE,Injection site pain,LEFT,DELTOID MUSCLE,REACTOGENICITY,ADMINISTRATION SITE,Y,,,,,,,,,,DAY 7,7,VACCINATION 2,2021-12-30T09:10:00,SINCE VACCINATION,NOT DONE,SUBJECT DID NOT COMPLETE ELECTRONIC DIARY
14,ABC,CE,ABC-1001,14,VACCINATION 2-DELTOID MUSCLE-LEFT-REDNESS,VACCINATION 2 - REDNESS,REDNESS,Erythema,LEFT,DELTOID MUSCLE,REACTOGENICITY,ADMINISTRATION SITE,Y,,,,,,,,,,DAY 7,7,VACCINATION 2,2021-12-30T09:10:00,SINCE VACCINATION,NOT DONE,SUBJECT DID NOT COMPLETE ELECTRONIC DIARY
15,ABC,CE,ABC-1001,15,VACCINATION 2-DELTOID MUSCLE-LEFT-SWELLING,VACCINATION 2 - SWELLING,SWELLING,Swelling,LEFT,DELTOID MUSCLE,REACTOGENICITY,ADMINISTRATION SITE,Y,,,,,,,,,,DAY 7,7,VACCINATION 2,2021-12-30T09:10:00,SINCE VACCINATION,NOT DONE,SUBJECT DID NOT COMPLETE ELECTRONIC DIARY
16,ABC,CE,ABC-1001,16,VACCINATION 2-DIARRHEA,VACCINATION 2 - DIARRHEA,DIARRHEA,Diarrhoea,,,REACTOGENICITY,SYSTEMIC,Y,,,,,,,,,,DAY 7,7,VACCINATION 2,2021-12-30T09:10:00,SINCE VACCINATION,NOT DONE,SUBJECT DID NOT COMPLETE ELECTRONIC DIARY
17,ABC,CE,ABC-1001,17,VACCINATION 2-FATIGUE,VACCINATION 2 - FATIGUE,FATIGUE,Fatigue,,,REACTOGENICITY,SYSTEMIC,Y,,,,,,,,,,DAY 7,7,VACCINATION 2,2021-12-30T09:10:00,SINCE VACCINATION,NOT DONE,SUBJECT DID NOT COMPLETE ELECTRONIC DIARY
18,ABC,CE,ABC-1001,18,VACCINATION 2-FEVER,VACCINATION 2 - FEVER,FEVER,Pyrexia,,,REACTOGENICITY,SYSTEMIC,Y,,,,,,,,,,DAY 7,7,VACCINATION 2,2021-12-30T09:10:00,SINCE VACCINATION,NOT DONE,SUBJECT DID NOT COMPLETE ELECTRONIC DIARY
19,ABC,CE,ABC-1001,19,VACCINATION 2-HEADACHE,VACCINATION 2 - HEADACHE,HEADACHE,Headache,,,REACTOGENICITY,SYSTEMIC,Y,,,,,,,,,,DAY 7,7,VACCINATION 2,2021-12-30T09:10:00,SINCE VACCINATION,NOT DONE,SUBJECT DID NOT COMPLETE ELECTRONIC DIARY
20,ABC,CE,ABC-1001,20,VACCINATION 2-NEW OR WORSENED JOINT PAIN,VACCINATION 2 - NEW OR WORSENED JOINT PAIN,NEW OR WORSENED JOINT PAIN,Arthralgia,,,REACTOGENICITY,SYSTEMIC,Y,,,,,,,,,,DAY 7,7,VACCINATION 2,2021-12-30T09:10:00,SINCE VACCINATION,NOT DONE,SUBJECT DID NOT COMPLETE ELECTRONIC DIARY
21,ABC,CE,ABC-1001,21,VACCINATION 2-NEW OR WORSENED MUSCLE PAIN,VACCINATION 2 - NEW OR WORSENED MUSCLE PAIN,NEW OR WORSENED MUSCLE PAIN,Myalgia,,,REACTOGENICITY,SYSTEMIC,Y,,,,,,,,,,DAY 7,7,VACCINATION 2,2021-12-30T09:10:00,SINCE VACCINATION,NOT DONE,SUBJECT DID NOT COMPLETE ELECTRONIC DIARY
22,ABC,CE,ABC-1001,22,VACCINATION 2-VOMITING,VACCINATION 2 - VOMITING,VOMITING,Vomiting,,,REACTOGENICITY,SYSTEMIC,Y,,,,,,,,,,DAY 7,7,VACCINATION 2,2021-12-30T09:10:00,SINCE VACCINATION,NOT DONE,SUBJECT DID NOT COMPLETE ELECTRONIC DIARY
23,ABC,CE,ABC-1002,1,VACCINATION 1-CHILLS,VACCINATION 1 - CHILLS,CHILLS,Chills,,,REACTOGENICITY,SYSTEMIC,Y,N,,,,,,,,,DAY 7,7,VACCINATION 1,2021-10-07T12:48:00,SINCE VACCINATION,,
24,ABC,CE,ABC-1002,2,VACCINATION 1-DELTOID MUSCLE-LEFT-PAIN AT INJECTION SITE,VACCINATION 1 - PAIN AT INJECTION SITE,PAIN AT INJECTION SITE,Injection site pain,LEFT,DELTOID MUSCLE,REACTOGENICITY,ADMINISTRATION SITE,Y,N,,,,,,,,,DAY 7,7,VACCINATION 1,2021-10-07T12:48:00,SINCE VACCINATION,,
25,ABC,CE,ABC-1002,3,VACCINATION 1-DELTOID MUSCLE-LEFT-REDNESS,VACCINATION 1 - REDNESS,REDNESS,Erythema,LEFT,DELTOID MUSCLE,REACTOGENICITY,ADMINISTRATION SITE,Y,Y,MILD,RELATED,RECOVERED/RESOLVED,VACCINATION 1,2021-10-11,2021-10-09,2021-10-09,P1D,DAY 7,7,VACCINATION 1,2021-10-07T12:48:00,SINCE VACCINATION,,
26,ABC,CE,ABC-1002,4,VACCINATION 1-DELTOID MUSCLE-LEFT-SWELLING,VACCINATION 1 - SWELLING,SWELLING,Swelling,LEFT,DELTOID MUSCLE,REACTOGENICITY,ADMINISTRATION SITE,Y,N,,,,,,,,,DAY 7,7,VACCINATION 1,2021-10-07T12:48:00,SINCE VACCINATION,,
27,ABC,CE,ABC-1002,5,VACCINATION 1-DIARRHEA,VACCINATION 1 - DIARRHEA,DIARRHEA,Diarrhoea,,,REACTOGENICITY,SYSTEMIC,Y,N,,,,,,,,,DAY 7,7,VACCINATION 1,2021-10-07T12:48:00,SINCE VACCINATION,,
28,ABC,CE,ABC-1002,6,VACCINATION 1-FATIGUE,VACCINATION 1 - FATIGUE,FATIGUE,Fatigue,,,REACTOGENICITY,SYSTEMIC,Y,N,,,,,,,,,DAY 7,7,VACCINATION 1,2021-10-07T12:48:00,SINCE VACCINATION,,
29,ABC,CE,ABC-1002,7,VACCINATION 1-FEVER,VACCINATION 1 - FEVER,FEVER,Pyrexia,,,REACTOGENICITY,SYSTEMIC,Y,N,,,,,,,,,DAY 7,7,VACCINATION 1,2021-10-07T12:48:00,SINCE VACCINATION,,
30,ABC,CE,ABC-1002,8,VACCINATION 1-HEADACHE,VACCINATION 1 - HEADACHE,HEADACHE,Headache,,,REACTOGENICITY,SYSTEMIC,Y,Y,MODERATE,RELATED,RECOVERED/RESOLVED,VACCINATION 1,2021-10-13,2021-10-11,2021-10-11,P1D,DAY 7,7,VACCINATION 1,2021-10-07T12:48:00,SINCE VACCINATION,,
31,ABC,CE,ABC-1002,9,VACCINATION 1-NEW OR WORSENED JOINT PAIN,VACCINATION 1 - NEW OR WORSENED JOINT PAIN,NEW OR WORSENED JOINT PAIN,Arthralgia,,,REACTOGENICITY,SYSTEMIC,Y,N,,,,,,,,,DAY 7,7,VACCINATION 1,2021-10-07T12:48:00,SINCE VACCINATION,,
32,ABC,CE,ABC-1002,10,VACCINATION 1-NEW OR WORSENED MUSCLE PAIN,VACCINATION 1 - NEW OR WORSENED MUSCLE PAIN,NEW OR WORSENED MUSCLE PAIN,Myalgia,,,REACTOGENICITY,SYSTEMIC,Y,N,,,,,,,,,DAY 7,7,VACCINATION 1,2021-10-07T12:48:00,SINCE VACCINATION,,
33,ABC,CE,ABC-1002,11,VACCINATION 1-VOMITING,VACCINATION 1 - VOMITING,VOMITING,Vomiting,,,REACTOGENICITY,SYSTEMIC,Y,N,,,,,,,,,DAY 7,7,VACCINATION 1,2021-10-07T12:48:00,SINCE VACCINATION,,
34,ABC,CE,ABC-1002,12,VACCINATION 2-CHILLS,VACCINATION 2 - CHILLS,CHILLS,Chills,,,REACTOGENICITY,SYSTEMIC,Y,N,,,,,,,,,DAY 7,7,VACCINATION 2,2021-12-16T12:41:00,SINCE VACCINATION,,
35,ABC,CE,ABC-1002,13,VACCINATION 2-DELTOID MUSCLE-LEFT-PAIN AT INJECTION SITE,VACCINATION 2 - PAIN AT INJECTION SITE,PAIN AT INJECTION SITE,Injection site pain,LEFT,DELTOID MUSCLE,REACTOGENICITY,ADMINISTRATION SITE,Y,Y,MILD,RELATED,RECOVERED/RESOLVED,VACCINATION 2,2021-12-21,2021-12-16,2021-12-19,P4D,DAY 7,7,VACCINATION 2,2021-12-16T12:41:00,SINCE VACCINATION,,
36,ABC,CE,ABC-1002,14,VACCINATION 2-DELTOID MUSCLE-LEFT-REDNESS,VACCINATION 2 - REDNESS,REDNESS,Erythema,LEFT,DELTOID MUSCLE,REACTOGENICITY,ADMINISTRATION SITE,Y,Y,MILD,RELATED,RECOVERED/RESOLVED,VACCINATION 2,2021-12-23,2021-12-17,2021-12-21,P5D,DAY 7,7,VACCINATION 2,2021-12-16T12:41:00,SINCE VACCINATION,,
37,ABC,CE,ABC-1002,15,VACCINATION 2-DELTOID MUSCLE-LEFT-SWELLING,VACCINATION 2 - SWELLING,SWELLING,Swelling,LEFT,DELTOID MUSCLE,REACTOGENICITY,ADMINISTRATION SITE,Y,Y,MILD,RELATED,RECOVERED/RESOLVED,VACCINATION 2,2021-12-21,2021-12-17,2021-12-19,P3D,DAY 7,7,VACCINATION 2,2021-12-16T12:41:00,SINCE VACCINATION,,
38,ABC,CE,ABC-1002,16,VACCINATION 2-DIARRHEA,VACCINATION 2 - DIARRHEA,DIARRHEA,Diarrhoea,,,REACTOGENICITY,SYSTEMIC,Y,N,,,,,,,,,DAY 7,7,VACCINATION 2,2021-12-16T12:41:00,SINCE VACCINATION,,
39,ABC,CE,ABC-1002,17,VACCINATION 2-FATIGUE,VACCINATION 2 - FATIGUE,FATIGUE,Fatigue,,,REACTOGENICITY,SYSTEMIC,Y,N,,,,,,,,,DAY 7,7,VACCINATION 2,2021-12-16T12:41:00,SINCE VACCINATION,,
40,ABC,CE,ABC-1002,18,VACCINATION 2-FEVER,VACCINATION 2 - FEVER,FEVER,Pyrexia,,,REACTOGENICITY,SYSTEMIC,Y,N,,,,,,,,,DAY 7,7,VACCINATION 2,2021-12-16T12:41:00,SINCE VACCINATION,,
41,ABC,CE,ABC-1002,19,VACCINATION 2-HEADACHE,VACCINATION 2 - HEADACHE,HEADACHE,Headache,,,REACTOGENICITY,SYSTEMIC,Y,Y,MILD,RELATED,RECOVERED/RESOLVED,VACCINATION 2,2021-12-23,2021-12-21,2021-12-21,P1D,DAY 7,7,VACCINATION 2,2021-12-16T12:41:00,SINCE VACCINATION,,
42,ABC,CE,ABC-1002,20,VACCINATION 2-NEW OR WORSENED JOINT PAIN,VACCINATION 2 - NEW OR WORSENED JOINT PAIN,NEW OR WORSENED JOINT PAIN,Arthralgia,,,REACTOGENICITY,SYSTEMIC,Y,N,,,,,,,,,DAY 7,7,VACCINATION 2,2021-12-16T12:41:00,SINCE VACCINATION,,
43,ABC,CE,ABC-1002,21,VACCINATION 2-NEW OR WORSENED MUSCLE PAIN,VACCINATION 2 - NEW OR WORSENED MUSCLE PAIN,NEW OR WORSENED MUSCLE PAIN,Myalgia,,,REACTOGENICITY,SYSTEMIC,Y,N,,,,,,,,,DAY 7,7,VACCINATION 2,2021-12-16T12:41:00,SINCE VACCINATION,,
44,ABC,CE,ABC-1002,22,VACCINATION 2-VOMITING,VACCINATION 2 - VOMITING,VOMITING,Vomiting,,,REACTOGENICITY,SYSTEMIC,Y,N,,,,,,,,,DAY 7,7,VACCINATION 2,2021-12-16T12:41:00,SINCE VACCINATION,,
