rownames,STUDYID,DOMAIN,USUBJID,SUBJID,RFSTDTC,RFENDTC,RFXSTDTC,RFXENDTC,RFICDTC,RFPENDTC,DTHDTC,DTHFL,SITEID,BRTHDTC,AGE,AGEU,SEX,RACE,ETHNIC,ARMCD,ARM,ACTARMCD,ACTARM,COUNTRY,DMDTC,DMDY,ARMNRS,ACTARMUD
1,CDISCPILOT01,DM,01-701-1015,1015,2014-01-02,2014-07-02,2014-01-02,2014-07-02,2013-12-31,2014-07-02T11:45,,,701,1950-12-26,63,YEARS,F,WHITE,HISPANIC OR LATINO,Pbo,Placebo,Pbo,Placebo,USA,2013-12-26,-7,,
2,CDISCPILOT01,DM,01-701-1023,1023,2012-08-05,2012-09-02,2012-08-05,2012-09-01,2012-08-03,2013-02-18,,,701,1948-07-22,64,YEARS,M,WHITE,HISPANIC OR LATINO,Pbo,Placebo,Pbo,Placebo,USA,2012-07-22,-14,,
3,CDISCPILOT01,DM,01-701-1028,1028,2013-07-19,2014-01-14,,,2013-07-17,2014-01-14T11:10,,,701,1942-07-11,71,YEARS,M,WHITE,NOT HISPANIC OR LATINO,,,,,USA,2013-07-11,-8,Observational Study,
4,CDISCPILOT01,DM,01-701-1034,1034,2014-07-01,2014-12-30,2014-07-01,2014-12-30,2014-06-29,2014-12-30T09:50,,,701,1937-06-24,77,YEARS,F,WHITE,NOT HISPANIC OR LATINO,Xan_Hi,Xanomeline High Dose,Xan_Hi,Xanomeline High Dose,USA,2014-06-24,-7,,
5,CDISCPILOT01,DM,01-701-1146,1146,2013-05-20,2013-06-30,2013-05-20,2013-06-26,2013-05-18,2013-07-15,,,701,1938-05-07,75,YEARS,F,WHITE,NOT HISPANIC OR LATINO,Xan_Hi,Xanomeline High Dose,Xan_Hi,Xanomeline High Dose,USA,2013-05-07,-13,,
6,CDISCPILOT01,DM,01-701-1153,1153,2013-09-23,2014-04-01,2013-09-23,2014-03-16,2013-09-21,2014-04-01T14:25,,,701,1934-09-06,79,YEARS,F,WHITE,NOT HISPANIC OR LATINO,Pbo,Placebo,Pbo,Placebo,USA,2013-09-06,-17,,
7,CDISCPILOT01,DM,01-701-1181,1181,2013-12-05,2013-12-12,,,2013-12-03,2014-05-23,,,701,1934-11-26,79,YEARS,F,WHITE,NOT HISPANIC OR LATINO,,,,,USA,2013-11-26,-9,Observational Study,
8,CDISCPILOT01,DM,01-701-1234,1234,2013-03-30,2013-09-22,2013-03-30,2013-09-22,2013-03-28,2013-09-22T09:25,,,701,1944-03-20,69,YEARS,M,WHITE,NOT HISPANIC OR LATINO,Pbo,Placebo,Pbo,Placebo,USA,2013-03-20,-10,,
9,CDISCPILOT01,DM,01-701-1275,1275,2014-02-07,2014-06-14,2014-02-07,2014-05-31,2014-02-05,2014-06-14T12:35,,,701,1953-01-25,61,YEARS,M,AMERICAN INDIAN OR ALASKA NATIVE,NOT HISPANIC OR LATINO,Xan_Hi,Xanomeline High Dose,Xan_Hi,Xanomeline High Dose,USA,2014-01-25,-13,,
10,CDISCPILOT01,DM,01-701-1302,1302,2013-08-29,2013-11-05,2013-08-29,2013-11-05,2013-08-27,2014-02-13,,,701,1952-08-20,61,YEARS,M,WHITE,NOT HISPANIC OR LATINO,Xan_Hi,Xanomeline High Dose,Xan_Hi,Xanomeline High Dose,USA,2013-08-20,-9,,
11,CDISCPILOT01,DM,01-701-1345,1345,2013-10-08,2014-03-18,,,2013-10-06,2014-03-18T14:12,,,701,1950-10-01,63,YEARS,F,WHITE,NOT HISPANIC OR LATINO,,,,,USA,2013-10-01,-7,Observational Study,
12,CDISCPILOT01,DM,01-701-1360,1360,2013-07-31,2013-08-14,,,2013-07-29,2014-02-11,,,701,1946-07-24,67,YEARS,M,WHITE,NOT HISPANIC OR LATINO,,,,,USA,2013-07-24,-7,Observational Study,
13,CDISCPILOT01,DM,01-701-1383,1383,2013-02-04,2013-08-06,2013-02-04,2013-08-06,2013-02-02,2013-08-06T12:00,,,701,1941-01-22,72,YEARS,F,WHITE,NOT HISPANIC OR LATINO,Xan_Hi,Xanomeline High Dose,Xan_Hi,Xanomeline High Dose,USA,2013-01-22,-13,,
14,CDISCPILOT01,DM,01-701-1392,1392,2012-10-28,2013-04-28,2012-10-28,2013-04-28,2012-10-26,2013-04-28T11:30,,,701,1934-10-17,78,YEARS,M,WHITE,NOT HISPANIC OR LATINO,Pbo,Placebo,Pbo,Placebo,USA,2012-10-17,-11,,
15,CDISCPILOT01,DM,01-714-1288,1288,2013-12-04,2014-06-17,,,2013-12-02,2014-06-17T13:00,,,714,1936-11-24,77,YEARS,M,BLACK OR AFRICAN AMERICAN,NOT HISPANIC OR LATINO,,,,,USA,2013-11-24,-10,Observational Study,
