rownames,STUDYID,DOMAIN,USUBJID,SUBJID,RFSTDTC,RFENDTC,RFXSTDTC,RFXENDTC,RFICDTC,RFPENDTC,DTHDTC,DTHFL,SITEID,INVID,INVNAM,BRTHDTC,AGE,AGEU,SEX,RACE,ETHNIC,ARMCD,ARM,ACTARMCD,ACTARM,COUNTRY,DMDTC,DMDY,ARMNRS,ACTARMUD
1,ABC,DM,ABC-1001,1001,2021-11-03T10:50:00,2022-04-27,2021-11-03T10:50:00,2021-12-30T09:10:00,2021-10-28,2022-04-27,,,1001,1328,"Potter, Harry",1947-09-21,74,YEARS,F,WHITE,NOT HISPANIC OR LATINO,VAXAB,VACCINE A VACCINE B,VAXAB,VACCINE A VACCINE B,USA,,,,
2,ABC,DM,ABC-1002,1002,2021-10-07T12:48:00,2022-06-14,2021-10-07T12:48:00,2021-12-16T12:41:00,2021-09-22,2022-06-14,,,1002,1212,"Gomez, Selena",1951-07-13,70,YEARS,F,BLACK OR AFRICAN AMERICAN,HISPANIC OR LATINO,VAXAB,VACCINE A VACCINE B,VAXAB,VACCINE A VACCINE B,USA,,,,
