rownames,STUDYID,DOMAIN,USUBJID,EXSEQ,EXLNKGRP,EXLNKID,EXTRT,EXCAT,EXDOSE,EXDOSU,EXDOSFRM,EXROUTE,EXLOC,EXLAT,VISITNUM,VISIT,EPOCH,EXSTDTC,EXENDTC
1,ABC,EX,ABC-1001,1,VACCINATION 1,VACCINATION 1-DELTOID MUSCLE-LEFT,VACCINE A,INVESTIGATIONAL PRODUCT,1,SYRINGE,INJECTION,INTRAMUSCULAR,DELTOID MUSCLE,LEFT,1,VISIT 1,VACCINATION 1,2021-11-03T10:50:00,2021-11-03T10:50:00
2,ABC,EX,ABC-1001,2,VACCINATION 2,VACCINATION 2-DELTOID MUSCLE-LEFT,VACCINE B,INVESTIGATIONAL PRODUCT,1,SYRINGE,INJECTION,INTRAMUSCULAR,DELTOID MUSCLE,LEFT,2,VISIT 2,VACCINATION 2,2021-12-30T09:10:00,2021-12-30T09:10:00
3,ABC,EX,ABC-1002,1,VACCINATION 1,VACCINATION 1-DELTOID MUSCLE-LEFT,VACCINE A,INVESTIGATIONAL PRODUCT,1,SYRINGE,INJECTION,INTRAMUSCULAR,DELTOID MUSCLE,LEFT,1,VISIT 1,VACCINATION 1,2021-10-07T12:48:00,2021-10-07T12:48:00
4,ABC,EX,ABC-1002,2,VACCINATION 2,VACCINATION 2-DELTOID MUSCLE-LEFT,VACCINE B,INVESTIGATIONAL PRODUCT,1,SYRINGE,INJECTION,INTRAMUSCULAR,DELTOID MUSCLE,LEFT,2,VISIT 2,VACCINATION 2,2021-12-16T12:41:00,2021-12-16T12:41:00
