rownames,STUDYID,DOMAIN,USUBJID,FASEQ,FALNKGRP,FALAT,FALNKID,FALOC,FATESTCD,FATEST,FAOBJ,FACAT,FASCAT,FAEVAL,FAORRES,FAORRESU,EPOCH,FADTC,FADY,FATPT,FATPTNUM,FATPTREF,FARFTDTC,FAEVLINT,FAEVINTX,FASTAT,FAREASND,FASTRESC,FASTRESN,FASTRESU
1,ABC,FACE,ABC-1001,1,VACCINATION 1-CHILLS,,VACCINATION 1-CHILLS-DAY 1,,OCCUR,Occurrence Indicator,CHILLS,REACTOGENICITY,SYSTEMIC,STUDY SUBJECT,N,,VACCINATION 1,2021-11-03T18:00:23,1,DAY 1,1,VACCINATION 1,2021-11-03T10:50:00,,SINCE VACCINATION,,,N,,
2,ABC,FACE,ABC-1001,2,VACCINATION 1-CHILLS,,VACCINATION 1-CHILLS-DAY 2,,OCCUR,Occurrence Indicator,CHILLS,REACTOGENICITY,SYSTEMIC,STUDY SUBJECT,N,,VACCINATION 1,2021-11-04T18:01:09,2,DAY 2,2,VACCINATION 1,2021-11-03T10:50:00,-P1D,,,,N,,
3,ABC,FACE,ABC-1001,3,VACCINATION 1-CHILLS,,VACCINATION 1-CHILLS-DAY 3,,OCCUR,Occurrence Indicator,CHILLS,REACTOGENICITY,SYSTEMIC,STUDY SUBJECT,N,,FOLLOW-UP,2021-11-05T19:04:07,3,DAY 3,3,VACCINATION 1,2021-11-03T10:50:00,-P1D,,,,N,,
4,ABC,FACE,ABC-1001,4,VACCINATION 1-CHILLS,,VACCINATION 1-CHILLS-DAY 4,,OCCUR,Occurrence Indicator,CHILLS,REACTOGENICITY,SYSTEMIC,STUDY SUBJECT,N,,FOLLOW-UP,2021-11-06T18:00:33,4,DAY 4,4,VACCINATION 1,2021-11-03T10:50:00,-P1D,,,,N,,
5,ABC,FACE,ABC-1001,5,VACCINATION 1-CHILLS,,VACCINATION 1-CHILLS-DAY 5,,OCCUR,Occurrence Indicator,CHILLS,REACTOGENICITY,SYSTEMIC,STUDY SUBJECT,N,,FOLLOW-UP,2021-11-07T18:01:25,5,DAY 5,5,VACCINATION 1,2021-11-03T10:50:00,-P1D,,,,N,,
6,ABC,FACE,ABC-1001,6,VACCINATION 1-CHILLS,,VACCINATION 1-CHILLS-DAY 6,,OCCUR,Occurrence Indicator,CHILLS,REACTOGENICITY,SYSTEMIC,STUDY SUBJECT,N,,FOLLOW-UP,2021-11-08T18:00:26,6,DAY 6,6,VACCINATION 1,2021-11-03T10:50:00,-P1D,,,,N,,
7,ABC,FACE,ABC-1001,7,VACCINATION 1-CHILLS,,VACCINATION 1-CHILLS-DAY 7,,OCCUR,Occurrence Indicator,CHILLS,REACTOGENICITY,SYSTEMIC,STUDY SUBJECT,N,,FOLLOW-UP,2021-11-09T18:08:04,7,DAY 7,7,VACCINATION 1,2021-11-03T10:50:00,-P1D,,,,N,,
8,ABC,FACE,ABC-1001,8,VACCINATION 1-DELTOID MUSCLE-LEFT-PAIN AT INJECTION SITE,LEFT,VACCINATION 1-DELTOID MUSCLE-LEFT-PAIN AT INJECTION SITE-DAY 1,DELTOID MUSCLE,OCCUR,Occurrence Indicator,PAIN AT INJECTION SITE,REACTOGENICITY,ADMINISTRATION SITE,STUDY SUBJECT,N,,VACCINATION 1,2021-11-03T18:00:23,1,DAY 1,1,VACCINATION 1,2021-11-03T10:50:00,,SINCE VACCINATION,,,N,,
9,ABC,FACE,ABC-1001,9,VACCINATION 1-DELTOID MUSCLE-LEFT-PAIN AT INJECTION SITE,LEFT,VACCINATION 1-DELTOID MUSCLE-LEFT-PAIN AT INJECTION SITE-DAY 2,DELTOID MUSCLE,OCCUR,Occurrence Indicator,PAIN AT INJECTION SITE,REACTOGENICITY,ADMINISTRATION SITE,STUDY SUBJECT,Y,,VACCINATION 1,2021-11-04T18:01:09,2,DAY 2,2,VACCINATION 1,2021-11-03T10:50:00,-P1D,,,,Y,,
10,ABC,FACE,ABC-1001,10,VACCINATION 1-DELTOID MUSCLE-LEFT-PAIN AT INJECTION SITE,LEFT,VACCINATION 1-DELTOID MUSCLE-LEFT-PAIN AT INJECTION SITE-DAY 2,DELTOID MUSCLE,SEV,Severity/Intensity,PAIN AT INJECTION SITE,REACTOGENICITY,ADMINISTRATION SITE,STUDY SUBJECT,MODERATE,,VACCINATION 1,2021-11-04T18:01:09,2,DAY 2,2,VACCINATION 1,2021-11-03T10:50:00,-P1D,,,,MODERATE,,
11,ABC,FACE,ABC-1001,11,VACCINATION 1-DELTOID MUSCLE-LEFT-PAIN AT INJECTION SITE,LEFT,VACCINATION 1-DELTOID MUSCLE-LEFT-PAIN AT INJECTION SITE-DAY 3,DELTOID MUSCLE,OCCUR,Occurrence Indicator,PAIN AT INJECTION SITE,REACTOGENICITY,ADMINISTRATION SITE,STUDY SUBJECT,Y,,FOLLOW-UP,2021-11-05T19:04:07,3,DAY 3,3,VACCINATION 1,2021-11-03T10:50:00,-P1D,,,,Y,,
12,ABC,FACE,ABC-1001,12,VACCINATION 1-DELTOID MUSCLE-LEFT-PAIN AT INJECTION SITE,LEFT,VACCINATION 1-DELTOID MUSCLE-LEFT-PAIN AT INJECTION SITE-DAY 3,DELTOID MUSCLE,SEV,Severity/Intensity,PAIN AT INJECTION SITE,REACTOGENICITY,ADMINISTRATION SITE,STUDY SUBJECT,MILD,,FOLLOW-UP,2021-11-05T19:04:07,3,DAY 3,3,VACCINATION 1,2021-11-03T10:50:00,-P1D,,,,MILD,,
13,ABC,FACE,ABC-1001,13,VACCINATION 1-DELTOID MUSCLE-LEFT-PAIN AT INJECTION SITE,LEFT,VACCINATION 1-DELTOID MUSCLE-LEFT-PAIN AT INJECTION SITE-DAY 4,DELTOID MUSCLE,OCCUR,Occurrence Indicator,PAIN AT INJECTION SITE,REACTOGENICITY,ADMINISTRATION SITE,STUDY SUBJECT,Y,,FOLLOW-UP,2021-11-06T18:00:33,4,DAY 4,4,VACCINATION 1,2021-11-03T10:50:00,-P1D,,,,Y,,
14,ABC,FACE,ABC-1001,14,VACCINATION 1-DELTOID MUSCLE-LEFT-PAIN AT INJECTION SITE,LEFT,VACCINATION 1-DELTOID MUSCLE-LEFT-PAIN AT INJECTION SITE-DAY 4,DELTOID MUSCLE,SEV,Severity/Intensity,PAIN AT INJECTION SITE,REACTOGENICITY,ADMINISTRATION SITE,STUDY SUBJECT,MILD,,FOLLOW-UP,2021-11-06T18:00:33,4,DAY 4,4,VACCINATION 1,2021-11-03T10:50:00,-P1D,,,,MILD,,
15,ABC,FACE,ABC-1001,15,VACCINATION 1-DELTOID MUSCLE-LEFT-PAIN AT INJECTION SITE,LEFT,VACCINATION 1-DELTOID MUSCLE-LEFT-PAIN AT INJECTION SITE-DAY 5,DELTOID MUSCLE,OCCUR,Occurrence Indicator,PAIN AT INJECTION SITE,REACTOGENICITY,ADMINISTRATION SITE,STUDY SUBJECT,Y,,FOLLOW-UP,2021-11-07T18:01:25,5,DAY 5,5,VACCINATION 1,2021-11-03T10:50:00,-P1D,,,,Y,,
16,ABC,FACE,ABC-1001,16,VACCINATION 1-DELTOID MUSCLE-LEFT-PAIN AT INJECTION SITE,LEFT,VACCINATION 1-DELTOID MUSCLE-LEFT-PAIN AT INJECTION SITE-DAY 5,DELTOID MUSCLE,SEV,Severity/Intensity,PAIN AT INJECTION SITE,REACTOGENICITY,ADMINISTRATION SITE,STUDY SUBJECT,MILD,,FOLLOW-UP,2021-11-07T18:01:25,5,DAY 5,5,VACCINATION 1,2021-11-03T10:50:00,-P1D,,,,MILD,,
17,ABC,FACE,ABC-1001,17,VACCINATION 1-DELTOID MUSCLE-LEFT-PAIN AT INJECTION SITE,LEFT,VACCINATION 1-DELTOID MUSCLE-LEFT-PAIN AT INJECTION SITE-DAY 6,DELTOID MUSCLE,OCCUR,Occurrence Indicator,PAIN AT INJECTION SITE,REACTOGENICITY,ADMINISTRATION SITE,STUDY SUBJECT,N,,FOLLOW-UP,2021-11-08T18:00:26,6,DAY 6,6,VACCINATION 1,2021-11-03T10:50:00,-P1D,,,,N,,
18,ABC,FACE,ABC-1001,18,VACCINATION 1-DELTOID MUSCLE-LEFT-PAIN AT INJECTION SITE,LEFT,VACCINATION 1-DELTOID MUSCLE-LEFT-PAIN AT INJECTION SITE-DAY 7,DELTOID MUSCLE,OCCUR,Occurrence Indicator,PAIN AT INJECTION SITE,REACTOGENICITY,ADMINISTRATION SITE,STUDY SUBJECT,N,,FOLLOW-UP,2021-11-09T18:08:04,7,DAY 7,7,VACCINATION 1,2021-11-03T10:50:00,-P1D,,,,N,,
19,ABC,FACE,ABC-1001,19,VACCINATION 1-DELTOID MUSCLE-LEFT-REDNESS,LEFT,VACCINATION 1-DELTOID MUSCLE-LEFT-REDNESS-DAY 1,DELTOID MUSCLE,OCCUR,Occurrence Indicator,REDNESS,REACTOGENICITY,ADMINISTRATION SITE,STUDY SUBJECT,N,,VACCINATION 1,2021-11-03T18:00:23,1,DAY 1,1,VACCINATION 1,2021-11-03T10:50:00,,SINCE VACCINATION,,,N,,
20,ABC,FACE,ABC-1001,20,VACCINATION 1-DELTOID MUSCLE-LEFT-REDNESS,LEFT,VACCINATION 1-DELTOID MUSCLE-LEFT-REDNESS-DAY 2,DELTOID MUSCLE,DIAMETER,Diameter,REDNESS,REACTOGENICITY,ADMINISTRATION SITE,STUDY SUBJECT,11,Caliper unit,VACCINATION 1,2021-11-04T18:01:09,2,DAY 2,2,VACCINATION 1,2021-11-03T10:50:00,-P1D,,,,5.5,5.5,cm
21,ABC,FACE,ABC-1001,21,VACCINATION 1-DELTOID MUSCLE-LEFT-REDNESS,LEFT,VACCINATION 1-DELTOID MUSCLE-LEFT-REDNESS-DAY 2,DELTOID MUSCLE,OCCUR,Occurrence Indicator,REDNESS,REACTOGENICITY,ADMINISTRATION SITE,STUDY SUBJECT,Y,,VACCINATION 1,2021-11-04T18:01:09,2,DAY 2,2,VACCINATION 1,2021-11-03T10:50:00,-P1D,,,,Y,,
22,ABC,FACE,ABC-1001,22,VACCINATION 1-DELTOID MUSCLE-LEFT-REDNESS,LEFT,VACCINATION 1-DELTOID MUSCLE-LEFT-REDNESS-DAY 3,DELTOID MUSCLE,OCCUR,Occurrence Indicator,REDNESS,REACTOGENICITY,ADMINISTRATION SITE,STUDY SUBJECT,N,,FOLLOW-UP,2021-11-05T19:04:07,3,DAY 3,3,VACCINATION 1,2021-11-03T10:50:00,-P1D,,,,N,,
23,ABC,FACE,ABC-1001,23,VACCINATION 1-DELTOID MUSCLE-LEFT-REDNESS,LEFT,VACCINATION 1-DELTOID MUSCLE-LEFT-REDNESS-DAY 4,DELTOID MUSCLE,OCCUR,Occurrence Indicator,REDNESS,REACTOGENICITY,ADMINISTRATION SITE,STUDY SUBJECT,N,,FOLLOW-UP,2021-11-06T18:00:33,4,DAY 4,4,VACCINATION 1,2021-11-03T10:50:00,-P1D,,,,N,,
24,ABC,FACE,ABC-1001,24,VACCINATION 1-DELTOID MUSCLE-LEFT-REDNESS,LEFT,VACCINATION 1-DELTOID MUSCLE-LEFT-REDNESS-DAY 5,DELTOID MUSCLE,OCCUR,Occurrence Indicator,REDNESS,REACTOGENICITY,ADMINISTRATION SITE,STUDY SUBJECT,N,,FOLLOW-UP,2021-11-07T18:01:25,5,DAY 5,5,VACCINATION 1,2021-11-03T10:50:00,-P1D,,,,N,,
25,ABC,FACE,ABC-1001,25,VACCINATION 1-DELTOID MUSCLE-LEFT-REDNESS,LEFT,VACCINATION 1-DELTOID MUSCLE-LEFT-REDNESS-DAY 6,DELTOID MUSCLE,OCCUR,Occurrence Indicator,REDNESS,REACTOGENICITY,ADMINISTRATION SITE,STUDY SUBJECT,N,,FOLLOW-UP,2021-11-08T18:00:26,6,DAY 6,6,VACCINATION 1,2021-11-03T10:50:00,-P1D,,,,N,,
26,ABC,FACE,ABC-1001,26,VACCINATION 1-DELTOID MUSCLE-LEFT-REDNESS,LEFT,VACCINATION 1-DELTOID MUSCLE-LEFT-REDNESS-DAY 7,DELTOID MUSCLE,OCCUR,Occurrence Indicator,REDNESS,REACTOGENICITY,ADMINISTRATION SITE,STUDY SUBJECT,N,,FOLLOW-UP,2021-11-09T18:08:04,7,DAY 7,7,VACCINATION 1,2021-11-03T10:50:00,-P1D,,,,N,,
27,ABC,FACE,ABC-1001,27,VACCINATION 1-DELTOID MUSCLE-LEFT-SWELLING,LEFT,VACCINATION 1-DELTOID MUSCLE-LEFT-SWELLING-DAY 1,DELTOID MUSCLE,DIAMETER,Diameter,SWELLING,REACTOGENICITY,ADMINISTRATION SITE,STUDY SUBJECT,1,Caliper unit,VACCINATION 1,2021-11-03T18:00:23,1,DAY 1,1,VACCINATION 1,2021-11-03T10:50:00,,SINCE VACCINATION,,,0.5,0.5,cm
28,ABC,FACE,ABC-1001,28,VACCINATION 1-DELTOID MUSCLE-LEFT-SWELLING,LEFT,VACCINATION 1-DELTOID MUSCLE-LEFT-SWELLING-DAY 1,DELTOID MUSCLE,OCCUR,Occurrence Indicator,SWELLING,REACTOGENICITY,ADMINISTRATION SITE,STUDY SUBJECT,Y,,VACCINATION 1,2021-11-03T18:00:23,1,DAY 1,1,VACCINATION 1,2021-11-03T10:50:00,,SINCE VACCINATION,,,Y,,
29,ABC,FACE,ABC-1001,29,VACCINATION 1-DELTOID MUSCLE-LEFT-SWELLING,LEFT,VACCINATION 1-DELTOID MUSCLE-LEFT-SWELLING-DAY 2,DELTOID MUSCLE,DIAMETER,Diameter,SWELLING,REACTOGENICITY,ADMINISTRATION SITE,STUDY SUBJECT,11,Caliper unit,VACCINATION 1,2021-11-04T18:01:09,2,DAY 2,2,VACCINATION 1,2021-11-03T10:50:00,-P1D,,,,5.5,5.5,cm
30,ABC,FACE,ABC-1001,30,VACCINATION 1-DELTOID MUSCLE-LEFT-SWELLING,LEFT,VACCINATION 1-DELTOID MUSCLE-LEFT-SWELLING-DAY 2,DELTOID MUSCLE,OCCUR,Occurrence Indicator,SWELLING,REACTOGENICITY,ADMINISTRATION SITE,STUDY SUBJECT,Y,,VACCINATION 1,2021-11-04T18:01:09,2,DAY 2,2,VACCINATION 1,2021-11-03T10:50:00,-P1D,,,,Y,,
31,ABC,FACE,ABC-1001,31,VACCINATION 1-DELTOID MUSCLE-LEFT-SWELLING,LEFT,VACCINATION 1-DELTOID MUSCLE-LEFT-SWELLING-DAY 3,DELTOID MUSCLE,DIAMETER,Diameter,SWELLING,REACTOGENICITY,ADMINISTRATION SITE,STUDY SUBJECT,8,Caliper unit,FOLLOW-UP,2021-11-05T19:04:07,3,DAY 3,3,VACCINATION 1,2021-11-03T10:50:00,-P1D,,,,4,4,cm
32,ABC,FACE,ABC-1001,32,VACCINATION 1-DELTOID MUSCLE-LEFT-SWELLING,LEFT,VACCINATION 1-DELTOID MUSCLE-LEFT-SWELLING-DAY 3,DELTOID MUSCLE,OCCUR,Occurrence Indicator,SWELLING,REACTOGENICITY,ADMINISTRATION SITE,STUDY SUBJECT,Y,,FOLLOW-UP,2021-11-05T19:04:07,3,DAY 3,3,VACCINATION 1,2021-11-03T10:50:00,-P1D,,,,Y,,
33,ABC,FACE,ABC-1001,33,VACCINATION 1-DELTOID MUSCLE-LEFT-SWELLING,LEFT,VACCINATION 1-DELTOID MUSCLE-LEFT-SWELLING-DAY 4,DELTOID MUSCLE,DIAMETER,Diameter,SWELLING,REACTOGENICITY,ADMINISTRATION SITE,STUDY SUBJECT,8,Caliper unit,FOLLOW-UP,2021-11-06T18:00:33,4,DAY 4,4,VACCINATION 1,2021-11-03T10:50:00,-P1D,,,,4,4,cm
34,ABC,FACE,ABC-1001,34,VACCINATION 1-DELTOID MUSCLE-LEFT-SWELLING,LEFT,VACCINATION 1-DELTOID MUSCLE-LEFT-SWELLING-DAY 4,DELTOID MUSCLE,OCCUR,Occurrence Indicator,SWELLING,REACTOGENICITY,ADMINISTRATION SITE,STUDY SUBJECT,Y,,FOLLOW-UP,2021-11-06T18:00:33,4,DAY 4,4,VACCINATION 1,2021-11-03T10:50:00,-P1D,,,,Y,,
35,ABC,FACE,ABC-1001,35,VACCINATION 1-DELTOID MUSCLE-LEFT-SWELLING,LEFT,VACCINATION 1-DELTOID MUSCLE-LEFT-SWELLING-DAY 5,DELTOID MUSCLE,DIAMETER,Diameter,SWELLING,REACTOGENICITY,ADMINISTRATION SITE,STUDY SUBJECT,6,Caliper unit,FOLLOW-UP,2021-11-07T18:01:25,5,DAY 5,5,VACCINATION 1,2021-11-03T10:50:00,-P1D,,,,3,3,cm
36,ABC,FACE,ABC-1001,36,VACCINATION 1-DELTOID MUSCLE-LEFT-SWELLING,LEFT,VACCINATION 1-DELTOID MUSCLE-LEFT-SWELLING-DAY 5,DELTOID MUSCLE,OCCUR,Occurrence Indicator,SWELLING,REACTOGENICITY,ADMINISTRATION SITE,STUDY SUBJECT,Y,,FOLLOW-UP,2021-11-07T18:01:25,5,DAY 5,5,VACCINATION 1,2021-11-03T10:50:00,-P1D,,,,Y,,
37,ABC,FACE,ABC-1001,37,VACCINATION 1-DELTOID MUSCLE-LEFT-SWELLING,LEFT,VACCINATION 1-DELTOID MUSCLE-LEFT-SWELLING-DAY 6,DELTOID MUSCLE,DIAMETER,Diameter,SWELLING,REACTOGENICITY,ADMINISTRATION SITE,STUDY SUBJECT,7,Caliper unit,FOLLOW-UP,2021-11-08T18:00:26,6,DAY 6,6,VACCINATION 1,2021-11-03T10:50:00,-P1D,,,,3.5,3.5,cm
38,ABC,FACE,ABC-1001,38,VACCINATION 1-DELTOID MUSCLE-LEFT-SWELLING,LEFT,VACCINATION 1-DELTOID MUSCLE-LEFT-SWELLING-DAY 6,DELTOID MUSCLE,OCCUR,Occurrence Indicator,SWELLING,REACTOGENICITY,ADMINISTRATION SITE,STUDY SUBJECT,Y,,FOLLOW-UP,2021-11-08T18:00:26,6,DAY 6,6,VACCINATION 1,2021-11-03T10:50:00,-P1D,,,,Y,,
39,ABC,FACE,ABC-1001,39,VACCINATION 1-DELTOID MUSCLE-LEFT-SWELLING,LEFT,VACCINATION 1-DELTOID MUSCLE-LEFT-SWELLING-DAY 7,DELTOID MUSCLE,DIAMETER,Diameter,SWELLING,REACTOGENICITY,ADMINISTRATION SITE,STUDY SUBJECT,4,Caliper unit,FOLLOW-UP,2021-11-09T18:08:04,7,DAY 7,7,VACCINATION 1,2021-11-03T10:50:00,-P1D,,,,2,2,cm
40,ABC,FACE,ABC-1001,40,VACCINATION 1-DELTOID MUSCLE-LEFT-SWELLING,LEFT,VACCINATION 1-DELTOID MUSCLE-LEFT-SWELLING-DAY 7,DELTOID MUSCLE,OCCUR,Occurrence Indicator,SWELLING,REACTOGENICITY,ADMINISTRATION SITE,STUDY SUBJECT,Y,,FOLLOW-UP,2021-11-09T18:08:04,7,DAY 7,7,VACCINATION 1,2021-11-03T10:50:00,-P1D,,,,Y,,
41,ABC,FACE,ABC-1001,41,VACCINATION 1-DIARRHEA,,VACCINATION 1-DIARRHEA-DAY 1,,OCCUR,Occurrence Indicator,DIARRHEA,REACTOGENICITY,SYSTEMIC,STUDY SUBJECT,N,,VACCINATION 1,2021-11-03T18:00:23,1,DAY 1,1,VACCINATION 1,2021-11-03T10:50:00,,SINCE VACCINATION,,,N,,
42,ABC,FACE,ABC-1001,42,VACCINATION 1-DIARRHEA,,VACCINATION 1-DIARRHEA-DAY 2,,OCCUR,Occurrence Indicator,DIARRHEA,REACTOGENICITY,SYSTEMIC,STUDY SUBJECT,N,,VACCINATION 1,2021-11-04T18:01:09,2,DAY 2,2,VACCINATION 1,2021-11-03T10:50:00,-P1D,,,,N,,
43,ABC,FACE,ABC-1001,43,VACCINATION 1-DIARRHEA,,VACCINATION 1-DIARRHEA-DAY 3,,OCCUR,Occurrence Indicator,DIARRHEA,REACTOGENICITY,SYSTEMIC,STUDY SUBJECT,N,,FOLLOW-UP,2021-11-05T19:04:07,3,DAY 3,3,VACCINATION 1,2021-11-03T10:50:00,-P1D,,,,N,,
44,ABC,FACE,ABC-1001,44,VACCINATION 1-DIARRHEA,,VACCINATION 1-DIARRHEA-DAY 4,,OCCUR,Occurrence Indicator,DIARRHEA,REACTOGENICITY,SYSTEMIC,STUDY SUBJECT,N,,FOLLOW-UP,2021-11-06T18:00:33,4,DAY 4,4,VACCINATION 1,2021-11-03T10:50:00,-P1D,,,,N,,
45,ABC,FACE,ABC-1001,45,VACCINATION 1-DIARRHEA,,VACCINATION 1-DIARRHEA-DAY 5,,OCCUR,Occurrence Indicator,DIARRHEA,REACTOGENICITY,SYSTEMIC,STUDY SUBJECT,N,,FOLLOW-UP,2021-11-07T18:01:25,5,DAY 5,5,VACCINATION 1,2021-11-03T10:50:00,-P1D,,,,N,,
46,ABC,FACE,ABC-1001,46,VACCINATION 1-DIARRHEA,,VACCINATION 1-DIARRHEA-DAY 6,,OCCUR,Occurrence Indicator,DIARRHEA,REACTOGENICITY,SYSTEMIC,STUDY SUBJECT,N,,FOLLOW-UP,2021-11-08T18:00:26,6,DAY 6,6,VACCINATION 1,2021-11-03T10:50:00,-P1D,,,,N,,
47,ABC,FACE,ABC-1001,47,VACCINATION 1-DIARRHEA,,VACCINATION 1-DIARRHEA-DAY 7,,OCCUR,Occurrence Indicator,DIARRHEA,REACTOGENICITY,SYSTEMIC,STUDY SUBJECT,N,,FOLLOW-UP,2021-11-09T18:08:04,7,DAY 7,7,VACCINATION 1,2021-11-03T10:50:00,-P1D,,,,N,,
48,ABC,FACE,ABC-1001,48,VACCINATION 1-FATIGUE,,VACCINATION 1-FATIGUE-DAY 1,,OCCUR,Occurrence Indicator,FATIGUE,REACTOGENICITY,SYSTEMIC,STUDY SUBJECT,Y,,VACCINATION 1,2021-11-03T18:00:23,1,DAY 1,1,VACCINATION 1,2021-11-03T10:50:00,,SINCE VACCINATION,,,Y,,
49,ABC,FACE,ABC-1001,49,VACCINATION 1-FATIGUE,,VACCINATION 1-FATIGUE-DAY 1,,SEV,Severity/Intensity,FATIGUE,REACTOGENICITY,SYSTEMIC,STUDY SUBJECT,MILD,,VACCINATION 1,2021-11-03T18:00:23,1,DAY 1,1,VACCINATION 1,2021-11-03T10:50:00,,SINCE VACCINATION,,,MILD,,
50,ABC,FACE,ABC-1001,50,VACCINATION 1-FATIGUE,,VACCINATION 1-FATIGUE-DAY 2,,OCCUR,Occurrence Indicator,FATIGUE,REACTOGENICITY,SYSTEMIC,STUDY SUBJECT,Y,,VACCINATION 1,2021-11-04T18:01:09,2,DAY 2,2,VACCINATION 1,2021-11-03T10:50:00,-P1D,,,,Y,,
51,ABC,FACE,ABC-1001,51,VACCINATION 1-FATIGUE,,VACCINATION 1-FATIGUE-DAY 2,,SEV,Severity/Intensity,FATIGUE,REACTOGENICITY,SYSTEMIC,STUDY SUBJECT,MILD,,VACCINATION 1,2021-11-04T18:01:09,2,DAY 2,2,VACCINATION 1,2021-11-03T10:50:00,-P1D,,,,MILD,,
52,ABC,FACE,ABC-1001,52,VACCINATION 1-FATIGUE,,VACCINATION 1-FATIGUE-DAY 3,,OCCUR,Occurrence Indicator,FATIGUE,REACTOGENICITY,SYSTEMIC,STUDY SUBJECT,N,,FOLLOW-UP,2021-11-05T19:04:07,3,DAY 3,3,VACCINATION 1,2021-11-03T10:50:00,-P1D,,,,N,,
53,ABC,FACE,ABC-1001,53,VACCINATION 1-FATIGUE,,VACCINATION 1-FATIGUE-DAY 4,,OCCUR,Occurrence Indicator,FATIGUE,REACTOGENICITY,SYSTEMIC,STUDY SUBJECT,N,,FOLLOW-UP,2021-11-06T18:00:33,4,DAY 4,4,VACCINATION 1,2021-11-03T10:50:00,-P1D,,,,N,,
54,ABC,FACE,ABC-1001,54,VACCINATION 1-FATIGUE,,VACCINATION 1-FATIGUE-DAY 5,,OCCUR,Occurrence Indicator,FATIGUE,REACTOGENICITY,SYSTEMIC,STUDY SUBJECT,N,,FOLLOW-UP,2021-11-07T18:01:25,5,DAY 5,5,VACCINATION 1,2021-11-03T10:50:00,-P1D,,,,N,,
55,ABC,FACE,ABC-1001,55,VACCINATION 1-FATIGUE,,VACCINATION 1-FATIGUE-DAY 6,,OCCUR,Occurrence Indicator,FATIGUE,REACTOGENICITY,SYSTEMIC,STUDY SUBJECT,N,,FOLLOW-UP,2021-11-08T18:00:26,6,DAY 6,6,VACCINATION 1,2021-11-03T10:50:00,-P1D,,,,N,,
56,ABC,FACE,ABC-1001,56,VACCINATION 1-FATIGUE,,VACCINATION 1-FATIGUE-DAY 7,,OCCUR,Occurrence Indicator,FATIGUE,REACTOGENICITY,SYSTEMIC,STUDY SUBJECT,N,,FOLLOW-UP,2021-11-09T18:08:04,7,DAY 7,7,VACCINATION 1,2021-11-03T10:50:00,-P1D,,,,N,,
57,ABC,FACE,ABC-1001,57,VACCINATION 1-HEADACHE,,VACCINATION 1-HEADACHE-DAY 1,,OCCUR,Occurrence Indicator,HEADACHE,REACTOGENICITY,SYSTEMIC,STUDY SUBJECT,N,,VACCINATION 1,2021-11-03T18:00:23,1,DAY 1,1,VACCINATION 1,2021-11-03T10:50:00,,SINCE VACCINATION,,,N,,
58,ABC,FACE,ABC-1001,58,VACCINATION 1-HEADACHE,,VACCINATION 1-HEADACHE-DAY 2,,OCCUR,Occurrence Indicator,HEADACHE,REACTOGENICITY,SYSTEMIC,STUDY SUBJECT,N,,VACCINATION 1,2021-11-04T18:01:09,2,DAY 2,2,VACCINATION 1,2021-11-03T10:50:00,-P1D,,,,N,,
59,ABC,FACE,ABC-1001,59,VACCINATION 1-HEADACHE,,VACCINATION 1-HEADACHE-DAY 3,,OCCUR,Occurrence Indicator,HEADACHE,REACTOGENICITY,SYSTEMIC,STUDY SUBJECT,N,,FOLLOW-UP,2021-11-05T19:04:07,3,DAY 3,3,VACCINATION 1,2021-11-03T10:50:00,-P1D,,,,N,,
60,ABC,FACE,ABC-1001,60,VACCINATION 1-HEADACHE,,VACCINATION 1-HEADACHE-DAY 4,,OCCUR,Occurrence Indicator,HEADACHE,REACTOGENICITY,SYSTEMIC,STUDY SUBJECT,N,,FOLLOW-UP,2021-11-06T18:00:33,4,DAY 4,4,VACCINATION 1,2021-11-03T10:50:00,-P1D,,,,N,,
61,ABC,FACE,ABC-1001,61,VACCINATION 1-HEADACHE,,VACCINATION 1-HEADACHE-DAY 5,,OCCUR,Occurrence Indicator,HEADACHE,REACTOGENICITY,SYSTEMIC,STUDY SUBJECT,N,,FOLLOW-UP,2021-11-07T18:01:25,5,DAY 5,5,VACCINATION 1,2021-11-03T10:50:00,-P1D,,,,N,,
62,ABC,FACE,ABC-1001,62,VACCINATION 1-HEADACHE,,VACCINATION 1-HEADACHE-DAY 6,,OCCUR,Occurrence Indicator,HEADACHE,REACTOGENICITY,SYSTEMIC,STUDY SUBJECT,N,,FOLLOW-UP,2021-11-08T18:00:26,6,DAY 6,6,VACCINATION 1,2021-11-03T10:50:00,-P1D,,,,N,,
63,ABC,FACE,ABC-1001,63,VACCINATION 1-HEADACHE,,VACCINATION 1-HEADACHE-DAY 7,,OCCUR,Occurrence Indicator,HEADACHE,REACTOGENICITY,SYSTEMIC,STUDY SUBJECT,N,,FOLLOW-UP,2021-11-09T18:08:04,7,DAY 7,7,VACCINATION 1,2021-11-03T10:50:00,-P1D,,,,N,,
64,ABC,FACE,ABC-1001,64,VACCINATION 1-NEW OR WORSENED JOINT PAIN,,VACCINATION 1-NEW OR WORSENED JOINT PAIN-DAY 1,,OCCUR,Occurrence Indicator,NEW OR WORSENED JOINT PAIN,REACTOGENICITY,SYSTEMIC,STUDY SUBJECT,N,,VACCINATION 1,2021-11-03T18:00:23,1,DAY 1,1,VACCINATION 1,2021-11-03T10:50:00,,SINCE VACCINATION,,,N,,
65,ABC,FACE,ABC-1001,65,VACCINATION 1-NEW OR WORSENED JOINT PAIN,,VACCINATION 1-NEW OR WORSENED JOINT PAIN-DAY 2,,OCCUR,Occurrence Indicator,NEW OR WORSENED JOINT PAIN,REACTOGENICITY,SYSTEMIC,STUDY SUBJECT,Y,,VACCINATION 1,2021-11-04T18:01:09,2,DAY 2,2,VACCINATION 1,2021-11-03T10:50:00,-P1D,,,,Y,,
66,ABC,FACE,ABC-1001,66,VACCINATION 1-NEW OR WORSENED JOINT PAIN,,VACCINATION 1-NEW OR WORSENED JOINT PAIN-DAY 2,,SEV,Severity/Intensity,NEW OR WORSENED JOINT PAIN,REACTOGENICITY,SYSTEMIC,STUDY SUBJECT,MILD,,VACCINATION 1,2021-11-04T18:01:09,2,DAY 2,2,VACCINATION 1,2021-11-03T10:50:00,-P1D,,,,MILD,,
67,ABC,FACE,ABC-1001,67,VACCINATION 1-NEW OR WORSENED JOINT PAIN,,VACCINATION 1-NEW OR WORSENED JOINT PAIN-DAY 3,,OCCUR,Occurrence Indicator,NEW OR WORSENED JOINT PAIN,REACTOGENICITY,SYSTEMIC,STUDY SUBJECT,N,,FOLLOW-UP,2021-11-05T19:04:07,3,DAY 3,3,VACCINATION 1,2021-11-03T10:50:00,-P1D,,,,N,,
68,ABC,FACE,ABC-1001,68,VACCINATION 1-NEW OR WORSENED JOINT PAIN,,VACCINATION 1-NEW OR WORSENED JOINT PAIN-DAY 4,,OCCUR,Occurrence Indicator,NEW OR WORSENED JOINT PAIN,REACTOGENICITY,SYSTEMIC,STUDY SUBJECT,N,,FOLLOW-UP,2021-11-06T18:00:33,4,DAY 4,4,VACCINATION 1,2021-11-03T10:50:00,-P1D,,,,N,,
69,ABC,FACE,ABC-1001,69,VACCINATION 1-NEW OR WORSENED JOINT PAIN,,VACCINATION 1-NEW OR WORSENED JOINT PAIN-DAY 5,,OCCUR,Occurrence Indicator,NEW OR WORSENED JOINT PAIN,REACTOGENICITY,SYSTEMIC,STUDY SUBJECT,N,,FOLLOW-UP,2021-11-07T18:01:25,5,DAY 5,5,VACCINATION 1,2021-11-03T10:50:00,-P1D,,,,N,,
70,ABC,FACE,ABC-1001,70,VACCINATION 1-NEW OR WORSENED JOINT PAIN,,VACCINATION 1-NEW OR WORSENED JOINT PAIN-DAY 6,,OCCUR,Occurrence Indicator,NEW OR WORSENED JOINT PAIN,REACTOGENICITY,SYSTEMIC,STUDY SUBJECT,N,,FOLLOW-UP,2021-11-08T18:00:26,6,DAY 6,6,VACCINATION 1,2021-11-03T10:50:00,-P1D,,,,N,,
71,ABC,FACE,ABC-1001,71,VACCINATION 1-NEW OR WORSENED JOINT PAIN,,VACCINATION 1-NEW OR WORSENED JOINT PAIN-DAY 7,,OCCUR,Occurrence Indicator,NEW OR WORSENED JOINT PAIN,REACTOGENICITY,SYSTEMIC,STUDY SUBJECT,N,,FOLLOW-UP,2021-11-09T18:08:04,7,DAY 7,7,VACCINATION 1,2021-11-03T10:50:00,-P1D,,,,N,,
72,ABC,FACE,ABC-1001,72,VACCINATION 1-NEW OR WORSENED MUSCLE PAIN,,VACCINATION 1-NEW OR WORSENED MUSCLE PAIN-DAY 1,,OCCUR,Occurrence Indicator,NEW OR WORSENED MUSCLE PAIN,REACTOGENICITY,SYSTEMIC,STUDY SUBJECT,N,,VACCINATION 1,2021-11-03T18:00:23,1,DAY 1,1,VACCINATION 1,2021-11-03T10:50:00,,SINCE VACCINATION,,,N,,
73,ABC,FACE,ABC-1001,73,VACCINATION 1-NEW OR WORSENED MUSCLE PAIN,,VACCINATION 1-NEW OR WORSENED MUSCLE PAIN-DAY 2,,OCCUR,Occurrence Indicator,NEW OR WORSENED MUSCLE PAIN,REACTOGENICITY,SYSTEMIC,STUDY SUBJECT,Y,,VACCINATION 1,2021-11-04T18:01:09,2,DAY 2,2,VACCINATION 1,2021-11-03T10:50:00,-P1D,,,,Y,,
74,ABC,FACE,ABC-1001,74,VACCINATION 1-NEW OR WORSENED MUSCLE PAIN,,VACCINATION 1-NEW OR WORSENED MUSCLE PAIN-DAY 2,,SEV,Severity/Intensity,NEW OR WORSENED MUSCLE PAIN,REACTOGENICITY,SYSTEMIC,STUDY SUBJECT,MILD,,VACCINATION 1,2021-11-04T18:01:09,2,DAY 2,2,VACCINATION 1,2021-11-03T10:50:00,-P1D,,,,MILD,,
75,ABC,FACE,ABC-1001,75,VACCINATION 1-NEW OR WORSENED MUSCLE PAIN,,VACCINATION 1-NEW OR WORSENED MUSCLE PAIN-DAY 3,,OCCUR,Occurrence Indicator,NEW OR WORSENED MUSCLE PAIN,REACTOGENICITY,SYSTEMIC,STUDY SUBJECT,N,,FOLLOW-UP,2021-11-05T19:04:07,3,DAY 3,3,VACCINATION 1,2021-11-03T10:50:00,-P1D,,,,N,,
76,ABC,FACE,ABC-1001,76,VACCINATION 1-NEW OR WORSENED MUSCLE PAIN,,VACCINATION 1-NEW OR WORSENED MUSCLE PAIN-DAY 4,,OCCUR,Occurrence Indicator,NEW OR WORSENED MUSCLE PAIN,REACTOGENICITY,SYSTEMIC,STUDY SUBJECT,N,,FOLLOW-UP,2021-11-06T18:00:33,4,DAY 4,4,VACCINATION 1,2021-11-03T10:50:00,-P1D,,,,N,,
77,ABC,FACE,ABC-1001,77,VACCINATION 1-NEW OR WORSENED MUSCLE PAIN,,VACCINATION 1-NEW OR WORSENED MUSCLE PAIN-DAY 5,,OCCUR,Occurrence Indicator,NEW OR WORSENED MUSCLE PAIN,REACTOGENICITY,SYSTEMIC,STUDY SUBJECT,N,,FOLLOW-UP,2021-11-07T18:01:25,5,DAY 5,5,VACCINATION 1,2021-11-03T10:50:00,-P1D,,,,N,,
78,ABC,FACE,ABC-1001,78,VACCINATION 1-NEW OR WORSENED MUSCLE PAIN,,VACCINATION 1-NEW OR WORSENED MUSCLE PAIN-DAY 6,,OCCUR,Occurrence Indicator,NEW OR WORSENED MUSCLE PAIN,REACTOGENICITY,SYSTEMIC,STUDY SUBJECT,N,,FOLLOW-UP,2021-11-08T18:00:26,6,DAY 6,6,VACCINATION 1,2021-11-03T10:50:00,-P1D,,,,N,,
79,ABC,FACE,ABC-1001,79,VACCINATION 1-NEW OR WORSENED MUSCLE PAIN,,VACCINATION 1-NEW OR WORSENED MUSCLE PAIN-DAY 7,,OCCUR,Occurrence Indicator,NEW OR WORSENED MUSCLE PAIN,REACTOGENICITY,SYSTEMIC,STUDY SUBJECT,N,,FOLLOW-UP,2021-11-09T18:08:04,7,DAY 7,7,VACCINATION 1,2021-11-03T10:50:00,-P1D,,,,N,,
80,ABC,FACE,ABC-1001,80,VACCINATION 1-VOMITING,,VACCINATION 1-VOMITING-DAY 1,,OCCUR,Occurrence Indicator,VOMITING,REACTOGENICITY,SYSTEMIC,STUDY SUBJECT,N,,VACCINATION 1,2021-11-03T18:00:23,1,DAY 1,1,VACCINATION 1,2021-11-03T10:50:00,,SINCE VACCINATION,,,N,,
81,ABC,FACE,ABC-1001,81,VACCINATION 1-VOMITING,,VACCINATION 1-VOMITING-DAY 2,,OCCUR,Occurrence Indicator,VOMITING,REACTOGENICITY,SYSTEMIC,STUDY SUBJECT,N,,VACCINATION 1,2021-11-04T18:01:09,2,DAY 2,2,VACCINATION 1,2021-11-03T10:50:00,-P1D,,,,N,,
82,ABC,FACE,ABC-1001,82,VACCINATION 1-VOMITING,,VACCINATION 1-VOMITING-DAY 3,,OCCUR,Occurrence Indicator,VOMITING,REACTOGENICITY,SYSTEMIC,STUDY SUBJECT,N,,FOLLOW-UP,2021-11-05T19:04:07,3,DAY 3,3,VACCINATION 1,2021-11-03T10:50:00,-P1D,,,,N,,
83,ABC,FACE,ABC-1001,83,VACCINATION 1-VOMITING,,VACCINATION 1-VOMITING-DAY 4,,OCCUR,Occurrence Indicator,VOMITING,REACTOGENICITY,SYSTEMIC,STUDY SUBJECT,N,,FOLLOW-UP,2021-11-06T18:00:33,4,DAY 4,4,VACCINATION 1,2021-11-03T10:50:00,-P1D,,,,N,,
84,ABC,FACE,ABC-1001,84,VACCINATION 1-VOMITING,,VACCINATION 1-VOMITING-DAY 5,,OCCUR,Occurrence Indicator,VOMITING,REACTOGENICITY,SYSTEMIC,STUDY SUBJECT,N,,FOLLOW-UP,2021-11-07T18:01:25,5,DAY 5,5,VACCINATION 1,2021-11-03T10:50:00,-P1D,,,,N,,
85,ABC,FACE,ABC-1001,85,VACCINATION 1-VOMITING,,VACCINATION 1-VOMITING-DAY 6,,OCCUR,Occurrence Indicator,VOMITING,REACTOGENICITY,SYSTEMIC,STUDY SUBJECT,N,,FOLLOW-UP,2021-11-08T18:00:26,6,DAY 6,6,VACCINATION 1,2021-11-03T10:50:00,-P1D,,,,N,,
86,ABC,FACE,ABC-1001,86,VACCINATION 1-VOMITING,,VACCINATION 1-VOMITING-DAY 7,,OCCUR,Occurrence Indicator,VOMITING,REACTOGENICITY,SYSTEMIC,STUDY SUBJECT,N,,FOLLOW-UP,2021-11-09T18:08:04,7,DAY 7,7,VACCINATION 1,2021-11-03T10:50:00,-P1D,,,,N,,
87,ABC,FACE,ABC-1001,87,VACCINATION 2-CHILLS,,VACCINATION 2-CHILLS-DAY 1,,OCCUR,Occurrence Indicator,CHILLS,REACTOGENICITY,SYSTEMIC,,,,VACCINATION 2,2021-12-30,58,DAY 1,1,VACCINATION 2,2021-12-30T09:10:00,,SINCE VACCINATION,NOT DONE,SUBJECT DID NOT COMPLETE ELECTRONIC DIARY,,,
88,ABC,FACE,ABC-1001,88,VACCINATION 2-CHILLS,,VACCINATION 2-CHILLS-DAY 2,,OCCUR,Occurrence Indicator,CHILLS,REACTOGENICITY,SYSTEMIC,,,,VACCINATION 2,2021-12-31,59,DAY 2,2,VACCINATION 2,2021-12-30T09:10:00,-P1D,,NOT DONE,SUBJECT DID NOT COMPLETE ELECTRONIC DIARY,,,
89,ABC,FACE,ABC-1001,89,VACCINATION 2-CHILLS,,VACCINATION 2-CHILLS-DAY 3,,OCCUR,Occurrence Indicator,CHILLS,REACTOGENICITY,SYSTEMIC,,,,VACCINATION 2,2022-01-01,60,DAY 3,3,VACCINATION 2,2021-12-30T09:10:00,-P1D,,NOT DONE,SUBJECT DID NOT COMPLETE ELECTRONIC DIARY,,,
90,ABC,FACE,ABC-1001,90,VACCINATION 2-CHILLS,,VACCINATION 2-CHILLS-DAY 4,,OCCUR,Occurrence Indicator,CHILLS,REACTOGENICITY,SYSTEMIC,,,,VACCINATION 2,2022-01-02,61,DAY 4,4,VACCINATION 2,2021-12-30T09:10:00,-P1D,,NOT DONE,SUBJECT DID NOT COMPLETE ELECTRONIC DIARY,,,
91,ABC,FACE,ABC-1001,91,VACCINATION 2-CHILLS,,VACCINATION 2-CHILLS-DAY 5,,OCCUR,Occurrence Indicator,CHILLS,REACTOGENICITY,SYSTEMIC,,,,VACCINATION 2,2022-01-03,62,DAY 5,5,VACCINATION 2,2021-12-30T09:10:00,-P1D,,NOT DONE,SUBJECT DID NOT COMPLETE ELECTRONIC DIARY,,,
92,ABC,FACE,ABC-1001,92,VACCINATION 2-CHILLS,,VACCINATION 2-CHILLS-DAY 6,,OCCUR,Occurrence Indicator,CHILLS,REACTOGENICITY,SYSTEMIC,,,,VACCINATION 2,2022-01-04,63,DAY 6,6,VACCINATION 2,2021-12-30T09:10:00,-P1D,,NOT DONE,SUBJECT DID NOT COMPLETE ELECTRONIC DIARY,,,
93,ABC,FACE,ABC-1001,93,VACCINATION 2-CHILLS,,VACCINATION 2-CHILLS-DAY 7,,OCCUR,Occurrence Indicator,CHILLS,REACTOGENICITY,SYSTEMIC,,,,VACCINATION 2,2022-01-05,64,DAY 7,7,VACCINATION 2,2021-12-30T09:10:00,-P1D,,NOT DONE,SUBJECT DID NOT COMPLETE ELECTRONIC DIARY,,,
94,ABC,FACE,ABC-1001,94,VACCINATION 2-DELTOID MUSCLE-LEFT-PAIN AT INJECTION SITE,LEFT,VACCINATION 2-DELTOID MUSCLE-LEFT-PAIN AT INJECTION SITE-DAY 1,DELTOID MUSCLE,OCCUR,Occurrence Indicator,PAIN AT INJECTION SITE,REACTOGENICITY,ADMINISTRATION SITE,,,,VACCINATION 2,2021-12-30,58,DAY 1,1,VACCINATION 2,2021-12-30T09:10:00,,SINCE VACCINATION,NOT DONE,SUBJECT DID NOT COMPLETE ELECTRONIC DIARY,,,
95,ABC,FACE,ABC-1001,95,VACCINATION 2-DELTOID MUSCLE-LEFT-PAIN AT INJECTION SITE,LEFT,VACCINATION 2-DELTOID MUSCLE-LEFT-PAIN AT INJECTION SITE-DAY 2,DELTOID MUSCLE,OCCUR,Occurrence Indicator,PAIN AT INJECTION SITE,REACTOGENICITY,ADMINISTRATION SITE,,,,VACCINATION 2,2021-12-31,59,DAY 2,2,VACCINATION 2,2021-12-30T09:10:00,-P1D,,NOT DONE,SUBJECT DID NOT COMPLETE ELECTRONIC DIARY,,,
96,ABC,FACE,ABC-1001,96,VACCINATION 2-DELTOID MUSCLE-LEFT-PAIN AT INJECTION SITE,LEFT,VACCINATION 2-DELTOID MUSCLE-LEFT-PAIN AT INJECTION SITE-DAY 3,DELTOID MUSCLE,OCCUR,Occurrence Indicator,PAIN AT INJECTION SITE,REACTOGENICITY,ADMINISTRATION SITE,,,,VACCINATION 2,2022-01-01,60,DAY 3,3,VACCINATION 2,2021-12-30T09:10:00,-P1D,,NOT DONE,SUBJECT DID NOT COMPLETE ELECTRONIC DIARY,,,
97,ABC,FACE,ABC-1001,97,VACCINATION 2-DELTOID MUSCLE-LEFT-PAIN AT INJECTION SITE,LEFT,VACCINATION 2-DELTOID MUSCLE-LEFT-PAIN AT INJECTION SITE-DAY 4,DELTOID MUSCLE,OCCUR,Occurrence Indicator,PAIN AT INJECTION SITE,REACTOGENICITY,ADMINISTRATION SITE,,,,VACCINATION 2,2022-01-02,61,DAY 4,4,VACCINATION 2,2021-12-30T09:10:00,-P1D,,NOT DONE,SUBJECT DID NOT COMPLETE ELECTRONIC DIARY,,,
98,ABC,FACE,ABC-1001,98,VACCINATION 2-DELTOID MUSCLE-LEFT-PAIN AT INJECTION SITE,LEFT,VACCINATION 2-DELTOID MUSCLE-LEFT-PAIN AT INJECTION SITE-DAY 5,DELTOID MUSCLE,OCCUR,Occurrence Indicator,PAIN AT INJECTION SITE,REACTOGENICITY,ADMINISTRATION SITE,,,,VACCINATION 2,2022-01-03,62,DAY 5,5,VACCINATION 2,2021-12-30T09:10:00,-P1D,,NOT DONE,SUBJECT DID NOT COMPLETE ELECTRONIC DIARY,,,
99,ABC,FACE,ABC-1001,99,VACCINATION 2-DELTOID MUSCLE-LEFT-PAIN AT INJECTION SITE,LEFT,VACCINATION 2-DELTOID MUSCLE-LEFT-PAIN AT INJECTION SITE-DAY 6,DELTOID MUSCLE,OCCUR,Occurrence Indicator,PAIN AT INJECTION SITE,REACTOGENICITY,ADMINISTRATION SITE,,,,VACCINATION 2,2022-01-04,63,DAY 6,6,VACCINATION 2,2021-12-30T09:10:00,-P1D,,NOT DONE,SUBJECT DID NOT COMPLETE ELECTRONIC DIARY,,,
100,ABC,FACE,ABC-1001,100,VACCINATION 2-DELTOID MUSCLE-LEFT-PAIN AT INJECTION SITE,LEFT,VACCINATION 2-DELTOID MUSCLE-LEFT-PAIN AT INJECTION SITE-DAY 7,DELTOID MUSCLE,OCCUR,Occurrence Indicator,PAIN AT INJECTION SITE,REACTOGENICITY,ADMINISTRATION SITE,,,,VACCINATION 2,2022-01-05,64,DAY 7,7,VACCINATION 2,2021-12-30T09:10:00,-P1D,,NOT DONE,SUBJECT DID NOT COMPLETE ELECTRONIC DIARY,,,
101,ABC,FACE,ABC-1001,101,VACCINATION 2-DELTOID MUSCLE-LEFT-REDNESS,LEFT,VACCINATION 2-DELTOID MUSCLE-LEFT-REDNESS-DAY 1,DELTOID MUSCLE,OCCUR,Occurrence Indicator,REDNESS,REACTOGENICITY,ADMINISTRATION SITE,,,,VACCINATION 2,2021-12-30,58,DAY 1,1,VACCINATION 2,2021-12-30T09:10:00,,SINCE VACCINATION,NOT DONE,SUBJECT DID NOT COMPLETE ELECTRONIC DIARY,,,
102,ABC,FACE,ABC-1001,102,VACCINATION 2-DELTOID MUSCLE-LEFT-REDNESS,LEFT,VACCINATION 2-DELTOID MUSCLE-LEFT-REDNESS-DAY 2,DELTOID MUSCLE,OCCUR,Occurrence Indicator,REDNESS,REACTOGENICITY,ADMINISTRATION SITE,,,,VACCINATION 2,2021-12-31,59,DAY 2,2,VACCINATION 2,2021-12-30T09:10:00,-P1D,,NOT DONE,SUBJECT DID NOT COMPLETE ELECTRONIC DIARY,,,
103,ABC,FACE,ABC-1001,103,VACCINATION 2-DELTOID MUSCLE-LEFT-REDNESS,LEFT,VACCINATION 2-DELTOID MUSCLE-LEFT-REDNESS-DAY 3,DELTOID MUSCLE,OCCUR,Occurrence Indicator,REDNESS,REACTOGENICITY,ADMINISTRATION SITE,,,,VACCINATION 2,2022-01-01,60,DAY 3,3,VACCINATION 2,2021-12-30T09:10:00,-P1D,,NOT DONE,SUBJECT DID NOT COMPLETE ELECTRONIC DIARY,,,
104,ABC,FACE,ABC-1001,104,VACCINATION 2-DELTOID MUSCLE-LEFT-REDNESS,LEFT,VACCINATION 2-DELTOID MUSCLE-LEFT-REDNESS-DAY 4,DELTOID MUSCLE,OCCUR,Occurrence Indicator,REDNESS,REACTOGENICITY,ADMINISTRATION SITE,,,,VACCINATION 2,2022-01-02,61,DAY 4,4,VACCINATION 2,2021-12-30T09:10:00,-P1D,,NOT DONE,SUBJECT DID NOT COMPLETE ELECTRONIC DIARY,,,
105,ABC,FACE,ABC-1001,105,VACCINATION 2-DELTOID MUSCLE-LEFT-REDNESS,LEFT,VACCINATION 2-DELTOID MUSCLE-LEFT-REDNESS-DAY 5,DELTOID MUSCLE,OCCUR,Occurrence Indicator,REDNESS,REACTOGENICITY,ADMINISTRATION SITE,,,,VACCINATION 2,2022-01-03,62,DAY 5,5,VACCINATION 2,2021-12-30T09:10:00,-P1D,,NOT DONE,SUBJECT DID NOT COMPLETE ELECTRONIC DIARY,,,
106,ABC,FACE,ABC-1001,106,VACCINATION 2-DELTOID MUSCLE-LEFT-REDNESS,LEFT,VACCINATION 2-DELTOID MUSCLE-LEFT-REDNESS-DAY 6,DELTOID MUSCLE,OCCUR,Occurrence Indicator,REDNESS,REACTOGENICITY,ADMINISTRATION SITE,,,,VACCINATION 2,2022-01-04,63,DAY 6,6,VACCINATION 2,2021-12-30T09:10:00,-P1D,,NOT DONE,SUBJECT DID NOT COMPLETE ELECTRONIC DIARY,,,
107,ABC,FACE,ABC-1001,107,VACCINATION 2-DELTOID MUSCLE-LEFT-REDNESS,LEFT,VACCINATION 2-DELTOID MUSCLE-LEFT-REDNESS-DAY 7,DELTOID MUSCLE,OCCUR,Occurrence Indicator,REDNESS,REACTOGENICITY,ADMINISTRATION SITE,,,,VACCINATION 2,2022-01-05,64,DAY 7,7,VACCINATION 2,2021-12-30T09:10:00,-P1D,,NOT DONE,SUBJECT DID NOT COMPLETE ELECTRONIC DIARY,,,
108,ABC,FACE,ABC-1001,108,VACCINATION 2-DELTOID MUSCLE-LEFT-SWELLING,LEFT,VACCINATION 2-DELTOID MUSCLE-LEFT-SWELLING-DAY 1,DELTOID MUSCLE,OCCUR,Occurrence Indicator,SWELLING,REACTOGENICITY,ADMINISTRATION SITE,,,,VACCINATION 2,2021-12-30,58,DAY 1,1,VACCINATION 2,2021-12-30T09:10:00,,SINCE VACCINATION,NOT DONE,SUBJECT DID NOT COMPLETE ELECTRONIC DIARY,,,
109,ABC,FACE,ABC-1001,109,VACCINATION 2-DELTOID MUSCLE-LEFT-SWELLING,LEFT,VACCINATION 2-DELTOID MUSCLE-LEFT-SWELLING-DAY 2,DELTOID MUSCLE,OCCUR,Occurrence Indicator,SWELLING,REACTOGENICITY,ADMINISTRATION SITE,,,,VACCINATION 2,2021-12-31,59,DAY 2,2,VACCINATION 2,2021-12-30T09:10:00,-P1D,,NOT DONE,SUBJECT DID NOT COMPLETE ELECTRONIC DIARY,,,
110,ABC,FACE,ABC-1001,110,VACCINATION 2-DELTOID MUSCLE-LEFT-SWELLING,LEFT,VACCINATION 2-DELTOID MUSCLE-LEFT-SWELLING-DAY 3,DELTOID MUSCLE,OCCUR,Occurrence Indicator,SWELLING,REACTOGENICITY,ADMINISTRATION SITE,,,,VACCINATION 2,2022-01-01,60,DAY 3,3,VACCINATION 2,2021-12-30T09:10:00,-P1D,,NOT DONE,SUBJECT DID NOT COMPLETE ELECTRONIC DIARY,,,
111,ABC,FACE,ABC-1001,111,VACCINATION 2-DELTOID MUSCLE-LEFT-SWELLING,LEFT,VACCINATION 2-DELTOID MUSCLE-LEFT-SWELLING-DAY 4,DELTOID MUSCLE,OCCUR,Occurrence Indicator,SWELLING,REACTOGENICITY,ADMINISTRATION SITE,,,,VACCINATION 2,2022-01-02,61,DAY 4,4,VACCINATION 2,2021-12-30T09:10:00,-P1D,,NOT DONE,SUBJECT DID NOT COMPLETE ELECTRONIC DIARY,,,
112,ABC,FACE,ABC-1001,112,VACCINATION 2-DELTOID MUSCLE-LEFT-SWELLING,LEFT,VACCINATION 2-DELTOID MUSCLE-LEFT-SWELLING-DAY 5,DELTOID MUSCLE,OCCUR,Occurrence Indicator,SWELLING,REACTOGENICITY,ADMINISTRATION SITE,,,,VACCINATION 2,2022-01-03,62,DAY 5,5,VACCINATION 2,2021-12-30T09:10:00,-P1D,,NOT DONE,SUBJECT DID NOT COMPLETE ELECTRONIC DIARY,,,
113,ABC,FACE,ABC-1001,113,VACCINATION 2-DELTOID MUSCLE-LEFT-SWELLING,LEFT,VACCINATION 2-DELTOID MUSCLE-LEFT-SWELLING-DAY 6,DELTOID MUSCLE,OCCUR,Occurrence Indicator,SWELLING,REACTOGENICITY,ADMINISTRATION SITE,,,,VACCINATION 2,2022-01-04,63,DAY 6,6,VACCINATION 2,2021-12-30T09:10:00,-P1D,,NOT DONE,SUBJECT DID NOT COMPLETE ELECTRONIC DIARY,,,
114,ABC,FACE,ABC-1001,114,VACCINATION 2-DELTOID MUSCLE-LEFT-SWELLING,LEFT,VACCINATION 2-DELTOID MUSCLE-LEFT-SWELLING-DAY 7,DELTOID MUSCLE,OCCUR,Occurrence Indicator,SWELLING,REACTOGENICITY,ADMINISTRATION SITE,,,,VACCINATION 2,2022-01-05,64,DAY 7,7,VACCINATION 2,2021-12-30T09:10:00,-P1D,,NOT DONE,SUBJECT DID NOT COMPLETE ELECTRONIC DIARY,,,
115,ABC,FACE,ABC-1001,115,VACCINATION 2-DIARRHEA,,VACCINATION 2-DIARRHEA-DAY 1,,OCCUR,Occurrence Indicator,DIARRHEA,REACTOGENICITY,SYSTEMIC,,,,VACCINATION 2,2021-12-30,58,DAY 1,1,VACCINATION 2,2021-12-30T09:10:00,,SINCE VACCINATION,NOT DONE,SUBJECT DID NOT COMPLETE ELECTRONIC DIARY,,,
116,ABC,FACE,ABC-1001,116,VACCINATION 2-DIARRHEA,,VACCINATION 2-DIARRHEA-DAY 2,,OCCUR,Occurrence Indicator,DIARRHEA,REACTOGENICITY,SYSTEMIC,,,,VACCINATION 2,2021-12-31,59,DAY 2,2,VACCINATION 2,2021-12-30T09:10:00,-P1D,,NOT DONE,SUBJECT DID NOT COMPLETE ELECTRONIC DIARY,,,
117,ABC,FACE,ABC-1001,117,VACCINATION 2-DIARRHEA,,VACCINATION 2-DIARRHEA-DAY 3,,OCCUR,Occurrence Indicator,DIARRHEA,REACTOGENICITY,SYSTEMIC,,,,VACCINATION 2,2022-01-01,60,DAY 3,3,VACCINATION 2,2021-12-30T09:10:00,-P1D,,NOT DONE,SUBJECT DID NOT COMPLETE ELECTRONIC DIARY,,,
118,ABC,FACE,ABC-1001,118,VACCINATION 2-DIARRHEA,,VACCINATION 2-DIARRHEA-DAY 4,,OCCUR,Occurrence Indicator,DIARRHEA,REACTOGENICITY,SYSTEMIC,,,,VACCINATION 2,2022-01-02,61,DAY 4,4,VACCINATION 2,2021-12-30T09:10:00,-P1D,,NOT DONE,SUBJECT DID NOT COMPLETE ELECTRONIC DIARY,,,
119,ABC,FACE,ABC-1001,119,VACCINATION 2-DIARRHEA,,VACCINATION 2-DIARRHEA-DAY 5,,OCCUR,Occurrence Indicator,DIARRHEA,REACTOGENICITY,SYSTEMIC,,,,VACCINATION 2,2022-01-03,62,DAY 5,5,VACCINATION 2,2021-12-30T09:10:00,-P1D,,NOT DONE,SUBJECT DID NOT COMPLETE ELECTRONIC DIARY,,,
120,ABC,FACE,ABC-1001,120,VACCINATION 2-DIARRHEA,,VACCINATION 2-DIARRHEA-DAY 6,,OCCUR,Occurrence Indicator,DIARRHEA,REACTOGENICITY,SYSTEMIC,,,,VACCINATION 2,2022-01-04,63,DAY 6,6,VACCINATION 2,2021-12-30T09:10:00,-P1D,,NOT DONE,SUBJECT DID NOT COMPLETE ELECTRONIC DIARY,,,
121,ABC,FACE,ABC-1001,121,VACCINATION 2-DIARRHEA,,VACCINATION 2-DIARRHEA-DAY 7,,OCCUR,Occurrence Indicator,DIARRHEA,REACTOGENICITY,SYSTEMIC,,,,VACCINATION 2,2022-01-05,64,DAY 7,7,VACCINATION 2,2021-12-30T09:10:00,-P1D,,NOT DONE,SUBJECT DID NOT COMPLETE ELECTRONIC DIARY,,,
122,ABC,FACE,ABC-1001,122,VACCINATION 2-FATIGUE,,VACCINATION 2-FATIGUE-DAY 1,,OCCUR,Occurrence Indicator,FATIGUE,REACTOGENICITY,SYSTEMIC,,,,VACCINATION 2,2021-12-30,58,DAY 1,1,VACCINATION 2,2021-12-30T09:10:00,,SINCE VACCINATION,NOT DONE,SUBJECT DID NOT COMPLETE ELECTRONIC DIARY,,,
123,ABC,FACE,ABC-1001,123,VACCINATION 2-FATIGUE,,VACCINATION 2-FATIGUE-DAY 2,,OCCUR,Occurrence Indicator,FATIGUE,REACTOGENICITY,SYSTEMIC,,,,VACCINATION 2,2021-12-31,59,DAY 2,2,VACCINATION 2,2021-12-30T09:10:00,-P1D,,NOT DONE,SUBJECT DID NOT COMPLETE ELECTRONIC DIARY,,,
124,ABC,FACE,ABC-1001,124,VACCINATION 2-FATIGUE,,VACCINATION 2-FATIGUE-DAY 3,,OCCUR,Occurrence Indicator,FATIGUE,REACTOGENICITY,SYSTEMIC,,,,VACCINATION 2,2022-01-01,60,DAY 3,3,VACCINATION 2,2021-12-30T09:10:00,-P1D,,NOT DONE,SUBJECT DID NOT COMPLETE ELECTRONIC DIARY,,,
125,ABC,FACE,ABC-1001,125,VACCINATION 2-FATIGUE,,VACCINATION 2-FATIGUE-DAY 4,,OCCUR,Occurrence Indicator,FATIGUE,REACTOGENICITY,SYSTEMIC,,,,VACCINATION 2,2022-01-02,61,DAY 4,4,VACCINATION 2,2021-12-30T09:10:00,-P1D,,NOT DONE,SUBJECT DID NOT COMPLETE ELECTRONIC DIARY,,,
126,ABC,FACE,ABC-1001,126,VACCINATION 2-FATIGUE,,VACCINATION 2-FATIGUE-DAY 5,,OCCUR,Occurrence Indicator,FATIGUE,REACTOGENICITY,SYSTEMIC,,,,VACCINATION 2,2022-01-03,62,DAY 5,5,VACCINATION 2,2021-12-30T09:10:00,-P1D,,NOT DONE,SUBJECT DID NOT COMPLETE ELECTRONIC DIARY,,,
127,ABC,FACE,ABC-1001,127,VACCINATION 2-FATIGUE,,VACCINATION 2-FATIGUE-DAY 6,,OCCUR,Occurrence Indicator,FATIGUE,REACTOGENICITY,SYSTEMIC,,,,VACCINATION 2,2022-01-04,63,DAY 6,6,VACCINATION 2,2021-12-30T09:10:00,-P1D,,NOT DONE,SUBJECT DID NOT COMPLETE ELECTRONIC DIARY,,,
128,ABC,FACE,ABC-1001,128,VACCINATION 2-FATIGUE,,VACCINATION 2-FATIGUE-DAY 7,,OCCUR,Occurrence Indicator,FATIGUE,REACTOGENICITY,SYSTEMIC,,,,VACCINATION 2,2022-01-05,64,DAY 7,7,VACCINATION 2,2021-12-30T09:10:00,-P1D,,NOT DONE,SUBJECT DID NOT COMPLETE ELECTRONIC DIARY,,,
129,ABC,FACE,ABC-1001,129,VACCINATION 2-HEADACHE,,VACCINATION 2-HEADACHE-DAY 1,,OCCUR,Occurrence Indicator,HEADACHE,REACTOGENICITY,SYSTEMIC,,,,VACCINATION 2,2021-12-30,58,DAY 1,1,VACCINATION 2,2021-12-30T09:10:00,,SINCE VACCINATION,NOT DONE,SUBJECT DID NOT COMPLETE ELECTRONIC DIARY,,,
130,ABC,FACE,ABC-1001,130,VACCINATION 2-HEADACHE,,VACCINATION 2-HEADACHE-DAY 2,,OCCUR,Occurrence Indicator,HEADACHE,REACTOGENICITY,SYSTEMIC,,,,VACCINATION 2,2021-12-31,59,DAY 2,2,VACCINATION 2,2021-12-30T09:10:00,-P1D,,NOT DONE,SUBJECT DID NOT COMPLETE ELECTRONIC DIARY,,,
131,ABC,FACE,ABC-1001,131,VACCINATION 2-HEADACHE,,VACCINATION 2-HEADACHE-DAY 3,,OCCUR,Occurrence Indicator,HEADACHE,REACTOGENICITY,SYSTEMIC,,,,VACCINATION 2,2022-01-01,60,DAY 3,3,VACCINATION 2,2021-12-30T09:10:00,-P1D,,NOT DONE,SUBJECT DID NOT COMPLETE ELECTRONIC DIARY,,,
132,ABC,FACE,ABC-1001,132,VACCINATION 2-HEADACHE,,VACCINATION 2-HEADACHE-DAY 4,,OCCUR,Occurrence Indicator,HEADACHE,REACTOGENICITY,SYSTEMIC,,,,VACCINATION 2,2022-01-02,61,DAY 4,4,VACCINATION 2,2021-12-30T09:10:00,-P1D,,NOT DONE,SUBJECT DID NOT COMPLETE ELECTRONIC DIARY,,,
133,ABC,FACE,ABC-1001,133,VACCINATION 2-HEADACHE,,VACCINATION 2-HEADACHE-DAY 5,,OCCUR,Occurrence Indicator,HEADACHE,REACTOGENICITY,SYSTEMIC,,,,VACCINATION 2,2022-01-03,62,DAY 5,5,VACCINATION 2,2021-12-30T09:10:00,-P1D,,NOT DONE,SUBJECT DID NOT COMPLETE ELECTRONIC DIARY,,,
134,ABC,FACE,ABC-1001,134,VACCINATION 2-HEADACHE,,VACCINATION 2-HEADACHE-DAY 6,,OCCUR,Occurrence Indicator,HEADACHE,REACTOGENICITY,SYSTEMIC,,,,VACCINATION 2,2022-01-04,63,DAY 6,6,VACCINATION 2,2021-12-30T09:10:00,-P1D,,NOT DONE,SUBJECT DID NOT COMPLETE ELECTRONIC DIARY,,,
135,ABC,FACE,ABC-1001,135,VACCINATION 2-HEADACHE,,VACCINATION 2-HEADACHE-DAY 7,,OCCUR,Occurrence Indicator,HEADACHE,REACTOGENICITY,SYSTEMIC,,,,VACCINATION 2,2022-01-05,64,DAY 7,7,VACCINATION 2,2021-12-30T09:10:00,-P1D,,NOT DONE,SUBJECT DID NOT COMPLETE ELECTRONIC DIARY,,,
136,ABC,FACE,ABC-1001,136,VACCINATION 2-NEW OR WORSENED JOINT PAIN,,VACCINATION 2-NEW OR WORSENED JOINT PAIN-DAY 1,,OCCUR,Occurrence Indicator,NEW OR WORSENED JOINT PAIN,REACTOGENICITY,SYSTEMIC,,,,VACCINATION 2,2021-12-30,58,DAY 1,1,VACCINATION 2,2021-12-30T09:10:00,,SINCE VACCINATION,NOT DONE,SUBJECT DID NOT COMPLETE ELECTRONIC DIARY,,,
137,ABC,FACE,ABC-1001,137,VACCINATION 2-NEW OR WORSENED JOINT PAIN,,VACCINATION 2-NEW OR WORSENED JOINT PAIN-DAY 2,,OCCUR,Occurrence Indicator,NEW OR WORSENED JOINT PAIN,REACTOGENICITY,SYSTEMIC,,,,VACCINATION 2,2021-12-31,59,DAY 2,2,VACCINATION 2,2021-12-30T09:10:00,-P1D,,NOT DONE,SUBJECT DID NOT COMPLETE ELECTRONIC DIARY,,,
138,ABC,FACE,ABC-1001,138,VACCINATION 2-NEW OR WORSENED JOINT PAIN,,VACCINATION 2-NEW OR WORSENED JOINT PAIN-DAY 3,,OCCUR,Occurrence Indicator,NEW OR WORSENED JOINT PAIN,REACTOGENICITY,SYSTEMIC,,,,VACCINATION 2,2022-01-01,60,DAY 3,3,VACCINATION 2,2021-12-30T09:10:00,-P1D,,NOT DONE,SUBJECT DID NOT COMPLETE ELECTRONIC DIARY,,,
139,ABC,FACE,ABC-1001,139,VACCINATION 2-NEW OR WORSENED JOINT PAIN,,VACCINATION 2-NEW OR WORSENED JOINT PAIN-DAY 4,,OCCUR,Occurrence Indicator,NEW OR WORSENED JOINT PAIN,REACTOGENICITY,SYSTEMIC,,,,VACCINATION 2,2022-01-02,61,DAY 4,4,VACCINATION 2,2021-12-30T09:10:00,-P1D,,NOT DONE,SUBJECT DID NOT COMPLETE ELECTRONIC DIARY,,,
140,ABC,FACE,ABC-1001,140,VACCINATION 2-NEW OR WORSENED JOINT PAIN,,VACCINATION 2-NEW OR WORSENED JOINT PAIN-DAY 5,,OCCUR,Occurrence Indicator,NEW OR WORSENED JOINT PAIN,REACTOGENICITY,SYSTEMIC,,,,VACCINATION 2,2022-01-03,62,DAY 5,5,VACCINATION 2,2021-12-30T09:10:00,-P1D,,NOT DONE,SUBJECT DID NOT COMPLETE ELECTRONIC DIARY,,,
141,ABC,FACE,ABC-1001,141,VACCINATION 2-NEW OR WORSENED JOINT PAIN,,VACCINATION 2-NEW OR WORSENED JOINT PAIN-DAY 6,,OCCUR,Occurrence Indicator,NEW OR WORSENED JOINT PAIN,REACTOGENICITY,SYSTEMIC,,,,VACCINATION 2,2022-01-04,63,DAY 6,6,VACCINATION 2,2021-12-30T09:10:00,-P1D,,NOT DONE,SUBJECT DID NOT COMPLETE ELECTRONIC DIARY,,,
142,ABC,FACE,ABC-1001,142,VACCINATION 2-NEW OR WORSENED JOINT PAIN,,VACCINATION 2-NEW OR WORSENED JOINT PAIN-DAY 7,,OCCUR,Occurrence Indicator,NEW OR WORSENED JOINT PAIN,REACTOGENICITY,SYSTEMIC,,,,VACCINATION 2,2022-01-05,64,DAY 7,7,VACCINATION 2,2021-12-30T09:10:00,-P1D,,NOT DONE,SUBJECT DID NOT COMPLETE ELECTRONIC DIARY,,,
143,ABC,FACE,ABC-1001,143,VACCINATION 2-NEW OR WORSENED MUSCLE PAIN,,VACCINATION 2-NEW OR WORSENED MUSCLE PAIN-DAY 1,,OCCUR,Occurrence Indicator,NEW OR WORSENED MUSCLE PAIN,REACTOGENICITY,SYSTEMIC,,,,VACCINATION 2,2021-12-30,58,DAY 1,1,VACCINATION 2,2021-12-30T09:10:00,,SINCE VACCINATION,NOT DONE,SUBJECT DID NOT COMPLETE ELECTRONIC DIARY,,,
144,ABC,FACE,ABC-1001,144,VACCINATION 2-NEW OR WORSENED MUSCLE PAIN,,VACCINATION 2-NEW OR WORSENED MUSCLE PAIN-DAY 2,,OCCUR,Occurrence Indicator,NEW OR WORSENED MUSCLE PAIN,REACTOGENICITY,SYSTEMIC,,,,VACCINATION 2,2021-12-31,59,DAY 2,2,VACCINATION 2,2021-12-30T09:10:00,-P1D,,NOT DONE,SUBJECT DID NOT COMPLETE ELECTRONIC DIARY,,,
145,ABC,FACE,ABC-1001,145,VACCINATION 2-NEW OR WORSENED MUSCLE PAIN,,VACCINATION 2-NEW OR WORSENED MUSCLE PAIN-DAY 3,,OCCUR,Occurrence Indicator,NEW OR WORSENED MUSCLE PAIN,REACTOGENICITY,SYSTEMIC,,,,VACCINATION 2,2022-01-01,60,DAY 3,3,VACCINATION 2,2021-12-30T09:10:00,-P1D,,NOT DONE,SUBJECT DID NOT COMPLETE ELECTRONIC DIARY,,,
146,ABC,FACE,ABC-1001,146,VACCINATION 2-NEW OR WORSENED MUSCLE PAIN,,VACCINATION 2-NEW OR WORSENED MUSCLE PAIN-DAY 4,,OCCUR,Occurrence Indicator,NEW OR WORSENED MUSCLE PAIN,REACTOGENICITY,SYSTEMIC,,,,VACCINATION 2,2022-01-02,61,DAY 4,4,VACCINATION 2,2021-12-30T09:10:00,-P1D,,NOT DONE,SUBJECT DID NOT COMPLETE ELECTRONIC DIARY,,,
147,ABC,FACE,ABC-1001,147,VACCINATION 2-NEW OR WORSENED MUSCLE PAIN,,VACCINATION 2-NEW OR WORSENED MUSCLE PAIN-DAY 5,,OCCUR,Occurrence Indicator,NEW OR WORSENED MUSCLE PAIN,REACTOGENICITY,SYSTEMIC,,,,VACCINATION 2,2022-01-03,62,DAY 5,5,VACCINATION 2,2021-12-30T09:10:00,-P1D,,NOT DONE,SUBJECT DID NOT COMPLETE ELECTRONIC DIARY,,,
148,ABC,FACE,ABC-1001,148,VACCINATION 2-NEW OR WORSENED MUSCLE PAIN,,VACCINATION 2-NEW OR WORSENED MUSCLE PAIN-DAY 6,,OCCUR,Occurrence Indicator,NEW OR WORSENED MUSCLE PAIN,REACTOGENICITY,SYSTEMIC,,,,VACCINATION 2,2022-01-04,63,DAY 6,6,VACCINATION 2,2021-12-30T09:10:00,-P1D,,NOT DONE,SUBJECT DID NOT COMPLETE ELECTRONIC DIARY,,,
149,ABC,FACE,ABC-1001,149,VACCINATION 2-NEW OR WORSENED MUSCLE PAIN,,VACCINATION 2-NEW OR WORSENED MUSCLE PAIN-DAY 7,,OCCUR,Occurrence Indicator,NEW OR WORSENED MUSCLE PAIN,REACTOGENICITY,SYSTEMIC,,,,VACCINATION 2,2022-01-05,64,DAY 7,7,VACCINATION 2,2021-12-30T09:10:00,-P1D,,NOT DONE,SUBJECT DID NOT COMPLETE ELECTRONIC DIARY,,,
150,ABC,FACE,ABC-1001,150,VACCINATION 2-VOMITING,,VACCINATION 2-VOMITING-DAY 1,,OCCUR,Occurrence Indicator,VOMITING,REACTOGENICITY,SYSTEMIC,,,,VACCINATION 2,2021-12-30,58,DAY 1,1,VACCINATION 2,2021-12-30T09:10:00,,SINCE VACCINATION,NOT DONE,SUBJECT DID NOT COMPLETE ELECTRONIC DIARY,,,
151,ABC,FACE,ABC-1001,151,VACCINATION 2-VOMITING,,VACCINATION 2-VOMITING-DAY 2,,OCCUR,Occurrence Indicator,VOMITING,REACTOGENICITY,SYSTEMIC,,,,VACCINATION 2,2021-12-31,59,DAY 2,2,VACCINATION 2,2021-12-30T09:10:00,-P1D,,NOT DONE,SUBJECT DID NOT COMPLETE ELECTRONIC DIARY,,,
152,ABC,FACE,ABC-1001,152,VACCINATION 2-VOMITING,,VACCINATION 2-VOMITING-DAY 3,,OCCUR,Occurrence Indicator,VOMITING,REACTOGENICITY,SYSTEMIC,,,,VACCINATION 2,2022-01-01,60,DAY 3,3,VACCINATION 2,2021-12-30T09:10:00,-P1D,,NOT DONE,SUBJECT DID NOT COMPLETE ELECTRONIC DIARY,,,
153,ABC,FACE,ABC-1001,153,VACCINATION 2-VOMITING,,VACCINATION 2-VOMITING-DAY 4,,OCCUR,Occurrence Indicator,VOMITING,REACTOGENICITY,SYSTEMIC,,,,VACCINATION 2,2022-01-02,61,DAY 4,4,VACCINATION 2,2021-12-30T09:10:00,-P1D,,NOT DONE,SUBJECT DID NOT COMPLETE ELECTRONIC DIARY,,,
154,ABC,FACE,ABC-1001,154,VACCINATION 2-VOMITING,,VACCINATION 2-VOMITING-DAY 5,,OCCUR,Occurrence Indicator,VOMITING,REACTOGENICITY,SYSTEMIC,,,,VACCINATION 2,2022-01-03,62,DAY 5,5,VACCINATION 2,2021-12-30T09:10:00,-P1D,,NOT DONE,SUBJECT DID NOT COMPLETE ELECTRONIC DIARY,,,
155,ABC,FACE,ABC-1001,155,VACCINATION 2-VOMITING,,VACCINATION 2-VOMITING-DAY 6,,OCCUR,Occurrence Indicator,VOMITING,REACTOGENICITY,SYSTEMIC,,,,VACCINATION 2,2022-01-04,63,DAY 6,6,VACCINATION 2,2021-12-30T09:10:00,-P1D,,NOT DONE,SUBJECT DID NOT COMPLETE ELECTRONIC DIARY,,,
156,ABC,FACE,ABC-1001,156,VACCINATION 2-VOMITING,,VACCINATION 2-VOMITING-DAY 7,,OCCUR,Occurrence Indicator,VOMITING,REACTOGENICITY,SYSTEMIC,,,,VACCINATION 2,2022-01-05,64,DAY 7,7,VACCINATION 2,2021-12-30T09:10:00,-P1D,,NOT DONE,SUBJECT DID NOT COMPLETE ELECTRONIC DIARY,,,
157,ABC,FACE,ABC-1002,1,VACCINATION 1-CHILLS,,VACCINATION 1-CHILLS-DAY 1,,OCCUR,Occurrence Indicator,CHILLS,REACTOGENICITY,SYSTEMIC,STUDY SUBJECT,N,,VACCINATION 1,2021-10-07T19:14:10,1,DAY 1,1,VACCINATION 1,2021-10-07T12:48:00,,SINCE VACCINATION,,,N,,
158,ABC,FACE,ABC-1002,2,VACCINATION 1-CHILLS,,VACCINATION 1-CHILLS-DAY 2,,OCCUR,Occurrence Indicator,CHILLS,REACTOGENICITY,SYSTEMIC,STUDY SUBJECT,N,,VACCINATION 1,2021-10-08T18:13:47,2,DAY 2,2,VACCINATION 1,2021-10-07T12:48:00,-P1D,,,,N,,
159,ABC,FACE,ABC-1002,3,VACCINATION 1-CHILLS,,VACCINATION 1-CHILLS-DAY 3,,OCCUR,Occurrence Indicator,CHILLS,REACTOGENICITY,SYSTEMIC,STUDY SUBJECT,N,,VACCINATION 1,2021-10-09T18:02:12,3,DAY 3,3,VACCINATION 1,2021-10-07T12:48:00,-P1D,,,,N,,
160,ABC,FACE,ABC-1002,4,VACCINATION 1-CHILLS,,VACCINATION 1-CHILLS-DAY 4,,OCCUR,Occurrence Indicator,CHILLS,REACTOGENICITY,SYSTEMIC,STUDY SUBJECT,N,,VACCINATION 1,2021-10-10T18:03:17,4,DAY 4,4,VACCINATION 1,2021-10-07T12:48:00,-P1D,,,,N,,
161,ABC,FACE,ABC-1002,5,VACCINATION 1-CHILLS,,VACCINATION 1-CHILLS-DAY 5,,OCCUR,Occurrence Indicator,CHILLS,REACTOGENICITY,SYSTEMIC,STUDY SUBJECT,N,,VACCINATION 1,2021-10-11T18:11:54,5,DAY 5,5,VACCINATION 1,2021-10-07T12:48:00,-P1D,,,,N,,
162,ABC,FACE,ABC-1002,6,VACCINATION 1-CHILLS,,VACCINATION 1-CHILLS-DAY 6,,OCCUR,Occurrence Indicator,CHILLS,REACTOGENICITY,SYSTEMIC,,,,VACCINATION 1,2021-10-12,6,DAY 6,6,VACCINATION 1,2021-10-07T12:48:00,-P1D,,NOT DONE,SUBJECT DID NOT COMPLETE ELECTRONIC DIARY,,,
163,ABC,FACE,ABC-1002,7,VACCINATION 1-CHILLS,,VACCINATION 1-CHILLS-DAY 7,,OCCUR,Occurrence Indicator,CHILLS,REACTOGENICITY,SYSTEMIC,STUDY SUBJECT,N,,VACCINATION 1,2021-10-13T19:27:24,7,DAY 7,7,VACCINATION 1,2021-10-07T12:48:00,-P1D,,,,N,,
164,ABC,FACE,ABC-1002,8,VACCINATION 1-DELTOID MUSCLE-LEFT-PAIN AT INJECTION SITE,LEFT,VACCINATION 1-DELTOID MUSCLE-LEFT-PAIN AT INJECTION SITE-DAY 1,DELTOID MUSCLE,OCCUR,Occurrence Indicator,PAIN AT INJECTION SITE,REACTOGENICITY,ADMINISTRATION SITE,STUDY SUBJECT,N,,VACCINATION 1,2021-10-07T19:14:10,1,DAY 1,1,VACCINATION 1,2021-10-07T12:48:00,,SINCE VACCINATION,,,N,,
165,ABC,FACE,ABC-1002,9,VACCINATION 1-DELTOID MUSCLE-LEFT-PAIN AT INJECTION SITE,LEFT,VACCINATION 1-DELTOID MUSCLE-LEFT-PAIN AT INJECTION SITE-DAY 2,DELTOID MUSCLE,OCCUR,Occurrence Indicator,PAIN AT INJECTION SITE,REACTOGENICITY,ADMINISTRATION SITE,STUDY SUBJECT,N,,VACCINATION 1,2021-10-08T18:13:47,2,DAY 2,2,VACCINATION 1,2021-10-07T12:48:00,-P1D,,,,N,,
166,ABC,FACE,ABC-1002,10,VACCINATION 1-DELTOID MUSCLE-LEFT-PAIN AT INJECTION SITE,LEFT,VACCINATION 1-DELTOID MUSCLE-LEFT-PAIN AT INJECTION SITE-DAY 3,DELTOID MUSCLE,OCCUR,Occurrence Indicator,PAIN AT INJECTION SITE,REACTOGENICITY,ADMINISTRATION SITE,STUDY SUBJECT,N,,VACCINATION 1,2021-10-09T18:02:12,3,DAY 3,3,VACCINATION 1,2021-10-07T12:48:00,-P1D,,,,N,,
167,ABC,FACE,ABC-1002,11,VACCINATION 1-DELTOID MUSCLE-LEFT-PAIN AT INJECTION SITE,LEFT,VACCINATION 1-DELTOID MUSCLE-LEFT-PAIN AT INJECTION SITE-DAY 4,DELTOID MUSCLE,OCCUR,Occurrence Indicator,PAIN AT INJECTION SITE,REACTOGENICITY,ADMINISTRATION SITE,STUDY SUBJECT,N,,VACCINATION 1,2021-10-10T18:03:17,4,DAY 4,4,VACCINATION 1,2021-10-07T12:48:00,-P1D,,,,N,,
168,ABC,FACE,ABC-1002,12,VACCINATION 1-DELTOID MUSCLE-LEFT-PAIN AT INJECTION SITE,LEFT,VACCINATION 1-DELTOID MUSCLE-LEFT-PAIN AT INJECTION SITE-DAY 5,DELTOID MUSCLE,OCCUR,Occurrence Indicator,PAIN AT INJECTION SITE,REACTOGENICITY,ADMINISTRATION SITE,STUDY SUBJECT,N,,VACCINATION 1,2021-10-11T18:11:54,5,DAY 5,5,VACCINATION 1,2021-10-07T12:48:00,-P1D,,,,N,,
169,ABC,FACE,ABC-1002,13,VACCINATION 1-DELTOID MUSCLE-LEFT-PAIN AT INJECTION SITE,LEFT,VACCINATION 1-DELTOID MUSCLE-LEFT-PAIN AT INJECTION SITE-DAY 6,DELTOID MUSCLE,OCCUR,Occurrence Indicator,PAIN AT INJECTION SITE,REACTOGENICITY,ADMINISTRATION SITE,,,,VACCINATION 1,2021-10-12,6,DAY 6,6,VACCINATION 1,2021-10-07T12:48:00,-P1D,,NOT DONE,SUBJECT DID NOT COMPLETE ELECTRONIC DIARY,,,
170,ABC,FACE,ABC-1002,14,VACCINATION 1-DELTOID MUSCLE-LEFT-PAIN AT INJECTION SITE,LEFT,VACCINATION 1-DELTOID MUSCLE-LEFT-PAIN AT INJECTION SITE-DAY 7,DELTOID MUSCLE,OCCUR,Occurrence Indicator,PAIN AT INJECTION SITE,REACTOGENICITY,ADMINISTRATION SITE,STUDY SUBJECT,N,,VACCINATION 1,2021-10-13T19:27:24,7,DAY 7,7,VACCINATION 1,2021-10-07T12:48:00,-P1D,,,,N,,
171,ABC,FACE,ABC-1002,15,VACCINATION 1-DELTOID MUSCLE-LEFT-REDNESS,LEFT,VACCINATION 1-DELTOID MUSCLE-LEFT-REDNESS-DAY 1,DELTOID MUSCLE,OCCUR,Occurrence Indicator,REDNESS,REACTOGENICITY,ADMINISTRATION SITE,STUDY SUBJECT,N,,VACCINATION 1,2021-10-07T19:14:10,1,DAY 1,1,VACCINATION 1,2021-10-07T12:48:00,,SINCE VACCINATION,,,N,,
172,ABC,FACE,ABC-1002,16,VACCINATION 1-DELTOID MUSCLE-LEFT-REDNESS,LEFT,VACCINATION 1-DELTOID MUSCLE-LEFT-REDNESS-DAY 2,DELTOID MUSCLE,OCCUR,Occurrence Indicator,REDNESS,REACTOGENICITY,ADMINISTRATION SITE,STUDY SUBJECT,N,,VACCINATION 1,2021-10-08T18:13:47,2,DAY 2,2,VACCINATION 1,2021-10-07T12:48:00,-P1D,,,,N,,
173,ABC,FACE,ABC-1002,17,VACCINATION 1-DELTOID MUSCLE-LEFT-REDNESS,LEFT,VACCINATION 1-DELTOID MUSCLE-LEFT-REDNESS-DAY 3,DELTOID MUSCLE,DIAMETER,Diameter,REDNESS,REACTOGENICITY,ADMINISTRATION SITE,STUDY SUBJECT,5,Caliper unit,VACCINATION 1,2021-10-09T18:02:12,3,DAY 3,3,VACCINATION 1,2021-10-07T12:48:00,-P1D,,,,2.5,2.5,cm
174,ABC,FACE,ABC-1002,18,VACCINATION 1-DELTOID MUSCLE-LEFT-REDNESS,LEFT,VACCINATION 1-DELTOID MUSCLE-LEFT-REDNESS-DAY 3,DELTOID MUSCLE,OCCUR,Occurrence Indicator,REDNESS,REACTOGENICITY,ADMINISTRATION SITE,STUDY SUBJECT,Y,,VACCINATION 1,2021-10-09T18:02:12,3,DAY 3,3,VACCINATION 1,2021-10-07T12:48:00,-P1D,,,,Y,,
175,ABC,FACE,ABC-1002,19,VACCINATION 1-DELTOID MUSCLE-LEFT-REDNESS,LEFT,VACCINATION 1-DELTOID MUSCLE-LEFT-REDNESS-DAY 4,DELTOID MUSCLE,OCCUR,Occurrence Indicator,REDNESS,REACTOGENICITY,ADMINISTRATION SITE,STUDY SUBJECT,N,,VACCINATION 1,2021-10-10T18:03:17,4,DAY 4,4,VACCINATION 1,2021-10-07T12:48:00,-P1D,,,,N,,
176,ABC,FACE,ABC-1002,20,VACCINATION 1-DELTOID MUSCLE-LEFT-REDNESS,LEFT,VACCINATION 1-DELTOID MUSCLE-LEFT-REDNESS-DAY 5,DELTOID MUSCLE,OCCUR,Occurrence Indicator,REDNESS,REACTOGENICITY,ADMINISTRATION SITE,STUDY SUBJECT,N,,VACCINATION 1,2021-10-11T18:11:54,5,DAY 5,5,VACCINATION 1,2021-10-07T12:48:00,-P1D,,,,N,,
177,ABC,FACE,ABC-1002,21,VACCINATION 1-DELTOID MUSCLE-LEFT-REDNESS,LEFT,VACCINATION 1-DELTOID MUSCLE-LEFT-REDNESS-DAY 6,DELTOID MUSCLE,OCCUR,Occurrence Indicator,REDNESS,REACTOGENICITY,ADMINISTRATION SITE,,,,VACCINATION 1,2021-10-12,6,DAY 6,6,VACCINATION 1,2021-10-07T12:48:00,-P1D,,NOT DONE,SUBJECT DID NOT COMPLETE ELECTRONIC DIARY,,,
178,ABC,FACE,ABC-1002,22,VACCINATION 1-DELTOID MUSCLE-LEFT-REDNESS,LEFT,VACCINATION 1-DELTOID MUSCLE-LEFT-REDNESS-DAY 7,DELTOID MUSCLE,OCCUR,Occurrence Indicator,REDNESS,REACTOGENICITY,ADMINISTRATION SITE,STUDY SUBJECT,N,,VACCINATION 1,2021-10-13T19:27:24,7,DAY 7,7,VACCINATION 1,2021-10-07T12:48:00,-P1D,,,,N,,
179,ABC,FACE,ABC-1002,23,VACCINATION 1-DELTOID MUSCLE-LEFT-SWELLING,LEFT,VACCINATION 1-DELTOID MUSCLE-LEFT-SWELLING-DAY 1,DELTOID MUSCLE,OCCUR,Occurrence Indicator,SWELLING,REACTOGENICITY,ADMINISTRATION SITE,STUDY SUBJECT,N,,VACCINATION 1,2021-10-07T19:14:10,1,DAY 1,1,VACCINATION 1,2021-10-07T12:48:00,,SINCE VACCINATION,,,N,,
180,ABC,FACE,ABC-1002,24,VACCINATION 1-DELTOID MUSCLE-LEFT-SWELLING,LEFT,VACCINATION 1-DELTOID MUSCLE-LEFT-SWELLING-DAY 2,DELTOID MUSCLE,OCCUR,Occurrence Indicator,SWELLING,REACTOGENICITY,ADMINISTRATION SITE,STUDY SUBJECT,N,,VACCINATION 1,2021-10-08T18:13:47,2,DAY 2,2,VACCINATION 1,2021-10-07T12:48:00,-P1D,,,,N,,
181,ABC,FACE,ABC-1002,25,VACCINATION 1-DELTOID MUSCLE-LEFT-SWELLING,LEFT,VACCINATION 1-DELTOID MUSCLE-LEFT-SWELLING-DAY 3,DELTOID MUSCLE,OCCUR,Occurrence Indicator,SWELLING,REACTOGENICITY,ADMINISTRATION SITE,STUDY SUBJECT,N,,VACCINATION 1,2021-10-09T18:02:12,3,DAY 3,3,VACCINATION 1,2021-10-07T12:48:00,-P1D,,,,N,,
182,ABC,FACE,ABC-1002,26,VACCINATION 1-DELTOID MUSCLE-LEFT-SWELLING,LEFT,VACCINATION 1-DELTOID MUSCLE-LEFT-SWELLING-DAY 4,DELTOID MUSCLE,OCCUR,Occurrence Indicator,SWELLING,REACTOGENICITY,ADMINISTRATION SITE,STUDY SUBJECT,N,,VACCINATION 1,2021-10-10T18:03:17,4,DAY 4,4,VACCINATION 1,2021-10-07T12:48:00,-P1D,,,,N,,
183,ABC,FACE,ABC-1002,27,VACCINATION 1-DELTOID MUSCLE-LEFT-SWELLING,LEFT,VACCINATION 1-DELTOID MUSCLE-LEFT-SWELLING-DAY 5,DELTOID MUSCLE,OCCUR,Occurrence Indicator,SWELLING,REACTOGENICITY,ADMINISTRATION SITE,STUDY SUBJECT,N,,VACCINATION 1,2021-10-11T18:11:54,5,DAY 5,5,VACCINATION 1,2021-10-07T12:48:00,-P1D,,,,N,,
184,ABC,FACE,ABC-1002,28,VACCINATION 1-DELTOID MUSCLE-LEFT-SWELLING,LEFT,VACCINATION 1-DELTOID MUSCLE-LEFT-SWELLING-DAY 6,DELTOID MUSCLE,OCCUR,Occurrence Indicator,SWELLING,REACTOGENICITY,ADMINISTRATION SITE,,,,VACCINATION 1,2021-10-12,6,DAY 6,6,VACCINATION 1,2021-10-07T12:48:00,-P1D,,NOT DONE,SUBJECT DID NOT COMPLETE ELECTRONIC DIARY,,,
185,ABC,FACE,ABC-1002,29,VACCINATION 1-DELTOID MUSCLE-LEFT-SWELLING,LEFT,VACCINATION 1-DELTOID MUSCLE-LEFT-SWELLING-DAY 7,DELTOID MUSCLE,OCCUR,Occurrence Indicator,SWELLING,REACTOGENICITY,ADMINISTRATION SITE,STUDY SUBJECT,N,,VACCINATION 1,2021-10-13T19:27:24,7,DAY 7,7,VACCINATION 1,2021-10-07T12:48:00,-P1D,,,,N,,
186,ABC,FACE,ABC-1002,30,VACCINATION 1-DIARRHEA,,VACCINATION 1-DIARRHEA-DAY 1,,OCCUR,Occurrence Indicator,DIARRHEA,REACTOGENICITY,SYSTEMIC,STUDY SUBJECT,N,,VACCINATION 1,2021-10-07T19:14:10,1,DAY 1,1,VACCINATION 1,2021-10-07T12:48:00,,SINCE VACCINATION,,,N,,
187,ABC,FACE,ABC-1002,31,VACCINATION 1-DIARRHEA,,VACCINATION 1-DIARRHEA-DAY 2,,OCCUR,Occurrence Indicator,DIARRHEA,REACTOGENICITY,SYSTEMIC,STUDY SUBJECT,N,,VACCINATION 1,2021-10-08T18:13:47,2,DAY 2,2,VACCINATION 1,2021-10-07T12:48:00,-P1D,,,,N,,
188,ABC,FACE,ABC-1002,32,VACCINATION 1-DIARRHEA,,VACCINATION 1-DIARRHEA-DAY 3,,OCCUR,Occurrence Indicator,DIARRHEA,REACTOGENICITY,SYSTEMIC,STUDY SUBJECT,N,,VACCINATION 1,2021-10-09T18:02:12,3,DAY 3,3,VACCINATION 1,2021-10-07T12:48:00,-P1D,,,,N,,
189,ABC,FACE,ABC-1002,33,VACCINATION 1-DIARRHEA,,VACCINATION 1-DIARRHEA-DAY 4,,OCCUR,Occurrence Indicator,DIARRHEA,REACTOGENICITY,SYSTEMIC,STUDY SUBJECT,N,,VACCINATION 1,2021-10-10T18:03:17,4,DAY 4,4,VACCINATION 1,2021-10-07T12:48:00,-P1D,,,,N,,
190,ABC,FACE,ABC-1002,34,VACCINATION 1-DIARRHEA,,VACCINATION 1-DIARRHEA-DAY 5,,OCCUR,Occurrence Indicator,DIARRHEA,REACTOGENICITY,SYSTEMIC,STUDY SUBJECT,N,,VACCINATION 1,2021-10-11T18:11:54,5,DAY 5,5,VACCINATION 1,2021-10-07T12:48:00,-P1D,,,,N,,
191,ABC,FACE,ABC-1002,35,VACCINATION 1-DIARRHEA,,VACCINATION 1-DIARRHEA-DAY 6,,OCCUR,Occurrence Indicator,DIARRHEA,REACTOGENICITY,SYSTEMIC,,,,VACCINATION 1,2021-10-12,6,DAY 6,6,VACCINATION 1,2021-10-07T12:48:00,-P1D,,NOT DONE,SUBJECT DID NOT COMPLETE ELECTRONIC DIARY,,,
192,ABC,FACE,ABC-1002,36,VACCINATION 1-DIARRHEA,,VACCINATION 1-DIARRHEA-DAY 7,,OCCUR,Occurrence Indicator,DIARRHEA,REACTOGENICITY,SYSTEMIC,STUDY SUBJECT,N,,VACCINATION 1,2021-10-13T19:27:24,7,DAY 7,7,VACCINATION 1,2021-10-07T12:48:00,-P1D,,,,N,,
193,ABC,FACE,ABC-1002,37,VACCINATION 1-FATIGUE,,VACCINATION 1-FATIGUE-DAY 1,,OCCUR,Occurrence Indicator,FATIGUE,REACTOGENICITY,SYSTEMIC,STUDY SUBJECT,N,,VACCINATION 1,2021-10-07T19:14:10,1,DAY 1,1,VACCINATION 1,2021-10-07T12:48:00,,SINCE VACCINATION,,,N,,
194,ABC,FACE,ABC-1002,38,VACCINATION 1-FATIGUE,,VACCINATION 1-FATIGUE-DAY 2,,OCCUR,Occurrence Indicator,FATIGUE,REACTOGENICITY,SYSTEMIC,STUDY SUBJECT,N,,VACCINATION 1,2021-10-08T18:13:47,2,DAY 2,2,VACCINATION 1,2021-10-07T12:48:00,-P1D,,,,N,,
195,ABC,FACE,ABC-1002,39,VACCINATION 1-FATIGUE,,VACCINATION 1-FATIGUE-DAY 3,,OCCUR,Occurrence Indicator,FATIGUE,REACTOGENICITY,SYSTEMIC,STUDY SUBJECT,N,,VACCINATION 1,2021-10-09T18:02:12,3,DAY 3,3,VACCINATION 1,2021-10-07T12:48:00,-P1D,,,,N,,
196,ABC,FACE,ABC-1002,40,VACCINATION 1-FATIGUE,,VACCINATION 1-FATIGUE-DAY 4,,OCCUR,Occurrence Indicator,FATIGUE,REACTOGENICITY,SYSTEMIC,STUDY SUBJECT,N,,VACCINATION 1,2021-10-10T18:03:17,4,DAY 4,4,VACCINATION 1,2021-10-07T12:48:00,-P1D,,,,N,,
197,ABC,FACE,ABC-1002,41,VACCINATION 1-FATIGUE,,VACCINATION 1-FATIGUE-DAY 5,,OCCUR,Occurrence Indicator,FATIGUE,REACTOGENICITY,SYSTEMIC,STUDY SUBJECT,N,,VACCINATION 1,2021-10-11T18:11:54,5,DAY 5,5,VACCINATION 1,2021-10-07T12:48:00,-P1D,,,,N,,
198,ABC,FACE,ABC-1002,42,VACCINATION 1-FATIGUE,,VACCINATION 1-FATIGUE-DAY 6,,OCCUR,Occurrence Indicator,FATIGUE,REACTOGENICITY,SYSTEMIC,,,,VACCINATION 1,2021-10-12,6,DAY 6,6,VACCINATION 1,2021-10-07T12:48:00,-P1D,,NOT DONE,SUBJECT DID NOT COMPLETE ELECTRONIC DIARY,,,
199,ABC,FACE,ABC-1002,43,VACCINATION 1-FATIGUE,,VACCINATION 1-FATIGUE-DAY 7,,OCCUR,Occurrence Indicator,FATIGUE,REACTOGENICITY,SYSTEMIC,STUDY SUBJECT,N,,VACCINATION 1,2021-10-13T19:27:24,7,DAY 7,7,VACCINATION 1,2021-10-07T12:48:00,-P1D,,,,N,,
200,ABC,FACE,ABC-1002,44,VACCINATION 1-HEADACHE,,VACCINATION 1-HEADACHE-DAY 1,,OCCUR,Occurrence Indicator,HEADACHE,REACTOGENICITY,SYSTEMIC,STUDY SUBJECT,N,,VACCINATION 1,2021-10-07T19:14:10,1,DAY 1,1,VACCINATION 1,2021-10-07T12:48:00,,SINCE VACCINATION,,,N,,
201,ABC,FACE,ABC-1002,45,VACCINATION 1-HEADACHE,,VACCINATION 1-HEADACHE-DAY 2,,OCCUR,Occurrence Indicator,HEADACHE,REACTOGENICITY,SYSTEMIC,STUDY SUBJECT,N,,VACCINATION 1,2021-10-08T18:13:47,2,DAY 2,2,VACCINATION 1,2021-10-07T12:48:00,-P1D,,,,N,,
202,ABC,FACE,ABC-1002,46,VACCINATION 1-HEADACHE,,VACCINATION 1-HEADACHE-DAY 3,,OCCUR,Occurrence Indicator,HEADACHE,REACTOGENICITY,SYSTEMIC,STUDY SUBJECT,N,,VACCINATION 1,2021-10-09T18:02:12,3,DAY 3,3,VACCINATION 1,2021-10-07T12:48:00,-P1D,,,,N,,
203,ABC,FACE,ABC-1002,47,VACCINATION 1-HEADACHE,,VACCINATION 1-HEADACHE-DAY 4,,OCCUR,Occurrence Indicator,HEADACHE,REACTOGENICITY,SYSTEMIC,STUDY SUBJECT,N,,VACCINATION 1,2021-10-10T18:03:17,4,DAY 4,4,VACCINATION 1,2021-10-07T12:48:00,-P1D,,,,N,,
204,ABC,FACE,ABC-1002,48,VACCINATION 1-HEADACHE,,VACCINATION 1-HEADACHE-DAY 5,,OCCUR,Occurrence Indicator,HEADACHE,REACTOGENICITY,SYSTEMIC,STUDY SUBJECT,Y,,VACCINATION 1,2021-10-11T18:11:54,5,DAY 5,5,VACCINATION 1,2021-10-07T12:48:00,-P1D,,,,Y,,
205,ABC,FACE,ABC-1002,49,VACCINATION 1-HEADACHE,,VACCINATION 1-HEADACHE-DAY 5,,SEV,Severity/Intensity,HEADACHE,REACTOGENICITY,SYSTEMIC,STUDY SUBJECT,MODERATE,,VACCINATION 1,2021-10-11T18:11:54,5,DAY 5,5,VACCINATION 1,2021-10-07T12:48:00,-P1D,,,,MODERATE,,
206,ABC,FACE,ABC-1002,50,VACCINATION 1-HEADACHE,,VACCINATION 1-HEADACHE-DAY 6,,OCCUR,Occurrence Indicator,HEADACHE,REACTOGENICITY,SYSTEMIC,,,,VACCINATION 1,2021-10-12,6,DAY 6,6,VACCINATION 1,2021-10-07T12:48:00,-P1D,,NOT DONE,SUBJECT DID NOT COMPLETE ELECTRONIC DIARY,,,
207,ABC,FACE,ABC-1002,51,VACCINATION 1-HEADACHE,,VACCINATION 1-HEADACHE-DAY 7,,OCCUR,Occurrence Indicator,HEADACHE,REACTOGENICITY,SYSTEMIC,STUDY SUBJECT,N,,VACCINATION 1,2021-10-13T19:27:24,7,DAY 7,7,VACCINATION 1,2021-10-07T12:48:00,-P1D,,,,N,,
208,ABC,FACE,ABC-1002,52,VACCINATION 1-NEW OR WORSENED JOINT PAIN,,VACCINATION 1-NEW OR WORSENED JOINT PAIN-DAY 1,,OCCUR,Occurrence Indicator,NEW OR WORSENED JOINT PAIN,REACTOGENICITY,SYSTEMIC,STUDY SUBJECT,N,,VACCINATION 1,2021-10-07T19:14:10,1,DAY 1,1,VACCINATION 1,2021-10-07T12:48:00,,SINCE VACCINATION,,,N,,
209,ABC,FACE,ABC-1002,53,VACCINATION 1-NEW OR WORSENED JOINT PAIN,,VACCINATION 1-NEW OR WORSENED JOINT PAIN-DAY 2,,OCCUR,Occurrence Indicator,NEW OR WORSENED JOINT PAIN,REACTOGENICITY,SYSTEMIC,STUDY SUBJECT,N,,VACCINATION 1,2021-10-08T18:13:47,2,DAY 2,2,VACCINATION 1,2021-10-07T12:48:00,-P1D,,,,N,,
210,ABC,FACE,ABC-1002,54,VACCINATION 1-NEW OR WORSENED JOINT PAIN,,VACCINATION 1-NEW OR WORSENED JOINT PAIN-DAY 3,,OCCUR,Occurrence Indicator,NEW OR WORSENED JOINT PAIN,REACTOGENICITY,SYSTEMIC,STUDY SUBJECT,N,,VACCINATION 1,2021-10-09T18:02:12,3,DAY 3,3,VACCINATION 1,2021-10-07T12:48:00,-P1D,,,,N,,
211,ABC,FACE,ABC-1002,55,VACCINATION 1-NEW OR WORSENED JOINT PAIN,,VACCINATION 1-NEW OR WORSENED JOINT PAIN-DAY 4,,OCCUR,Occurrence Indicator,NEW OR WORSENED JOINT PAIN,REACTOGENICITY,SYSTEMIC,STUDY SUBJECT,N,,VACCINATION 1,2021-10-10T18:03:17,4,DAY 4,4,VACCINATION 1,2021-10-07T12:48:00,-P1D,,,,N,,
212,ABC,FACE,ABC-1002,56,VACCINATION 1-NEW OR WORSENED JOINT PAIN,,VACCINATION 1-NEW OR WORSENED JOINT PAIN-DAY 5,,OCCUR,Occurrence Indicator,NEW OR WORSENED JOINT PAIN,REACTOGENICITY,SYSTEMIC,STUDY SUBJECT,N,,VACCINATION 1,2021-10-11T18:11:54,5,DAY 5,5,VACCINATION 1,2021-10-07T12:48:00,-P1D,,,,N,,
213,ABC,FACE,ABC-1002,57,VACCINATION 1-NEW OR WORSENED JOINT PAIN,,VACCINATION 1-NEW OR WORSENED JOINT PAIN-DAY 6,,OCCUR,Occurrence Indicator,NEW OR WORSENED JOINT PAIN,REACTOGENICITY,SYSTEMIC,,,,VACCINATION 1,2021-10-12,6,DAY 6,6,VACCINATION 1,2021-10-07T12:48:00,-P1D,,NOT DONE,SUBJECT DID NOT COMPLETE ELECTRONIC DIARY,,,
214,ABC,FACE,ABC-1002,58,VACCINATION 1-NEW OR WORSENED JOINT PAIN,,VACCINATION 1-NEW OR WORSENED JOINT PAIN-DAY 7,,OCCUR,Occurrence Indicator,NEW OR WORSENED JOINT PAIN,REACTOGENICITY,SYSTEMIC,STUDY SUBJECT,N,,VACCINATION 1,2021-10-13T19:27:24,7,DAY 7,7,VACCINATION 1,2021-10-07T12:48:00,-P1D,,,,N,,
215,ABC,FACE,ABC-1002,59,VACCINATION 1-NEW OR WORSENED MUSCLE PAIN,,VACCINATION 1-NEW OR WORSENED MUSCLE PAIN-DAY 1,,OCCUR,Occurrence Indicator,NEW OR WORSENED MUSCLE PAIN,REACTOGENICITY,SYSTEMIC,STUDY SUBJECT,N,,VACCINATION 1,2021-10-07T19:14:10,1,DAY 1,1,VACCINATION 1,2021-10-07T12:48:00,,SINCE VACCINATION,,,N,,
216,ABC,FACE,ABC-1002,60,VACCINATION 1-NEW OR WORSENED MUSCLE PAIN,,VACCINATION 1-NEW OR WORSENED MUSCLE PAIN-DAY 2,,OCCUR,Occurrence Indicator,NEW OR WORSENED MUSCLE PAIN,REACTOGENICITY,SYSTEMIC,STUDY SUBJECT,N,,VACCINATION 1,2021-10-08T18:13:47,2,DAY 2,2,VACCINATION 1,2021-10-07T12:48:00,-P1D,,,,N,,
217,ABC,FACE,ABC-1002,61,VACCINATION 1-NEW OR WORSENED MUSCLE PAIN,,VACCINATION 1-NEW OR WORSENED MUSCLE PAIN-DAY 3,,OCCUR,Occurrence Indicator,NEW OR WORSENED MUSCLE PAIN,REACTOGENICITY,SYSTEMIC,STUDY SUBJECT,N,,VACCINATION 1,2021-10-09T18:02:12,3,DAY 3,3,VACCINATION 1,2021-10-07T12:48:00,-P1D,,,,N,,
218,ABC,FACE,ABC-1002,62,VACCINATION 1-NEW OR WORSENED MUSCLE PAIN,,VACCINATION 1-NEW OR WORSENED MUSCLE PAIN-DAY 4,,OCCUR,Occurrence Indicator,NEW OR WORSENED MUSCLE PAIN,REACTOGENICITY,SYSTEMIC,STUDY SUBJECT,N,,VACCINATION 1,2021-10-10T18:03:17,4,DAY 4,4,VACCINATION 1,2021-10-07T12:48:00,-P1D,,,,N,,
219,ABC,FACE,ABC-1002,63,VACCINATION 1-NEW OR WORSENED MUSCLE PAIN,,VACCINATION 1-NEW OR WORSENED MUSCLE PAIN-DAY 5,,OCCUR,Occurrence Indicator,NEW OR WORSENED MUSCLE PAIN,REACTOGENICITY,SYSTEMIC,STUDY SUBJECT,N,,VACCINATION 1,2021-10-11T18:11:54,5,DAY 5,5,VACCINATION 1,2021-10-07T12:48:00,-P1D,,,,N,,
220,ABC,FACE,ABC-1002,64,VACCINATION 1-NEW OR WORSENED MUSCLE PAIN,,VACCINATION 1-NEW OR WORSENED MUSCLE PAIN-DAY 6,,OCCUR,Occurrence Indicator,NEW OR WORSENED MUSCLE PAIN,REACTOGENICITY,SYSTEMIC,,,,VACCINATION 1,2021-10-12,6,DAY 6,6,VACCINATION 1,2021-10-07T12:48:00,-P1D,,NOT DONE,SUBJECT DID NOT COMPLETE ELECTRONIC DIARY,,,
221,ABC,FACE,ABC-1002,65,VACCINATION 1-NEW OR WORSENED MUSCLE PAIN,,VACCINATION 1-NEW OR WORSENED MUSCLE PAIN-DAY 7,,OCCUR,Occurrence Indicator,NEW OR WORSENED MUSCLE PAIN,REACTOGENICITY,SYSTEMIC,STUDY SUBJECT,N,,VACCINATION 1,2021-10-13T19:27:24,7,DAY 7,7,VACCINATION 1,2021-10-07T12:48:00,-P1D,,,,N,,
222,ABC,FACE,ABC-1002,66,VACCINATION 1-VOMITING,,VACCINATION 1-VOMITING-DAY 1,,OCCUR,Occurrence Indicator,VOMITING,REACTOGENICITY,SYSTEMIC,STUDY SUBJECT,N,,VACCINATION 1,2021-10-07T19:14:10,1,DAY 1,1,VACCINATION 1,2021-10-07T12:48:00,,SINCE VACCINATION,,,N,,
223,ABC,FACE,ABC-1002,67,VACCINATION 1-VOMITING,,VACCINATION 1-VOMITING-DAY 2,,OCCUR,Occurrence Indicator,VOMITING,REACTOGENICITY,SYSTEMIC,STUDY SUBJECT,N,,VACCINATION 1,2021-10-08T18:13:47,2,DAY 2,2,VACCINATION 1,2021-10-07T12:48:00,-P1D,,,,N,,
224,ABC,FACE,ABC-1002,68,VACCINATION 1-VOMITING,,VACCINATION 1-VOMITING-DAY 3,,OCCUR,Occurrence Indicator,VOMITING,REACTOGENICITY,SYSTEMIC,STUDY SUBJECT,N,,VACCINATION 1,2021-10-09T18:02:12,3,DAY 3,3,VACCINATION 1,2021-10-07T12:48:00,-P1D,,,,N,,
225,ABC,FACE,ABC-1002,69,VACCINATION 1-VOMITING,,VACCINATION 1-VOMITING-DAY 4,,OCCUR,Occurrence Indicator,VOMITING,REACTOGENICITY,SYSTEMIC,STUDY SUBJECT,N,,VACCINATION 1,2021-10-10T18:03:17,4,DAY 4,4,VACCINATION 1,2021-10-07T12:48:00,-P1D,,,,N,,
226,ABC,FACE,ABC-1002,70,VACCINATION 1-VOMITING,,VACCINATION 1-VOMITING-DAY 5,,OCCUR,Occurrence Indicator,VOMITING,REACTOGENICITY,SYSTEMIC,STUDY SUBJECT,N,,VACCINATION 1,2021-10-11T18:11:54,5,DAY 5,5,VACCINATION 1,2021-10-07T12:48:00,-P1D,,,,N,,
227,ABC,FACE,ABC-1002,71,VACCINATION 1-VOMITING,,VACCINATION 1-VOMITING-DAY 6,,OCCUR,Occurrence Indicator,VOMITING,REACTOGENICITY,SYSTEMIC,,,,VACCINATION 1,2021-10-12,6,DAY 6,6,VACCINATION 1,2021-10-07T12:48:00,-P1D,,NOT DONE,SUBJECT DID NOT COMPLETE ELECTRONIC DIARY,,,
228,ABC,FACE,ABC-1002,72,VACCINATION 1-VOMITING,,VACCINATION 1-VOMITING-DAY 7,,OCCUR,Occurrence Indicator,VOMITING,REACTOGENICITY,SYSTEMIC,STUDY SUBJECT,N,,VACCINATION 1,2021-10-13T19:27:24,7,DAY 7,7,VACCINATION 1,2021-10-07T12:48:00,-P1D,,,,N,,
229,ABC,FACE,ABC-1002,73,VACCINATION 2-CHILLS,,VACCINATION 2-CHILLS-DAY 1,,OCCUR,Occurrence Indicator,CHILLS,REACTOGENICITY,SYSTEMIC,STUDY SUBJECT,N,,VACCINATION 2,2021-12-16T18:01:47,71,DAY 1,1,VACCINATION 2,2021-12-16T12:41:00,,SINCE VACCINATION,,,N,,
230,ABC,FACE,ABC-1002,74,VACCINATION 2-CHILLS,,VACCINATION 2-CHILLS-DAY 2,,OCCUR,Occurrence Indicator,CHILLS,REACTOGENICITY,SYSTEMIC,STUDY SUBJECT,N,,VACCINATION 2,2021-12-17T18:22:25,72,DAY 2,2,VACCINATION 2,2021-12-16T12:41:00,-P1D,,,,N,,
231,ABC,FACE,ABC-1002,75,VACCINATION 2-CHILLS,,VACCINATION 2-CHILLS-DAY 3,,OCCUR,Occurrence Indicator,CHILLS,REACTOGENICITY,SYSTEMIC,STUDY SUBJECT,N,,VACCINATION 2,2021-12-18T18:34:53,73,DAY 3,3,VACCINATION 2,2021-12-16T12:41:00,-P1D,,,,N,,
232,ABC,FACE,ABC-1002,76,VACCINATION 2-CHILLS,,VACCINATION 2-CHILLS-DAY 4,,OCCUR,Occurrence Indicator,CHILLS,REACTOGENICITY,SYSTEMIC,STUDY SUBJECT,N,,VACCINATION 2,2021-12-19T18:40:14,74,DAY 4,4,VACCINATION 2,2021-12-16T12:41:00,-P1D,,,,N,,
233,ABC,FACE,ABC-1002,77,VACCINATION 2-CHILLS,,VACCINATION 2-CHILLS-DAY 5,,OCCUR,Occurrence Indicator,CHILLS,REACTOGENICITY,SYSTEMIC,STUDY SUBJECT,N,,VACCINATION 2,2021-12-20T18:33:47,75,DAY 5,5,VACCINATION 2,2021-12-16T12:41:00,-P1D,,,,N,,
234,ABC,FACE,ABC-1002,78,VACCINATION 2-CHILLS,,VACCINATION 2-CHILLS-DAY 6,,OCCUR,Occurrence Indicator,CHILLS,REACTOGENICITY,SYSTEMIC,STUDY SUBJECT,N,,VACCINATION 2,2021-12-21T18:20:15,76,DAY 6,6,VACCINATION 2,2021-12-16T12:41:00,-P1D,,,,N,,
235,ABC,FACE,ABC-1002,79,VACCINATION 2-CHILLS,,VACCINATION 2-CHILLS-DAY 7,,OCCUR,Occurrence Indicator,CHILLS,REACTOGENICITY,SYSTEMIC,STUDY SUBJECT,N,,VACCINATION 2,2021-12-22T18:23:21,77,DAY 7,7,VACCINATION 2,2021-12-16T12:41:00,-P1D,,,,N,,
236,ABC,FACE,ABC-1002,80,VACCINATION 2-DELTOID MUSCLE-LEFT-PAIN AT INJECTION SITE,LEFT,VACCINATION 2-DELTOID MUSCLE-LEFT-PAIN AT INJECTION SITE-DAY 1,DELTOID MUSCLE,OCCUR,Occurrence Indicator,PAIN AT INJECTION SITE,REACTOGENICITY,ADMINISTRATION SITE,STUDY SUBJECT,Y,,VACCINATION 2,2021-12-16T18:01:47,71,DAY 1,1,VACCINATION 2,2021-12-16T12:41:00,,SINCE VACCINATION,,,Y,,
237,ABC,FACE,ABC-1002,81,VACCINATION 2-DELTOID MUSCLE-LEFT-PAIN AT INJECTION SITE,LEFT,VACCINATION 2-DELTOID MUSCLE-LEFT-PAIN AT INJECTION SITE-DAY 1,DELTOID MUSCLE,SEV,Severity/Intensity,PAIN AT INJECTION SITE,REACTOGENICITY,ADMINISTRATION SITE,STUDY SUBJECT,MILD,,VACCINATION 2,2021-12-16T18:01:47,71,DAY 1,1,VACCINATION 2,2021-12-16T12:41:00,,SINCE VACCINATION,,,MILD,,
238,ABC,FACE,ABC-1002,82,VACCINATION 2-DELTOID MUSCLE-LEFT-PAIN AT INJECTION SITE,LEFT,VACCINATION 2-DELTOID MUSCLE-LEFT-PAIN AT INJECTION SITE-DAY 2,DELTOID MUSCLE,OCCUR,Occurrence Indicator,PAIN AT INJECTION SITE,REACTOGENICITY,ADMINISTRATION SITE,STUDY SUBJECT,N,,VACCINATION 2,2021-12-17T18:22:25,72,DAY 2,2,VACCINATION 2,2021-12-16T12:41:00,-P1D,,,,N,,
239,ABC,FACE,ABC-1002,83,VACCINATION 2-DELTOID MUSCLE-LEFT-PAIN AT INJECTION SITE,LEFT,VACCINATION 2-DELTOID MUSCLE-LEFT-PAIN AT INJECTION SITE-DAY 3,DELTOID MUSCLE,OCCUR,Occurrence Indicator,PAIN AT INJECTION SITE,REACTOGENICITY,ADMINISTRATION SITE,STUDY SUBJECT,N,,VACCINATION 2,2021-12-18T18:34:53,73,DAY 3,3,VACCINATION 2,2021-12-16T12:41:00,-P1D,,,,N,,
240,ABC,FACE,ABC-1002,84,VACCINATION 2-DELTOID MUSCLE-LEFT-PAIN AT INJECTION SITE,LEFT,VACCINATION 2-DELTOID MUSCLE-LEFT-PAIN AT INJECTION SITE-DAY 4,DELTOID MUSCLE,OCCUR,Occurrence Indicator,PAIN AT INJECTION SITE,REACTOGENICITY,ADMINISTRATION SITE,STUDY SUBJECT,Y,,VACCINATION 2,2021-12-19T18:40:14,74,DAY 4,4,VACCINATION 2,2021-12-16T12:41:00,-P1D,,,,Y,,
241,ABC,FACE,ABC-1002,85,VACCINATION 2-DELTOID MUSCLE-LEFT-PAIN AT INJECTION SITE,LEFT,VACCINATION 2-DELTOID MUSCLE-LEFT-PAIN AT INJECTION SITE-DAY 4,DELTOID MUSCLE,SEV,Severity/Intensity,PAIN AT INJECTION SITE,REACTOGENICITY,ADMINISTRATION SITE,STUDY SUBJECT,MILD,,VACCINATION 2,2021-12-19T18:40:14,74,DAY 4,4,VACCINATION 2,2021-12-16T12:41:00,-P1D,,,,MILD,,
242,ABC,FACE,ABC-1002,86,VACCINATION 2-DELTOID MUSCLE-LEFT-PAIN AT INJECTION SITE,LEFT,VACCINATION 2-DELTOID MUSCLE-LEFT-PAIN AT INJECTION SITE-DAY 5,DELTOID MUSCLE,OCCUR,Occurrence Indicator,PAIN AT INJECTION SITE,REACTOGENICITY,ADMINISTRATION SITE,STUDY SUBJECT,N,,VACCINATION 2,2021-12-20T18:33:47,75,DAY 5,5,VACCINATION 2,2021-12-16T12:41:00,-P1D,,,,N,,
243,ABC,FACE,ABC-1002,87,VACCINATION 2-DELTOID MUSCLE-LEFT-PAIN AT INJECTION SITE,LEFT,VACCINATION 2-DELTOID MUSCLE-LEFT-PAIN AT INJECTION SITE-DAY 6,DELTOID MUSCLE,OCCUR,Occurrence Indicator,PAIN AT INJECTION SITE,REACTOGENICITY,ADMINISTRATION SITE,STUDY SUBJECT,N,,VACCINATION 2,2021-12-21T18:20:15,76,DAY 6,6,VACCINATION 2,2021-12-16T12:41:00,-P1D,,,,N,,
244,ABC,FACE,ABC-1002,88,VACCINATION 2-DELTOID MUSCLE-LEFT-PAIN AT INJECTION SITE,LEFT,VACCINATION 2-DELTOID MUSCLE-LEFT-PAIN AT INJECTION SITE-DAY 7,DELTOID MUSCLE,OCCUR,Occurrence Indicator,PAIN AT INJECTION SITE,REACTOGENICITY,ADMINISTRATION SITE,STUDY SUBJECT,N,,VACCINATION 2,2021-12-22T18:23:21,77,DAY 7,7,VACCINATION 2,2021-12-16T12:41:00,-P1D,,,,N,,
245,ABC,FACE,ABC-1002,89,VACCINATION 2-DELTOID MUSCLE-LEFT-REDNESS,LEFT,VACCINATION 2-DELTOID MUSCLE-LEFT-REDNESS-DAY 1,DELTOID MUSCLE,OCCUR,Occurrence Indicator,REDNESS,REACTOGENICITY,ADMINISTRATION SITE,STUDY SUBJECT,N,,VACCINATION 2,2021-12-16T18:01:47,71,DAY 1,1,VACCINATION 2,2021-12-16T12:41:00,,SINCE VACCINATION,,,N,,
246,ABC,FACE,ABC-1002,90,VACCINATION 2-DELTOID MUSCLE-LEFT-REDNESS,LEFT,VACCINATION 2-DELTOID MUSCLE-LEFT-REDNESS-DAY 2,DELTOID MUSCLE,DIAMETER,Diameter,REDNESS,REACTOGENICITY,ADMINISTRATION SITE,STUDY SUBJECT,6,Caliper unit,VACCINATION 2,2021-12-17T18:22:25,72,DAY 2,2,VACCINATION 2,2021-12-16T12:41:00,-P1D,,,,3,3,cm
247,ABC,FACE,ABC-1002,91,VACCINATION 2-DELTOID MUSCLE-LEFT-REDNESS,LEFT,VACCINATION 2-DELTOID MUSCLE-LEFT-REDNESS-DAY 2,DELTOID MUSCLE,OCCUR,Occurrence Indicator,REDNESS,REACTOGENICITY,ADMINISTRATION SITE,STUDY SUBJECT,Y,,VACCINATION 2,2021-12-17T18:22:25,72,DAY 2,2,VACCINATION 2,2021-12-16T12:41:00,-P1D,,,,Y,,
248,ABC,FACE,ABC-1002,92,VACCINATION 2-DELTOID MUSCLE-LEFT-REDNESS,LEFT,VACCINATION 2-DELTOID MUSCLE-LEFT-REDNESS-DAY 3,DELTOID MUSCLE,DIAMETER,Diameter,REDNESS,REACTOGENICITY,ADMINISTRATION SITE,STUDY SUBJECT,5,Caliper unit,VACCINATION 2,2021-12-18T18:34:53,73,DAY 3,3,VACCINATION 2,2021-12-16T12:41:00,-P1D,,,,2.5,2.5,cm
249,ABC,FACE,ABC-1002,93,VACCINATION 2-DELTOID MUSCLE-LEFT-REDNESS,LEFT,VACCINATION 2-DELTOID MUSCLE-LEFT-REDNESS-DAY 3,DELTOID MUSCLE,OCCUR,Occurrence Indicator,REDNESS,REACTOGENICITY,ADMINISTRATION SITE,STUDY SUBJECT,Y,,VACCINATION 2,2021-12-18T18:34:53,73,DAY 3,3,VACCINATION 2,2021-12-16T12:41:00,-P1D,,,,Y,,
250,ABC,FACE,ABC-1002,94,VACCINATION 2-DELTOID MUSCLE-LEFT-REDNESS,LEFT,VACCINATION 2-DELTOID MUSCLE-LEFT-REDNESS-DAY 4,DELTOID MUSCLE,DIAMETER,Diameter,REDNESS,REACTOGENICITY,ADMINISTRATION SITE,STUDY SUBJECT,6,Caliper unit,VACCINATION 2,2021-12-19T18:40:14,74,DAY 4,4,VACCINATION 2,2021-12-16T12:41:00,-P1D,,,,3,3,cm
251,ABC,FACE,ABC-1002,95,VACCINATION 2-DELTOID MUSCLE-LEFT-REDNESS,LEFT,VACCINATION 2-DELTOID MUSCLE-LEFT-REDNESS-DAY 4,DELTOID MUSCLE,OCCUR,Occurrence Indicator,REDNESS,REACTOGENICITY,ADMINISTRATION SITE,STUDY SUBJECT,Y,,VACCINATION 2,2021-12-19T18:40:14,74,DAY 4,4,VACCINATION 2,2021-12-16T12:41:00,-P1D,,,,Y,,
252,ABC,FACE,ABC-1002,96,VACCINATION 2-DELTOID MUSCLE-LEFT-REDNESS,LEFT,VACCINATION 2-DELTOID MUSCLE-LEFT-REDNESS-DAY 5,DELTOID MUSCLE,OCCUR,Occurrence Indicator,REDNESS,REACTOGENICITY,ADMINISTRATION SITE,STUDY SUBJECT,N,,VACCINATION 2,2021-12-20T18:33:47,75,DAY 5,5,VACCINATION 2,2021-12-16T12:41:00,-P1D,,,,N,,
253,ABC,FACE,ABC-1002,97,VACCINATION 2-DELTOID MUSCLE-LEFT-REDNESS,LEFT,VACCINATION 2-DELTOID MUSCLE-LEFT-REDNESS-DAY 6,DELTOID MUSCLE,DIAMETER,Diameter,REDNESS,REACTOGENICITY,ADMINISTRATION SITE,STUDY SUBJECT,4,Caliper unit,VACCINATION 2,2021-12-21T18:20:15,76,DAY 6,6,VACCINATION 2,2021-12-16T12:41:00,-P1D,,,,2,2,cm
254,ABC,FACE,ABC-1002,98,VACCINATION 2-DELTOID MUSCLE-LEFT-REDNESS,LEFT,VACCINATION 2-DELTOID MUSCLE-LEFT-REDNESS-DAY 6,DELTOID MUSCLE,OCCUR,Occurrence Indicator,REDNESS,REACTOGENICITY,ADMINISTRATION SITE,STUDY SUBJECT,Y,,VACCINATION 2,2021-12-21T18:20:15,76,DAY 6,6,VACCINATION 2,2021-12-16T12:41:00,-P1D,,,,Y,,
255,ABC,FACE,ABC-1002,99,VACCINATION 2-DELTOID MUSCLE-LEFT-REDNESS,LEFT,VACCINATION 2-DELTOID MUSCLE-LEFT-REDNESS-DAY 7,DELTOID MUSCLE,OCCUR,Occurrence Indicator,REDNESS,REACTOGENICITY,ADMINISTRATION SITE,STUDY SUBJECT,N,,VACCINATION 2,2021-12-22T18:23:21,77,DAY 7,7,VACCINATION 2,2021-12-16T12:41:00,-P1D,,,,N,,
256,ABC,FACE,ABC-1002,100,VACCINATION 2-DELTOID MUSCLE-LEFT-SWELLING,LEFT,VACCINATION 2-DELTOID MUSCLE-LEFT-SWELLING-DAY 1,DELTOID MUSCLE,OCCUR,Occurrence Indicator,SWELLING,REACTOGENICITY,ADMINISTRATION SITE,STUDY SUBJECT,N,,VACCINATION 2,2021-12-16T18:01:47,71,DAY 1,1,VACCINATION 2,2021-12-16T12:41:00,,SINCE VACCINATION,,,N,,
257,ABC,FACE,ABC-1002,101,VACCINATION 2-DELTOID MUSCLE-LEFT-SWELLING,LEFT,VACCINATION 2-DELTOID MUSCLE-LEFT-SWELLING-DAY 2,DELTOID MUSCLE,DIAMETER,Diameter,SWELLING,REACTOGENICITY,ADMINISTRATION SITE,STUDY SUBJECT,5,Caliper unit,VACCINATION 2,2021-12-17T18:22:25,72,DAY 2,2,VACCINATION 2,2021-12-16T12:41:00,-P1D,,,,2.5,2.5,cm
258,ABC,FACE,ABC-1002,102,VACCINATION 2-DELTOID MUSCLE-LEFT-SWELLING,LEFT,VACCINATION 2-DELTOID MUSCLE-LEFT-SWELLING-DAY 2,DELTOID MUSCLE,OCCUR,Occurrence Indicator,SWELLING,REACTOGENICITY,ADMINISTRATION SITE,STUDY SUBJECT,Y,,VACCINATION 2,2021-12-17T18:22:25,72,DAY 2,2,VACCINATION 2,2021-12-16T12:41:00,-P1D,,,,Y,,
259,ABC,FACE,ABC-1002,103,VACCINATION 2-DELTOID MUSCLE-LEFT-SWELLING,LEFT,VACCINATION 2-DELTOID MUSCLE-LEFT-SWELLING-DAY 3,DELTOID MUSCLE,OCCUR,Occurrence Indicator,SWELLING,REACTOGENICITY,ADMINISTRATION SITE,STUDY SUBJECT,N,,VACCINATION 2,2021-12-18T18:34:53,73,DAY 3,3,VACCINATION 2,2021-12-16T12:41:00,-P1D,,,,N,,
260,ABC,FACE,ABC-1002,104,VACCINATION 2-DELTOID MUSCLE-LEFT-SWELLING,LEFT,VACCINATION 2-DELTOID MUSCLE-LEFT-SWELLING-DAY 4,DELTOID MUSCLE,DIAMETER,Diameter,SWELLING,REACTOGENICITY,ADMINISTRATION SITE,STUDY SUBJECT,5,Caliper unit,VACCINATION 2,2021-12-19T18:40:14,74,DAY 4,4,VACCINATION 2,2021-12-16T12:41:00,-P1D,,,,2.5,2.5,cm
261,ABC,FACE,ABC-1002,105,VACCINATION 2-DELTOID MUSCLE-LEFT-SWELLING,LEFT,VACCINATION 2-DELTOID MUSCLE-LEFT-SWELLING-DAY 4,DELTOID MUSCLE,OCCUR,Occurrence Indicator,SWELLING,REACTOGENICITY,ADMINISTRATION SITE,STUDY SUBJECT,Y,,VACCINATION 2,2021-12-19T18:40:14,74,DAY 4,4,VACCINATION 2,2021-12-16T12:41:00,-P1D,,,,Y,,
262,ABC,FACE,ABC-1002,106,VACCINATION 2-DELTOID MUSCLE-LEFT-SWELLING,LEFT,VACCINATION 2-DELTOID MUSCLE-LEFT-SWELLING-DAY 5,DELTOID MUSCLE,OCCUR,Occurrence Indicator,SWELLING,REACTOGENICITY,ADMINISTRATION SITE,STUDY SUBJECT,N,,VACCINATION 2,2021-12-20T18:33:47,75,DAY 5,5,VACCINATION 2,2021-12-16T12:41:00,-P1D,,,,N,,
263,ABC,FACE,ABC-1002,107,VACCINATION 2-DELTOID MUSCLE-LEFT-SWELLING,LEFT,VACCINATION 2-DELTOID MUSCLE-LEFT-SWELLING-DAY 6,DELTOID MUSCLE,OCCUR,Occurrence Indicator,SWELLING,REACTOGENICITY,ADMINISTRATION SITE,STUDY SUBJECT,N,,VACCINATION 2,2021-12-21T18:20:15,76,DAY 6,6,VACCINATION 2,2021-12-16T12:41:00,-P1D,,,,N,,
264,ABC,FACE,ABC-1002,108,VACCINATION 2-DELTOID MUSCLE-LEFT-SWELLING,LEFT,VACCINATION 2-DELTOID MUSCLE-LEFT-SWELLING-DAY 7,DELTOID MUSCLE,OCCUR,Occurrence Indicator,SWELLING,REACTOGENICITY,ADMINISTRATION SITE,STUDY SUBJECT,N,,VACCINATION 2,2021-12-22T18:23:21,77,DAY 7,7,VACCINATION 2,2021-12-16T12:41:00,-P1D,,,,N,,
265,ABC,FACE,ABC-1002,109,VACCINATION 2-DIARRHEA,,VACCINATION 2-DIARRHEA-DAY 1,,OCCUR,Occurrence Indicator,DIARRHEA,REACTOGENICITY,SYSTEMIC,STUDY SUBJECT,N,,VACCINATION 2,2021-12-16T18:01:47,71,DAY 1,1,VACCINATION 2,2021-12-16T12:41:00,,SINCE VACCINATION,,,N,,
266,ABC,FACE,ABC-1002,110,VACCINATION 2-DIARRHEA,,VACCINATION 2-DIARRHEA-DAY 2,,OCCUR,Occurrence Indicator,DIARRHEA,REACTOGENICITY,SYSTEMIC,STUDY SUBJECT,N,,VACCINATION 2,2021-12-17T18:22:25,72,DAY 2,2,VACCINATION 2,2021-12-16T12:41:00,-P1D,,,,N,,
267,ABC,FACE,ABC-1002,111,VACCINATION 2-DIARRHEA,,VACCINATION 2-DIARRHEA-DAY 3,,OCCUR,Occurrence Indicator,DIARRHEA,REACTOGENICITY,SYSTEMIC,STUDY SUBJECT,N,,VACCINATION 2,2021-12-18T18:34:53,73,DAY 3,3,VACCINATION 2,2021-12-16T12:41:00,-P1D,,,,N,,
268,ABC,FACE,ABC-1002,112,VACCINATION 2-DIARRHEA,,VACCINATION 2-DIARRHEA-DAY 4,,OCCUR,Occurrence Indicator,DIARRHEA,REACTOGENICITY,SYSTEMIC,STUDY SUBJECT,N,,VACCINATION 2,2021-12-19T18:40:14,74,DAY 4,4,VACCINATION 2,2021-12-16T12:41:00,-P1D,,,,N,,
269,ABC,FACE,ABC-1002,113,VACCINATION 2-DIARRHEA,,VACCINATION 2-DIARRHEA-DAY 5,,OCCUR,Occurrence Indicator,DIARRHEA,REACTOGENICITY,SYSTEMIC,STUDY SUBJECT,N,,VACCINATION 2,2021-12-20T18:33:47,75,DAY 5,5,VACCINATION 2,2021-12-16T12:41:00,-P1D,,,,N,,
270,ABC,FACE,ABC-1002,114,VACCINATION 2-DIARRHEA,,VACCINATION 2-DIARRHEA-DAY 6,,OCCUR,Occurrence Indicator,DIARRHEA,REACTOGENICITY,SYSTEMIC,STUDY SUBJECT,N,,VACCINATION 2,2021-12-21T18:20:15,76,DAY 6,6,VACCINATION 2,2021-12-16T12:41:00,-P1D,,,,N,,
271,ABC,FACE,ABC-1002,115,VACCINATION 2-DIARRHEA,,VACCINATION 2-DIARRHEA-DAY 7,,OCCUR,Occurrence Indicator,DIARRHEA,REACTOGENICITY,SYSTEMIC,STUDY SUBJECT,N,,VACCINATION 2,2021-12-22T18:23:21,77,DAY 7,7,VACCINATION 2,2021-12-16T12:41:00,-P1D,,,,N,,
272,ABC,FACE,ABC-1002,116,VACCINATION 2-FATIGUE,,VACCINATION 2-FATIGUE-DAY 1,,OCCUR,Occurrence Indicator,FATIGUE,REACTOGENICITY,SYSTEMIC,STUDY SUBJECT,N,,VACCINATION 2,2021-12-16T18:01:47,71,DAY 1,1,VACCINATION 2,2021-12-16T12:41:00,,SINCE VACCINATION,,,N,,
273,ABC,FACE,ABC-1002,117,VACCINATION 2-FATIGUE,,VACCINATION 2-FATIGUE-DAY 2,,OCCUR,Occurrence Indicator,FATIGUE,REACTOGENICITY,SYSTEMIC,STUDY SUBJECT,N,,VACCINATION 2,2021-12-17T18:22:25,72,DAY 2,2,VACCINATION 2,2021-12-16T12:41:00,-P1D,,,,N,,
274,ABC,FACE,ABC-1002,118,VACCINATION 2-FATIGUE,,VACCINATION 2-FATIGUE-DAY 3,,OCCUR,Occurrence Indicator,FATIGUE,REACTOGENICITY,SYSTEMIC,STUDY SUBJECT,N,,VACCINATION 2,2021-12-18T18:34:53,73,DAY 3,3,VACCINATION 2,2021-12-16T12:41:00,-P1D,,,,N,,
275,ABC,FACE,ABC-1002,119,VACCINATION 2-FATIGUE,,VACCINATION 2-FATIGUE-DAY 4,,OCCUR,Occurrence Indicator,FATIGUE,REACTOGENICITY,SYSTEMIC,STUDY SUBJECT,N,,VACCINATION 2,2021-12-19T18:40:14,74,DAY 4,4,VACCINATION 2,2021-12-16T12:41:00,-P1D,,,,N,,
276,ABC,FACE,ABC-1002,120,VACCINATION 2-FATIGUE,,VACCINATION 2-FATIGUE-DAY 5,,OCCUR,Occurrence Indicator,FATIGUE,REACTOGENICITY,SYSTEMIC,STUDY SUBJECT,N,,VACCINATION 2,2021-12-20T18:33:47,75,DAY 5,5,VACCINATION 2,2021-12-16T12:41:00,-P1D,,,,N,,
277,ABC,FACE,ABC-1002,121,VACCINATION 2-FATIGUE,,VACCINATION 2-FATIGUE-DAY 6,,OCCUR,Occurrence Indicator,FATIGUE,REACTOGENICITY,SYSTEMIC,STUDY SUBJECT,N,,VACCINATION 2,2021-12-21T18:20:15,76,DAY 6,6,VACCINATION 2,2021-12-16T12:41:00,-P1D,,,,N,,
278,ABC,FACE,ABC-1002,122,VACCINATION 2-FATIGUE,,VACCINATION 2-FATIGUE-DAY 7,,OCCUR,Occurrence Indicator,FATIGUE,REACTOGENICITY,SYSTEMIC,STUDY SUBJECT,N,,VACCINATION 2,2021-12-22T18:23:21,77,DAY 7,7,VACCINATION 2,2021-12-16T12:41:00,-P1D,,,,N,,
279,ABC,FACE,ABC-1002,123,VACCINATION 2-HEADACHE,,VACCINATION 2-HEADACHE-DAY 1,,OCCUR,Occurrence Indicator,HEADACHE,REACTOGENICITY,SYSTEMIC,STUDY SUBJECT,N,,VACCINATION 2,2021-12-16T18:01:47,71,DAY 1,1,VACCINATION 2,2021-12-16T12:41:00,,SINCE VACCINATION,,,N,,
280,ABC,FACE,ABC-1002,124,VACCINATION 2-HEADACHE,,VACCINATION 2-HEADACHE-DAY 2,,OCCUR,Occurrence Indicator,HEADACHE,REACTOGENICITY,SYSTEMIC,STUDY SUBJECT,N,,VACCINATION 2,2021-12-17T18:22:25,72,DAY 2,2,VACCINATION 2,2021-12-16T12:41:00,-P1D,,,,N,,
281,ABC,FACE,ABC-1002,125,VACCINATION 2-HEADACHE,,VACCINATION 2-HEADACHE-DAY 3,,OCCUR,Occurrence Indicator,HEADACHE,REACTOGENICITY,SYSTEMIC,STUDY SUBJECT,N,,VACCINATION 2,2021-12-18T18:34:53,73,DAY 3,3,VACCINATION 2,2021-12-16T12:41:00,-P1D,,,,N,,
282,ABC,FACE,ABC-1002,126,VACCINATION 2-HEADACHE,,VACCINATION 2-HEADACHE-DAY 4,,OCCUR,Occurrence Indicator,HEADACHE,REACTOGENICITY,SYSTEMIC,STUDY SUBJECT,N,,VACCINATION 2,2021-12-19T18:40:14,74,DAY 4,4,VACCINATION 2,2021-12-16T12:41:00,-P1D,,,,N,,
283,ABC,FACE,ABC-1002,127,VACCINATION 2-HEADACHE,,VACCINATION 2-HEADACHE-DAY 5,,OCCUR,Occurrence Indicator,HEADACHE,REACTOGENICITY,SYSTEMIC,STUDY SUBJECT,N,,VACCINATION 2,2021-12-20T18:33:47,75,DAY 5,5,VACCINATION 2,2021-12-16T12:41:00,-P1D,,,,N,,
284,ABC,FACE,ABC-1002,128,VACCINATION 2-HEADACHE,,VACCINATION 2-HEADACHE-DAY 6,,OCCUR,Occurrence Indicator,HEADACHE,REACTOGENICITY,SYSTEMIC,STUDY SUBJECT,Y,,VACCINATION 2,2021-12-21T18:20:15,76,DAY 6,6,VACCINATION 2,2021-12-16T12:41:00,-P1D,,,,Y,,
285,ABC,FACE,ABC-1002,129,VACCINATION 2-HEADACHE,,VACCINATION 2-HEADACHE-DAY 6,,SEV,Severity/Intensity,HEADACHE,REACTOGENICITY,SYSTEMIC,STUDY SUBJECT,MILD,,VACCINATION 2,2021-12-21T18:20:15,76,DAY 6,6,VACCINATION 2,2021-12-16T12:41:00,-P1D,,,,MILD,,
286,ABC,FACE,ABC-1002,130,VACCINATION 2-HEADACHE,,VACCINATION 2-HEADACHE-DAY 7,,OCCUR,Occurrence Indicator,HEADACHE,REACTOGENICITY,SYSTEMIC,STUDY SUBJECT,N,,VACCINATION 2,2021-12-22T18:23:21,77,DAY 7,7,VACCINATION 2,2021-12-16T12:41:00,-P1D,,,,N,,
287,ABC,FACE,ABC-1002,131,VACCINATION 2-NEW OR WORSENED JOINT PAIN,,VACCINATION 2-NEW OR WORSENED JOINT PAIN-DAY 1,,OCCUR,Occurrence Indicator,NEW OR WORSENED JOINT PAIN,REACTOGENICITY,SYSTEMIC,STUDY SUBJECT,N,,VACCINATION 2,2021-12-16T18:01:47,71,DAY 1,1,VACCINATION 2,2021-12-16T12:41:00,,SINCE VACCINATION,,,N,,
288,ABC,FACE,ABC-1002,132,VACCINATION 2-NEW OR WORSENED JOINT PAIN,,VACCINATION 2-NEW OR WORSENED JOINT PAIN-DAY 2,,OCCUR,Occurrence Indicator,NEW OR WORSENED JOINT PAIN,REACTOGENICITY,SYSTEMIC,STUDY SUBJECT,N,,VACCINATION 2,2021-12-17T18:22:25,72,DAY 2,2,VACCINATION 2,2021-12-16T12:41:00,-P1D,,,,N,,
289,ABC,FACE,ABC-1002,133,VACCINATION 2-NEW OR WORSENED JOINT PAIN,,VACCINATION 2-NEW OR WORSENED JOINT PAIN-DAY 3,,OCCUR,Occurrence Indicator,NEW OR WORSENED JOINT PAIN,REACTOGENICITY,SYSTEMIC,STUDY SUBJECT,N,,VACCINATION 2,2021-12-18T18:34:53,73,DAY 3,3,VACCINATION 2,2021-12-16T12:41:00,-P1D,,,,N,,
290,ABC,FACE,ABC-1002,134,VACCINATION 2-NEW OR WORSENED JOINT PAIN,,VACCINATION 2-NEW OR WORSENED JOINT PAIN-DAY 4,,OCCUR,Occurrence Indicator,NEW OR WORSENED JOINT PAIN,REACTOGENICITY,SYSTEMIC,STUDY SUBJECT,N,,VACCINATION 2,2021-12-19T18:40:14,74,DAY 4,4,VACCINATION 2,2021-12-16T12:41:00,-P1D,,,,N,,
291,ABC,FACE,ABC-1002,135,VACCINATION 2-NEW OR WORSENED JOINT PAIN,,VACCINATION 2-NEW OR WORSENED JOINT PAIN-DAY 5,,OCCUR,Occurrence Indicator,NEW OR WORSENED JOINT PAIN,REACTOGENICITY,SYSTEMIC,STUDY SUBJECT,N,,VACCINATION 2,2021-12-20T18:33:47,75,DAY 5,5,VACCINATION 2,2021-12-16T12:41:00,-P1D,,,,N,,
292,ABC,FACE,ABC-1002,136,VACCINATION 2-NEW OR WORSENED JOINT PAIN,,VACCINATION 2-NEW OR WORSENED JOINT PAIN-DAY 6,,OCCUR,Occurrence Indicator,NEW OR WORSENED JOINT PAIN,REACTOGENICITY,SYSTEMIC,STUDY SUBJECT,N,,VACCINATION 2,2021-12-21T18:20:15,76,DAY 6,6,VACCINATION 2,2021-12-16T12:41:00,-P1D,,,,N,,
293,ABC,FACE,ABC-1002,137,VACCINATION 2-NEW OR WORSENED JOINT PAIN,,VACCINATION 2-NEW OR WORSENED JOINT PAIN-DAY 7,,OCCUR,Occurrence Indicator,NEW OR WORSENED JOINT PAIN,REACTOGENICITY,SYSTEMIC,STUDY SUBJECT,N,,VACCINATION 2,2021-12-22T18:23:21,77,DAY 7,7,VACCINATION 2,2021-12-16T12:41:00,-P1D,,,,N,,
294,ABC,FACE,ABC-1002,138,VACCINATION 2-NEW OR WORSENED MUSCLE PAIN,,VACCINATION 2-NEW OR WORSENED MUSCLE PAIN-DAY 1,,OCCUR,Occurrence Indicator,NEW OR WORSENED MUSCLE PAIN,REACTOGENICITY,SYSTEMIC,STUDY SUBJECT,N,,VACCINATION 2,2021-12-16T18:01:47,71,DAY 1,1,VACCINATION 2,2021-12-16T12:41:00,,SINCE VACCINATION,,,N,,
295,ABC,FACE,ABC-1002,139,VACCINATION 2-NEW OR WORSENED MUSCLE PAIN,,VACCINATION 2-NEW OR WORSENED MUSCLE PAIN-DAY 2,,OCCUR,Occurrence Indicator,NEW OR WORSENED MUSCLE PAIN,REACTOGENICITY,SYSTEMIC,STUDY SUBJECT,N,,VACCINATION 2,2021-12-17T18:22:25,72,DAY 2,2,VACCINATION 2,2021-12-16T12:41:00,-P1D,,,,N,,
296,ABC,FACE,ABC-1002,140,VACCINATION 2-NEW OR WORSENED MUSCLE PAIN,,VACCINATION 2-NEW OR WORSENED MUSCLE PAIN-DAY 3,,OCCUR,Occurrence Indicator,NEW OR WORSENED MUSCLE PAIN,REACTOGENICITY,SYSTEMIC,STUDY SUBJECT,N,,VACCINATION 2,2021-12-18T18:34:53,73,DAY 3,3,VACCINATION 2,2021-12-16T12:41:00,-P1D,,,,N,,
297,ABC,FACE,ABC-1002,141,VACCINATION 2-NEW OR WORSENED MUSCLE PAIN,,VACCINATION 2-NEW OR WORSENED MUSCLE PAIN-DAY 4,,OCCUR,Occurrence Indicator,NEW OR WORSENED MUSCLE PAIN,REACTOGENICITY,SYSTEMIC,STUDY SUBJECT,N,,VACCINATION 2,2021-12-19T18:40:14,74,DAY 4,4,VACCINATION 2,2021-12-16T12:41:00,-P1D,,,,N,,
298,ABC,FACE,ABC-1002,142,VACCINATION 2-NEW OR WORSENED MUSCLE PAIN,,VACCINATION 2-NEW OR WORSENED MUSCLE PAIN-DAY 5,,OCCUR,Occurrence Indicator,NEW OR WORSENED MUSCLE PAIN,REACTOGENICITY,SYSTEMIC,STUDY SUBJECT,N,,VACCINATION 2,2021-12-20T18:33:47,75,DAY 5,5,VACCINATION 2,2021-12-16T12:41:00,-P1D,,,,N,,
299,ABC,FACE,ABC-1002,143,VACCINATION 2-NEW OR WORSENED MUSCLE PAIN,,VACCINATION 2-NEW OR WORSENED MUSCLE PAIN-DAY 6,,OCCUR,Occurrence Indicator,NEW OR WORSENED MUSCLE PAIN,REACTOGENICITY,SYSTEMIC,STUDY SUBJECT,N,,VACCINATION 2,2021-12-21T18:20:15,76,DAY 6,6,VACCINATION 2,2021-12-16T12:41:00,-P1D,,,,N,,
300,ABC,FACE,ABC-1002,144,VACCINATION 2-NEW OR WORSENED MUSCLE PAIN,,VACCINATION 2-NEW OR WORSENED MUSCLE PAIN-DAY 7,,OCCUR,Occurrence Indicator,NEW OR WORSENED MUSCLE PAIN,REACTOGENICITY,SYSTEMIC,STUDY SUBJECT,N,,VACCINATION 2,2021-12-22T18:23:21,77,DAY 7,7,VACCINATION 2,2021-12-16T12:41:00,-P1D,,,,N,,
301,ABC,FACE,ABC-1002,145,VACCINATION 2-VOMITING,,VACCINATION 2-VOMITING-DAY 1,,OCCUR,Occurrence Indicator,VOMITING,REACTOGENICITY,SYSTEMIC,STUDY SUBJECT,N,,VACCINATION 2,2021-12-16T18:01:47,71,DAY 1,1,VACCINATION 2,2021-12-16T12:41:00,,SINCE VACCINATION,,,N,,
302,ABC,FACE,ABC-1002,146,VACCINATION 2-VOMITING,,VACCINATION 2-VOMITING-DAY 2,,OCCUR,Occurrence Indicator,VOMITING,REACTOGENICITY,SYSTEMIC,STUDY SUBJECT,N,,VACCINATION 2,2021-12-17T18:22:25,72,DAY 2,2,VACCINATION 2,2021-12-16T12:41:00,-P1D,,,,N,,
303,ABC,FACE,ABC-1002,147,VACCINATION 2-VOMITING,,VACCINATION 2-VOMITING-DAY 3,,OCCUR,Occurrence Indicator,VOMITING,REACTOGENICITY,SYSTEMIC,STUDY SUBJECT,N,,VACCINATION 2,2021-12-18T18:34:53,73,DAY 3,3,VACCINATION 2,2021-12-16T12:41:00,-P1D,,,,N,,
304,ABC,FACE,ABC-1002,148,VACCINATION 2-VOMITING,,VACCINATION 2-VOMITING-DAY 4,,OCCUR,Occurrence Indicator,VOMITING,REACTOGENICITY,SYSTEMIC,STUDY SUBJECT,N,,VACCINATION 2,2021-12-19T18:40:14,74,DAY 4,4,VACCINATION 2,2021-12-16T12:41:00,-P1D,,,,N,,
305,ABC,FACE,ABC-1002,149,VACCINATION 2-VOMITING,,VACCINATION 2-VOMITING-DAY 5,,OCCUR,Occurrence Indicator,VOMITING,REACTOGENICITY,SYSTEMIC,STUDY SUBJECT,N,,VACCINATION 2,2021-12-20T18:33:47,75,DAY 5,5,VACCINATION 2,2021-12-16T12:41:00,-P1D,,,,N,,
306,ABC,FACE,ABC-1002,150,VACCINATION 2-VOMITING,,VACCINATION 2-VOMITING-DAY 6,,OCCUR,Occurrence Indicator,VOMITING,REACTOGENICITY,SYSTEMIC,STUDY SUBJECT,N,,VACCINATION 2,2021-12-21T18:20:15,76,DAY 6,6,VACCINATION 2,2021-12-16T12:41:00,-P1D,,,,N,,
307,ABC,FACE,ABC-1002,151,VACCINATION 2-VOMITING,,VACCINATION 2-VOMITING-DAY 7,,OCCUR,Occurrence Indicator,VOMITING,REACTOGENICITY,SYSTEMIC,STUDY SUBJECT,N,,VACCINATION 2,2021-12-22T18:23:21,77,DAY 7,7,VACCINATION 2,2021-12-16T12:41:00,-P1D,,,,N,,
