rownames,STUDYID,DOMAIN,USUBJID,ISSEQ,ISTESTCD,ISTEST,ISBDAGNT,ISCAT,ISORRES,ISORRESU,ISSTRESC,ISSTRESN,ISSTRESU,ISSTAT,ISREASND,ISNAM,ISSPEC,ISBLFL,ISLLOQ,VISITNUM,VISIT,VISITDY,EPOCH,ISDTC,ISDY,ISTPT,ISTPTNUM
1,CDISCPILOT01,IS,01-701-1015,1,ADA_BAB,Binding Antidrug Antibody,XANOMELINE,IMMUNOGENICITY,NEGATIVE,titer,NEGATIVE,,titer,,,Imaginary Labs,SERUM,Y,,3,BASELINE,1,TREATMENT,2014-01-01T23:30:00,-1,Pre-dose,-0.5
2,CDISCPILOT01,IS,01-701-1023,1,ADA_BAB,Binding Antidrug Antibody,XANOMELINE,IMMUNOGENICITY,1.51,titer,1.51,1.51,titer,,,Imaginary Labs,SERUM,Y,,3,BASELINE,1,TREATMENT,2012-08-04T23:30:00,-1,Pre-dose,-0.5
3,CDISCPILOT01,IS,01-701-1023,2,ADA_NAB,Neutralizing Binding Antidrug Antibody,XANOMELINE,IMMUNOGENICITY,NEGATIVE,,NEGATIVE,,,,,Imaginary Labs,SERUM,Y,,3,BASELINE,1,TREATMENT,2012-08-04T23:30:00,-1,Pre-dose,-0.5
4,CDISCPILOT01,IS,01-701-1028,1,ADA_BAB,Binding Antidrug Antibody,XANOMELINE,IMMUNOGENICITY,NEGATIVE,titer,NEGATIVE,,titer,,,Imaginary Labs,SERUM,Y,,3,BASELINE,1,TREATMENT,2013-07-18T23:30:00,-1,Pre-dose,-0.5
5,CDISCPILOT01,IS,01-701-1028,2,ADA_BAB,Binding Antidrug Antibody,XANOMELINE,IMMUNOGENICITY,NEGATIVE,titer,NEGATIVE,,titer,,,Imaginary Labs,SERUM,,,4,WEEK 2,14,TREATMENT,2013-08-01T23:30:00,14,Pre-dose,-0.5
6,CDISCPILOT01,IS,01-701-1028,3,ADA_BAB,Binding Antidrug Antibody,XANOMELINE,IMMUNOGENICITY,NEGATIVE,titer,NEGATIVE,,titer,,,Imaginary Labs,SERUM,,,12,WEEK 24,168,TREATMENT,2014-01-06T23:30:00,172,Pre-dose,-0.5
7,CDISCPILOT01,IS,01-701-1033,1,ADA_BAB,Binding Antidrug Antibody,XANOMELINE,IMMUNOGENICITY,1.41,titer,1.41,1.41,titer,,,Imaginary Labs,SERUM,Y,,3,BASELINE,1,TREATMENT,2014-03-17T23:30:00,-1,Pre-dose,-0.5
8,CDISCPILOT01,IS,01-701-1033,2,ADA_NAB,Neutralizing Binding Antidrug Antibody,XANOMELINE,IMMUNOGENICITY,NEGATIVE,,NEGATIVE,,,,,Imaginary Labs,SERUM,Y,,3,BASELINE,1,TREATMENT,2014-03-17T23:30:00,-1,Pre-dose,-0.5
9,CDISCPILOT01,IS,01-701-1034,1,ADA_BAB,Binding Antidrug Antibody,XANOMELINE,IMMUNOGENICITY,1.48,titer,1.48,1.48,titer,,,Imaginary Labs,SERUM,Y,,3,BASELINE,1,TREATMENT,2014-06-30T23:30:00,-1,Pre-dose,-0.5
10,CDISCPILOT01,IS,01-701-1034,2,ADA_BAB,Binding Antidrug Antibody,XANOMELINE,IMMUNOGENICITY,1.4,titer,1.4,1.4,titer,,,Imaginary Labs,SERUM,,,4,WEEK 2,14,TREATMENT,2014-07-15T23:30:00,15,Pre-dose,-0.5
11,CDISCPILOT01,IS,01-701-1034,3,ADA_BAB,Binding Antidrug Antibody,XANOMELINE,IMMUNOGENICITY,1.57,titer,1.57,1.57,titer,,,Imaginary Labs,SERUM,,,12,WEEK 24,168,TREATMENT,2014-12-17T23:30:00,170,Pre-dose,-0.5
12,CDISCPILOT01,IS,01-701-1034,4,ADA_NAB,Neutralizing Binding Antidrug Antibody,XANOMELINE,IMMUNOGENICITY,NEGATIVE,,NEGATIVE,,,,,Imaginary Labs,SERUM,Y,,3,BASELINE,1,TREATMENT,2014-06-30T23:30:00,-1,Pre-dose,-0.5
13,CDISCPILOT01,IS,01-701-1034,5,ADA_NAB,Neutralizing Binding Antidrug Antibody,XANOMELINE,IMMUNOGENICITY,NEGATIVE,,NEGATIVE,,,,,Imaginary Labs,SERUM,,,4,WEEK 2,14,TREATMENT,2014-07-15T23:30:00,15,Pre-dose,-0.5
14,CDISCPILOT01,IS,01-701-1034,6,ADA_NAB,Neutralizing Binding Antidrug Antibody,XANOMELINE,IMMUNOGENICITY,NEGATIVE,,NEGATIVE,,,,,Imaginary Labs,SERUM,,,12,WEEK 24,168,TREATMENT,2014-12-17T23:30:00,170,Pre-dose,-0.5
15,CDISCPILOT01,IS,01-701-1047,1,ADA_BAB,Binding Antidrug Antibody,XANOMELINE,IMMUNOGENICITY,NEGATIVE,titer,NEGATIVE,,titer,,,Imaginary Labs,SERUM,Y,,3,BASELINE,1,TREATMENT,2013-02-11T23:30:00,-1,Pre-dose,-0.5
16,CDISCPILOT01,IS,01-701-1097,1,ADA_BAB,Binding Antidrug Antibody,XANOMELINE,IMMUNOGENICITY,1.45,titer,1.45,1.45,titer,,,Imaginary Labs,SERUM,Y,,3,BASELINE,1,TREATMENT,2013-12-31T23:30:00,-1,Pre-dose,-0.5
17,CDISCPILOT01,IS,01-701-1097,2,ADA_BAB,Binding Antidrug Antibody,XANOMELINE,IMMUNOGENICITY,1.41,titer,1.41,1.41,titer,,,Imaginary Labs,SERUM,,,4,WEEK 2,14,TREATMENT,2014-01-15T23:30:00,15,Pre-dose,-0.5
18,CDISCPILOT01,IS,01-701-1097,3,ADA_BAB,Binding Antidrug Antibody,XANOMELINE,IMMUNOGENICITY,1.57,titer,1.57,1.57,titer,,,Imaginary Labs,SERUM,,,12,WEEK 24,168,TREATMENT,2014-06-18T23:30:00,169,Pre-dose,-0.5
19,CDISCPILOT01,IS,01-701-1097,4,ADA_NAB,Neutralizing Binding Antidrug Antibody,XANOMELINE,IMMUNOGENICITY,NEGATIVE,,NEGATIVE,,,,,Imaginary Labs,SERUM,Y,,3,BASELINE,1,TREATMENT,2013-12-31T23:30:00,-1,Pre-dose,-0.5
20,CDISCPILOT01,IS,01-701-1097,5,ADA_NAB,Neutralizing Binding Antidrug Antibody,XANOMELINE,IMMUNOGENICITY,NEGATIVE,,NEGATIVE,,,,,Imaginary Labs,SERUM,,,4,WEEK 2,14,TREATMENT,2014-01-15T23:30:00,15,Pre-dose,-0.5
21,CDISCPILOT01,IS,01-701-1097,6,ADA_NAB,Neutralizing Binding Antidrug Antibody,XANOMELINE,IMMUNOGENICITY,NEGATIVE,,NEGATIVE,,,,,Imaginary Labs,SERUM,,,12,WEEK 24,168,TREATMENT,2014-06-18T23:30:00,169,Pre-dose,-0.5
22,CDISCPILOT01,IS,01-701-1111,1,ADA_BAB,Binding Antidrug Antibody,XANOMELINE,IMMUNOGENICITY,NEGATIVE,titer,NEGATIVE,,titer,,,Imaginary Labs,SERUM,Y,,3,BASELINE,1,TREATMENT,2012-09-06T23:30:00,-1,Pre-dose,-0.5
23,CDISCPILOT01,IS,01-701-1115,1,ADA_BAB,Binding Antidrug Antibody,XANOMELINE,IMMUNOGENICITY,NEGATIVE,titer,NEGATIVE,,titer,,,Imaginary Labs,SERUM,Y,,3,BASELINE,1,TREATMENT,2012-11-29T23:30:00,-1,Pre-dose,-0.5
24,CDISCPILOT01,IS,01-701-1115,2,ADA_BAB,Binding Antidrug Antibody,XANOMELINE,IMMUNOGENICITY,1.54,titer,1.54,1.54,titer,,,Imaginary Labs,SERUM,,,4,WEEK 2,14,TREATMENT,2012-12-13T23:30:00,14,Pre-dose,-0.5
25,CDISCPILOT01,IS,01-701-1115,3,ADA_NAB,Neutralizing Binding Antidrug Antibody,XANOMELINE,IMMUNOGENICITY,NEGATIVE,,NEGATIVE,,,,,Imaginary Labs,SERUM,,,4,WEEK 2,14,TREATMENT,2012-12-13T23:30:00,14,Pre-dose,-0.5
26,CDISCPILOT01,IS,01-701-1118,1,ADA_BAB,Binding Antidrug Antibody,XANOMELINE,IMMUNOGENICITY,1.47,titer,1.47,1.47,titer,,,Imaginary Labs,SERUM,Y,,3,BASELINE,1,TREATMENT,2014-03-11T23:30:00,-1,Pre-dose,-0.5
27,CDISCPILOT01,IS,01-701-1118,2,ADA_NAB,Neutralizing Binding Antidrug Antibody,XANOMELINE,IMMUNOGENICITY,NEGATIVE,,NEGATIVE,,,,,Imaginary Labs,SERUM,Y,,3,BASELINE,1,TREATMENT,2014-03-11T23:30:00,-1,Pre-dose,-0.5
28,CDISCPILOT01,IS,01-701-1130,1,ADA_BAB,Binding Antidrug Antibody,XANOMELINE,IMMUNOGENICITY,NEGATIVE,titer,NEGATIVE,,titer,,,Imaginary Labs,SERUM,Y,,3,BASELINE,1,TREATMENT,2014-02-14T23:30:00,-1,Pre-dose,-0.5
29,CDISCPILOT01,IS,01-701-1133,1,ADA_BAB,Binding Antidrug Antibody,XANOMELINE,IMMUNOGENICITY,<1.40,titer,<1.40,,titer,,,Imaginary Labs,SERUM,Y,,3,BASELINE,1,TREATMENT,2012-10-27T23:30:00,-1,Pre-dose,-0.5
30,CDISCPILOT01,IS,01-701-1133,2,ADA_BAB,Binding Antidrug Antibody,XANOMELINE,IMMUNOGENICITY,1.54,titer,1.54,1.54,titer,,,Imaginary Labs,SERUM,,,4,WEEK 2,14,TREATMENT,2012-11-12T23:30:00,16,Pre-dose,-0.5
31,CDISCPILOT01,IS,01-701-1133,3,ADA_BAB,Binding Antidrug Antibody,XANOMELINE,IMMUNOGENICITY,1.52,titer,1.52,1.52,titer,,,Imaginary Labs,SERUM,,,12,WEEK 24,168,TREATMENT,2013-04-18T23:30:00,173,Pre-dose,-0.5
32,CDISCPILOT01,IS,01-701-1133,4,ADA_NAB,Neutralizing Binding Antidrug Antibody,XANOMELINE,IMMUNOGENICITY,NEGATIVE,,NEGATIVE,,,,,Imaginary Labs,SERUM,Y,,3,BASELINE,1,TREATMENT,2012-10-27T23:30:00,-1,Pre-dose,-0.5
33,CDISCPILOT01,IS,01-701-1133,5,ADA_NAB,Neutralizing Binding Antidrug Antibody,XANOMELINE,IMMUNOGENICITY,NEGATIVE,,NEGATIVE,,,,,Imaginary Labs,SERUM,,,4,WEEK 2,14,TREATMENT,2012-11-12T23:30:00,16,Pre-dose,-0.5
34,CDISCPILOT01,IS,01-701-1133,6,ADA_NAB,Neutralizing Binding Antidrug Antibody,XANOMELINE,IMMUNOGENICITY,NEGATIVE,,NEGATIVE,,,,,Imaginary Labs,SERUM,,,12,WEEK 24,168,TREATMENT,2013-04-18T23:30:00,173,Pre-dose,-0.5
35,CDISCPILOT01,IS,01-701-1146,1,ADA_BAB,Binding Antidrug Antibody,XANOMELINE,IMMUNOGENICITY,NEGATIVE,titer,NEGATIVE,,titer,,,Imaginary Labs,SERUM,Y,,3,BASELINE,1,TREATMENT,2013-05-19T23:30:00,-1,Pre-dose,-0.5
36,CDISCPILOT01,IS,01-701-1146,2,ADA_BAB,Binding Antidrug Antibody,XANOMELINE,IMMUNOGENICITY,NEGATIVE,titer,NEGATIVE,,titer,,,Imaginary Labs,SERUM,,,4,WEEK 2,14,TREATMENT,2013-06-03T23:30:00,15,Pre-dose,-0.5
37,CDISCPILOT01,IS,01-701-1148,1,ADA_BAB,Binding Antidrug Antibody,XANOMELINE,IMMUNOGENICITY,1.49,titer,1.49,1.49,titer,,,Imaginary Labs,SERUM,Y,,3,BASELINE,1,TREATMENT,2013-08-22T23:30:00,-1,Pre-dose,-0.5
38,CDISCPILOT01,IS,01-701-1148,2,ADA_BAB,Binding Antidrug Antibody,XANOMELINE,IMMUNOGENICITY,2.33,titer,2.33,2.33,titer,,,Imaginary Labs,SERUM,,,4,WEEK 2,14,TREATMENT,2013-09-05T23:30:00,14,Pre-dose,-0.5
39,CDISCPILOT01,IS,01-701-1148,3,ADA_BAB,Binding Antidrug Antibody,XANOMELINE,IMMUNOGENICITY,2.75,titer,2.75,2.75,titer,,,Imaginary Labs,SERUM,,,12,WEEK 24,168,TREATMENT,2014-02-08T23:30:00,170,Pre-dose,-0.5
40,CDISCPILOT01,IS,01-701-1148,4,ADA_NAB,Neutralizing Binding Antidrug Antibody,XANOMELINE,IMMUNOGENICITY,NEGATIVE,,NEGATIVE,,,,,Imaginary Labs,SERUM,Y,,3,BASELINE,1,TREATMENT,2013-08-22T23:30:00,-1,Pre-dose,-0.5
41,CDISCPILOT01,IS,01-701-1148,5,ADA_NAB,Neutralizing Binding Antidrug Antibody,XANOMELINE,IMMUNOGENICITY,NEGATIVE,,NEGATIVE,,,,,Imaginary Labs,SERUM,,,4,WEEK 2,14,TREATMENT,2013-09-05T23:30:00,14,Pre-dose,-0.5
42,CDISCPILOT01,IS,01-701-1148,6,ADA_NAB,Neutralizing Binding Antidrug Antibody,XANOMELINE,IMMUNOGENICITY,NEGATIVE,,NEGATIVE,,,,,Imaginary Labs,SERUM,,,12,WEEK 24,168,TREATMENT,2014-02-08T23:30:00,170,Pre-dose,-0.5
43,CDISCPILOT01,IS,01-701-1153,1,ADA_BAB,Binding Antidrug Antibody,XANOMELINE,IMMUNOGENICITY,NEGATIVE,titer,NEGATIVE,,titer,,,Imaginary Labs,SERUM,Y,,3,BASELINE,1,TREATMENT,2013-09-22T23:30:00,-1,Pre-dose,-0.5
44,CDISCPILOT01,IS,01-701-1180,1,ADA_BAB,Binding Antidrug Antibody,XANOMELINE,IMMUNOGENICITY,1.51,titer,1.51,1.51,titer,,,Imaginary Labs,SERUM,Y,,3,BASELINE,1,TREATMENT,2013-02-11T23:30:00,-1,Pre-dose,-0.5
45,CDISCPILOT01,IS,01-701-1180,2,ADA_BAB,Binding Antidrug Antibody,XANOMELINE,IMMUNOGENICITY,<1.40,titer,<1.40,,titer,,,Imaginary Labs,SERUM,,,4,WEEK 2,14,TREATMENT,2013-02-25T23:30:00,14,Pre-dose,-0.5
46,CDISCPILOT01,IS,01-701-1180,3,ADA_NAB,Neutralizing Binding Antidrug Antibody,XANOMELINE,IMMUNOGENICITY,NEGATIVE,,NEGATIVE,,,,,Imaginary Labs,SERUM,Y,,3,BASELINE,1,TREATMENT,2013-02-11T23:30:00,-1,Pre-dose,-0.5
47,CDISCPILOT01,IS,01-701-1180,4,ADA_NAB,Neutralizing Binding Antidrug Antibody,XANOMELINE,IMMUNOGENICITY,NEGATIVE,,NEGATIVE,,,,,Imaginary Labs,SERUM,,,4,WEEK 2,14,TREATMENT,2013-02-25T23:30:00,14,Pre-dose,-0.5
48,CDISCPILOT01,IS,01-701-1181,1,ADA_BAB,Binding Antidrug Antibody,XANOMELINE,IMMUNOGENICITY,NEGATIVE,titer,NEGATIVE,,titer,,,Imaginary Labs,SERUM,Y,,3,BASELINE,1,TREATMENT,2013-12-04T23:30:00,-1,Pre-dose,-0.5
49,CDISCPILOT01,IS,01-701-1188,1,ADA_BAB,Binding Antidrug Antibody,XANOMELINE,IMMUNOGENICITY,1.55,titer,1.55,1.55,titer,,,Imaginary Labs,SERUM,Y,,3,BASELINE,1,TREATMENT,2013-02-14T23:30:00,-1,Pre-dose,-0.5
50,CDISCPILOT01,IS,01-701-1188,2,ADA_BAB,Binding Antidrug Antibody,XANOMELINE,IMMUNOGENICITY,1.43,titer,1.43,1.43,titer,,,Imaginary Labs,SERUM,,,4,WEEK 2,14,TREATMENT,2013-03-02T23:30:00,16,Pre-dose,-0.5
51,CDISCPILOT01,IS,01-701-1188,3,ADA_NAB,Neutralizing Binding Antidrug Antibody,XANOMELINE,IMMUNOGENICITY,NEGATIVE,,NEGATIVE,,,,,Imaginary Labs,SERUM,Y,,3,BASELINE,1,TREATMENT,2013-02-14T23:30:00,-1,Pre-dose,-0.5
52,CDISCPILOT01,IS,01-701-1188,4,ADA_NAB,Neutralizing Binding Antidrug Antibody,XANOMELINE,IMMUNOGENICITY,NEGATIVE,,NEGATIVE,,,,,Imaginary Labs,SERUM,,,4,WEEK 2,14,TREATMENT,2013-03-02T23:30:00,16,Pre-dose,-0.5
53,CDISCPILOT01,IS,01-701-1192,1,ADA_BAB,Binding Antidrug Antibody,XANOMELINE,IMMUNOGENICITY,NEGATIVE,titer,NEGATIVE,,titer,,,Imaginary Labs,SERUM,Y,,3,BASELINE,1,TREATMENT,2012-07-21T23:30:00,-1,Pre-dose,-0.5
54,CDISCPILOT01,IS,01-701-1192,2,ADA_BAB,Binding Antidrug Antibody,XANOMELINE,IMMUNOGENICITY,NEGATIVE,titer,NEGATIVE,,titer,,,Imaginary Labs,SERUM,,,4,WEEK 2,14,TREATMENT,2012-08-07T23:30:00,17,Pre-dose,-0.5
55,CDISCPILOT01,IS,01-701-1192,3,ADA_BAB,Binding Antidrug Antibody,XANOMELINE,IMMUNOGENICITY,NEGATIVE,titer,NEGATIVE,,titer,,,Imaginary Labs,SERUM,,,12,WEEK 24,168,TREATMENT,2013-01-11T23:30:00,174,Pre-dose,-0.5
56,CDISCPILOT01,IS,01-701-1203,1,ADA_BAB,Binding Antidrug Antibody,XANOMELINE,IMMUNOGENICITY,NEGATIVE,titer,NEGATIVE,,titer,,,Imaginary Labs,SERUM,Y,,3,BASELINE,1,TREATMENT,2013-02-01T23:30:00,-1,Pre-dose,-0.5
57,CDISCPILOT01,IS,01-701-1211,1,ADA_BAB,Binding Antidrug Antibody,XANOMELINE,IMMUNOGENICITY,1.58,titer,1.58,1.58,titer,,,Imaginary Labs,SERUM,Y,,3,BASELINE,1,TREATMENT,2012-11-14T23:30:00,-1,Pre-dose,-0.5
58,CDISCPILOT01,IS,01-701-1211,2,ADA_BAB,Binding Antidrug Antibody,XANOMELINE,IMMUNOGENICITY,2.86,titer,2.86,2.86,titer,,,Imaginary Labs,SERUM,,,4,WEEK 2,14,TREATMENT,2012-11-28T23:30:00,14,Pre-dose,-0.5
59,CDISCPILOT01,IS,01-701-1211,3,ADA_NAB,Neutralizing Binding Antidrug Antibody,XANOMELINE,IMMUNOGENICITY,NEGATIVE,,NEGATIVE,,,,,Imaginary Labs,SERUM,Y,,3,BASELINE,1,TREATMENT,2012-11-14T23:30:00,-1,Pre-dose,-0.5
60,CDISCPILOT01,IS,01-701-1211,4,ADA_NAB,Neutralizing Binding Antidrug Antibody,XANOMELINE,IMMUNOGENICITY,NEGATIVE,,NEGATIVE,,,,,Imaginary Labs,SERUM,,,4,WEEK 2,14,TREATMENT,2012-11-28T23:30:00,14,Pre-dose,-0.5
61,CDISCPILOT01,IS,01-701-1234,1,ADA_BAB,Binding Antidrug Antibody,XANOMELINE,IMMUNOGENICITY,1.53,titer,1.53,1.53,titer,,,Imaginary Labs,SERUM,Y,,3,BASELINE,1,TREATMENT,2013-03-29T23:30:00,-1,Pre-dose,-0.5
62,CDISCPILOT01,IS,01-701-1234,2,ADA_NAB,Neutralizing Binding Antidrug Antibody,XANOMELINE,IMMUNOGENICITY,NEGATIVE,,NEGATIVE,,,,,Imaginary Labs,SERUM,Y,,3,BASELINE,1,TREATMENT,2013-03-29T23:30:00,-1,Pre-dose,-0.5
63,CDISCPILOT01,IS,01-701-1239,1,ADA_BAB,Binding Antidrug Antibody,XANOMELINE,IMMUNOGENICITY,1.55,titer,1.55,1.55,titer,,,Imaginary Labs,SERUM,Y,,3,BASELINE,1,TREATMENT,2014-01-10T23:30:00,-1,Pre-dose,-0.5
64,CDISCPILOT01,IS,01-701-1239,2,ADA_BAB,Binding Antidrug Antibody,XANOMELINE,IMMUNOGENICITY,1.54,titer,1.54,1.54,titer,,,Imaginary Labs,SERUM,,,4,WEEK 2,14,TREATMENT,2014-01-25T23:30:00,15,Pre-dose,-0.5
65,CDISCPILOT01,IS,01-701-1239,3,ADA_BAB,Binding Antidrug Antibody,XANOMELINE,IMMUNOGENICITY,1.5,titer,1.5,1.5,titer,,,Imaginary Labs,SERUM,,,12,WEEK 24,168,TREATMENT,2014-06-27T23:30:00,168,Pre-dose,-0.5
66,CDISCPILOT01,IS,01-701-1239,4,ADA_NAB,Neutralizing Binding Antidrug Antibody,XANOMELINE,IMMUNOGENICITY,NEGATIVE,,NEGATIVE,,,,,Imaginary Labs,SERUM,Y,,3,BASELINE,1,TREATMENT,2014-01-10T23:30:00,-1,Pre-dose,-0.5
67,CDISCPILOT01,IS,01-701-1239,5,ADA_NAB,Neutralizing Binding Antidrug Antibody,XANOMELINE,IMMUNOGENICITY,NEGATIVE,,NEGATIVE,,,,,Imaginary Labs,SERUM,,,4,WEEK 2,14,TREATMENT,2014-01-25T23:30:00,15,Pre-dose,-0.5
68,CDISCPILOT01,IS,01-701-1239,6,ADA_NAB,Neutralizing Binding Antidrug Antibody,XANOMELINE,IMMUNOGENICITY,NEGATIVE,,NEGATIVE,,,,,Imaginary Labs,SERUM,,,12,WEEK 24,168,TREATMENT,2014-06-27T23:30:00,168,Pre-dose,-0.5
69,CDISCPILOT01,IS,01-701-1275,1,ADA_BAB,Binding Antidrug Antibody,XANOMELINE,IMMUNOGENICITY,NEGATIVE,titer,NEGATIVE,,titer,,,Imaginary Labs,SERUM,Y,,3,BASELINE,1,TREATMENT,2014-02-06T23:30:00,-1,Pre-dose,-0.5
70,CDISCPILOT01,IS,01-701-1275,2,ADA_BAB,Binding Antidrug Antibody,XANOMELINE,IMMUNOGENICITY,1.55,titer,1.55,1.55,titer,,,Imaginary Labs,SERUM,,,4,WEEK 2,14,TREATMENT,2014-02-22T23:30:00,16,Pre-dose,-0.5
71,CDISCPILOT01,IS,01-701-1275,3,ADA_NAB,Neutralizing Binding Antidrug Antibody,XANOMELINE,IMMUNOGENICITY,NEGATIVE,,NEGATIVE,,,,,Imaginary Labs,SERUM,,,4,WEEK 2,14,TREATMENT,2014-02-22T23:30:00,16,Pre-dose,-0.5
72,CDISCPILOT01,IS,01-701-1287,1,ADA_BAB,Binding Antidrug Antibody,XANOMELINE,IMMUNOGENICITY,1.41,titer,1.41,1.41,titer,,,Imaginary Labs,SERUM,Y,,3,BASELINE,1,TREATMENT,2014-01-24T23:30:00,-1,Pre-dose,-0.5
73,CDISCPILOT01,IS,01-701-1287,2,ADA_BAB,Binding Antidrug Antibody,XANOMELINE,IMMUNOGENICITY,1.45,titer,1.45,1.45,titer,,,Imaginary Labs,SERUM,,,4,WEEK 2,14,TREATMENT,2014-02-11T23:30:00,18,Pre-dose,-0.5
74,CDISCPILOT01,IS,01-701-1287,3,ADA_BAB,Binding Antidrug Antibody,XANOMELINE,IMMUNOGENICITY,1.43,titer,1.43,1.43,titer,,,Imaginary Labs,SERUM,,,12,WEEK 24,168,TREATMENT,2014-07-12T23:30:00,169,Pre-dose,-0.5
75,CDISCPILOT01,IS,01-701-1287,4,ADA_NAB,Neutralizing Binding Antidrug Antibody,XANOMELINE,IMMUNOGENICITY,NEGATIVE,,NEGATIVE,,,,,Imaginary Labs,SERUM,Y,,3,BASELINE,1,TREATMENT,2014-01-24T23:30:00,-1,Pre-dose,-0.5
76,CDISCPILOT01,IS,01-701-1287,5,ADA_NAB,Neutralizing Binding Antidrug Antibody,XANOMELINE,IMMUNOGENICITY,NEGATIVE,,NEGATIVE,,,,,Imaginary Labs,SERUM,,,4,WEEK 2,14,TREATMENT,2014-02-11T23:30:00,18,Pre-dose,-0.5
77,CDISCPILOT01,IS,01-701-1287,6,ADA_NAB,Neutralizing Binding Antidrug Antibody,XANOMELINE,IMMUNOGENICITY,NEGATIVE,,NEGATIVE,,,,,Imaginary Labs,SERUM,,,12,WEEK 24,168,TREATMENT,2014-07-12T23:30:00,169,Pre-dose,-0.5
78,CDISCPILOT01,IS,01-701-1294,1,ADA_BAB,Binding Antidrug Antibody,XANOMELINE,IMMUNOGENICITY,1.56,titer,1.56,1.56,titer,,,Imaginary Labs,SERUM,Y,,3,BASELINE,1,TREATMENT,2013-03-23T23:30:00,-1,Pre-dose,-0.5
79,CDISCPILOT01,IS,01-701-1294,2,ADA_BAB,Binding Antidrug Antibody,XANOMELINE,IMMUNOGENICITY,1.57,titer,1.57,1.57,titer,,,Imaginary Labs,SERUM,,,4,WEEK 2,14,TREATMENT,2013-04-10T23:30:00,18,Pre-dose,-0.5
80,CDISCPILOT01,IS,01-701-1294,3,ADA_NAB,Neutralizing Binding Antidrug Antibody,XANOMELINE,IMMUNOGENICITY,NEGATIVE,,NEGATIVE,,,,,Imaginary Labs,SERUM,Y,,3,BASELINE,1,TREATMENT,2013-03-23T23:30:00,-1,Pre-dose,-0.5
81,CDISCPILOT01,IS,01-701-1294,4,ADA_NAB,Neutralizing Binding Antidrug Antibody,XANOMELINE,IMMUNOGENICITY,NEGATIVE,,NEGATIVE,,,,,Imaginary Labs,SERUM,,,4,WEEK 2,14,TREATMENT,2013-04-10T23:30:00,18,Pre-dose,-0.5
82,CDISCPILOT01,IS,01-701-1302,1,ADA_BAB,Binding Antidrug Antibody,XANOMELINE,IMMUNOGENICITY,<1.40,titer,<1.40,,titer,,,Imaginary Labs,SERUM,Y,,3,BASELINE,1,TREATMENT,2013-08-28T23:30:00,-1,Pre-dose,-0.5
83,CDISCPILOT01,IS,01-701-1302,2,ADA_BAB,Binding Antidrug Antibody,XANOMELINE,IMMUNOGENICITY,1.44,titer,1.44,1.44,titer,,,Imaginary Labs,SERUM,,,4,WEEK 2,14,TREATMENT,2013-09-15T23:30:00,18,Pre-dose,-0.5
84,CDISCPILOT01,IS,01-701-1302,3,ADA_NAB,Neutralizing Binding Antidrug Antibody,XANOMELINE,IMMUNOGENICITY,NEGATIVE,,NEGATIVE,,,,,Imaginary Labs,SERUM,Y,,3,BASELINE,1,TREATMENT,2013-08-28T23:30:00,-1,Pre-dose,-0.5
85,CDISCPILOT01,IS,01-701-1302,4,ADA_NAB,Neutralizing Binding Antidrug Antibody,XANOMELINE,IMMUNOGENICITY,NEGATIVE,,NEGATIVE,,,,,Imaginary Labs,SERUM,,,4,WEEK 2,14,TREATMENT,2013-09-15T23:30:00,18,Pre-dose,-0.5
86,CDISCPILOT01,IS,01-701-1317,1,ADA_BAB,Binding Antidrug Antibody,XANOMELINE,IMMUNOGENICITY,1.6,titer,1.6,1.6,titer,,,Imaginary Labs,SERUM,Y,,3,BASELINE,1,TREATMENT,2014-05-21T23:30:00,-1,Pre-dose,-0.5
87,CDISCPILOT01,IS,01-701-1317,2,ADA_BAB,Binding Antidrug Antibody,XANOMELINE,IMMUNOGENICITY,<1.40,titer,<1.40,,titer,,,Imaginary Labs,SERUM,,,4,WEEK 2,14,TREATMENT,2014-06-05T23:30:00,15,Pre-dose,-0.5
88,CDISCPILOT01,IS,01-701-1317,3,ADA_BAB,Binding Antidrug Antibody,XANOMELINE,IMMUNOGENICITY,1.46,titer,1.46,1.46,titer,,,Imaginary Labs,SERUM,,,12,WEEK 24,168,TREATMENT,2014-11-06T23:30:00,169,Pre-dose,-0.5
89,CDISCPILOT01,IS,01-701-1317,4,ADA_NAB,Neutralizing Binding Antidrug Antibody,XANOMELINE,IMMUNOGENICITY,NEGATIVE,,NEGATIVE,,,,,Imaginary Labs,SERUM,Y,,3,BASELINE,1,TREATMENT,2014-05-21T23:30:00,-1,Pre-dose,-0.5
90,CDISCPILOT01,IS,01-701-1317,5,ADA_NAB,Neutralizing Binding Antidrug Antibody,XANOMELINE,IMMUNOGENICITY,NEGATIVE,,NEGATIVE,,,,,Imaginary Labs,SERUM,,,4,WEEK 2,14,TREATMENT,2014-06-05T23:30:00,15,Pre-dose,-0.5
91,CDISCPILOT01,IS,01-701-1317,6,ADA_NAB,Neutralizing Binding Antidrug Antibody,XANOMELINE,IMMUNOGENICITY,NEGATIVE,,NEGATIVE,,,,,Imaginary Labs,SERUM,,,12,WEEK 24,168,TREATMENT,2014-11-06T23:30:00,169,Pre-dose,-0.5
92,CDISCPILOT01,IS,01-701-1324,1,ADA_BAB,Binding Antidrug Antibody,XANOMELINE,IMMUNOGENICITY,1.4,titer,1.4,1.4,titer,,,Imaginary Labs,SERUM,Y,,3,BASELINE,1,TREATMENT,2012-10-01T23:30:00,-1,Pre-dose,-0.5
93,CDISCPILOT01,IS,01-701-1324,2,ADA_BAB,Binding Antidrug Antibody,XANOMELINE,IMMUNOGENICITY,1.53,titer,1.53,1.53,titer,,,Imaginary Labs,SERUM,,,4,WEEK 2,14,TREATMENT,2012-10-16T23:30:00,15,Pre-dose,-0.5
94,CDISCPILOT01,IS,01-701-1324,3,ADA_BAB,Binding Antidrug Antibody,XANOMELINE,IMMUNOGENICITY,1.44,titer,1.44,1.44,titer,,,Imaginary Labs,SERUM,,,12,WEEK 24,168,TREATMENT,2013-03-19T23:30:00,169,Pre-dose,-0.5
95,CDISCPILOT01,IS,01-701-1324,4,ADA_NAB,Neutralizing Binding Antidrug Antibody,XANOMELINE,IMMUNOGENICITY,NEGATIVE,,NEGATIVE,,,,,Imaginary Labs,SERUM,Y,,3,BASELINE,1,TREATMENT,2012-10-01T23:30:00,-1,Pre-dose,-0.5
96,CDISCPILOT01,IS,01-701-1324,5,ADA_NAB,Neutralizing Binding Antidrug Antibody,XANOMELINE,IMMUNOGENICITY,NEGATIVE,,NEGATIVE,,,,,Imaginary Labs,SERUM,,,4,WEEK 2,14,TREATMENT,2012-10-16T23:30:00,15,Pre-dose,-0.5
97,CDISCPILOT01,IS,01-701-1324,6,ADA_NAB,Neutralizing Binding Antidrug Antibody,XANOMELINE,IMMUNOGENICITY,NEGATIVE,,NEGATIVE,,,,,Imaginary Labs,SERUM,,,12,WEEK 24,168,TREATMENT,2013-03-19T23:30:00,169,Pre-dose,-0.5
98,CDISCPILOT01,IS,01-701-1341,1,ADA_BAB,Binding Antidrug Antibody,XANOMELINE,IMMUNOGENICITY,NEGATIVE,titer,NEGATIVE,,titer,,,Imaginary Labs,SERUM,Y,,3,BASELINE,1,TREATMENT,2013-01-04T23:30:00,-1,Pre-dose,-0.5
99,CDISCPILOT01,IS,01-701-1341,2,ADA_BAB,Binding Antidrug Antibody,XANOMELINE,IMMUNOGENICITY,<1.40,titer,<1.40,,titer,,,Imaginary Labs,SERUM,,,4,WEEK 2,14,TREATMENT,2013-01-18T23:30:00,14,Pre-dose,-0.5
100,CDISCPILOT01,IS,01-701-1341,3,ADA_NAB,Neutralizing Binding Antidrug Antibody,XANOMELINE,IMMUNOGENICITY,NEGATIVE,,NEGATIVE,,,,,Imaginary Labs,SERUM,,,4,WEEK 2,14,TREATMENT,2013-01-18T23:30:00,14,Pre-dose,-0.5
101,CDISCPILOT01,IS,01-701-1345,1,ADA_BAB,Binding Antidrug Antibody,XANOMELINE,IMMUNOGENICITY,NEGATIVE,titer,NEGATIVE,,titer,,,Imaginary Labs,SERUM,Y,,3,BASELINE,1,TREATMENT,2013-10-07T23:30:00,-1,Pre-dose,-0.5
102,CDISCPILOT01,IS,01-701-1360,1,ADA_BAB,Binding Antidrug Antibody,XANOMELINE,IMMUNOGENICITY,NEGATIVE,titer,NEGATIVE,,titer,,,Imaginary Labs,SERUM,Y,,3,BASELINE,1,TREATMENT,2013-07-30T23:30:00,-1,Pre-dose,-0.5
103,CDISCPILOT01,IS,01-701-1363,1,ADA_BAB,Binding Antidrug Antibody,XANOMELINE,IMMUNOGENICITY,1.48,titer,1.48,1.48,titer,,,Imaginary Labs,SERUM,Y,,3,BASELINE,1,TREATMENT,2013-05-29T23:30:00,-1,Pre-dose,-0.5
104,CDISCPILOT01,IS,01-701-1363,2,ADA_NAB,Neutralizing Binding Antidrug Antibody,XANOMELINE,IMMUNOGENICITY,NEGATIVE,,NEGATIVE,,,,,Imaginary Labs,SERUM,Y,,3,BASELINE,1,TREATMENT,2013-05-29T23:30:00,-1,Pre-dose,-0.5
105,CDISCPILOT01,IS,01-701-1383,1,ADA_BAB,Binding Antidrug Antibody,XANOMELINE,IMMUNOGENICITY,1.45,titer,1.45,1.45,titer,,,Imaginary Labs,SERUM,Y,,3,BASELINE,1,TREATMENT,2013-02-03T23:30:00,-1,Pre-dose,-0.5
106,CDISCPILOT01,IS,01-701-1383,2,ADA_BAB,Binding Antidrug Antibody,XANOMELINE,IMMUNOGENICITY,1.58,titer,1.58,1.58,titer,,,Imaginary Labs,SERUM,,,4,WEEK 2,14,TREATMENT,2013-02-19T23:30:00,16,Pre-dose,-0.5
107,CDISCPILOT01,IS,01-701-1383,3,ADA_BAB,Binding Antidrug Antibody,XANOMELINE,IMMUNOGENICITY,1.57,titer,1.57,1.57,titer,,,Imaginary Labs,SERUM,,,12,WEEK 24,168,TREATMENT,2013-07-30T23:30:00,177,Pre-dose,-0.5
108,CDISCPILOT01,IS,01-701-1383,4,ADA_NAB,Neutralizing Binding Antidrug Antibody,XANOMELINE,IMMUNOGENICITY,POSITIVE,,POSITIVE,,,,,Imaginary Labs,SERUM,Y,,3,BASELINE,1,TREATMENT,2013-02-03T23:30:00,-1,Pre-dose,-0.5
109,CDISCPILOT01,IS,01-701-1383,5,ADA_NAB,Neutralizing Binding Antidrug Antibody,XANOMELINE,IMMUNOGENICITY,POSITIVE,,POSITIVE,,,,,Imaginary Labs,SERUM,,,4,WEEK 2,14,TREATMENT,2013-02-19T23:30:00,16,Pre-dose,-0.5
110,CDISCPILOT01,IS,01-701-1383,6,ADA_NAB,Neutralizing Binding Antidrug Antibody,XANOMELINE,IMMUNOGENICITY,POSITIVE,,POSITIVE,,,,,Imaginary Labs,SERUM,,,12,WEEK 24,168,TREATMENT,2013-07-30T23:30:00,177,Pre-dose,-0.5
111,CDISCPILOT01,IS,01-701-1387,1,ADA_BAB,Binding Antidrug Antibody,XANOMELINE,IMMUNOGENICITY,1.52,titer,1.52,1.52,titer,,,Imaginary Labs,SERUM,Y,,3,BASELINE,1,TREATMENT,2014-03-11T23:30:00,-1,Pre-dose,-0.5
112,CDISCPILOT01,IS,01-701-1387,2,ADA_NAB,Neutralizing Binding Antidrug Antibody,XANOMELINE,IMMUNOGENICITY,NEGATIVE,,NEGATIVE,,,,,Imaginary Labs,SERUM,Y,,3,BASELINE,1,TREATMENT,2014-03-11T23:30:00,-1,Pre-dose,-0.5
113,CDISCPILOT01,IS,01-701-1392,1,ADA_BAB,Binding Antidrug Antibody,XANOMELINE,IMMUNOGENICITY,1.44,titer,1.44,1.44,titer,,,Imaginary Labs,SERUM,Y,,3,BASELINE,1,TREATMENT,2012-10-27T23:30:00,-1,Pre-dose,-0.5
114,CDISCPILOT01,IS,01-701-1392,2,ADA_NAB,Neutralizing Binding Antidrug Antibody,XANOMELINE,IMMUNOGENICITY,NEGATIVE,,NEGATIVE,,,,,Imaginary Labs,SERUM,Y,,3,BASELINE,1,TREATMENT,2012-10-27T23:30:00,-1,Pre-dose,-0.5
115,CDISCPILOT01,IS,01-701-1415,1,ADA_BAB,Binding Antidrug Antibody,XANOMELINE,IMMUNOGENICITY,1.48,titer,1.48,1.48,titer,,,Imaginary Labs,SERUM,Y,,3,BASELINE,1,TREATMENT,2013-09-22T23:30:00,-1,Pre-dose,-0.5
116,CDISCPILOT01,IS,01-701-1415,2,ADA_NAB,Neutralizing Binding Antidrug Antibody,XANOMELINE,IMMUNOGENICITY,NEGATIVE,,NEGATIVE,,,,,Imaginary Labs,SERUM,Y,,3,BASELINE,1,TREATMENT,2013-09-22T23:30:00,-1,Pre-dose,-0.5
117,CDISCPILOT01,IS,01-701-1429,1,ADA_BAB,Binding Antidrug Antibody,XANOMELINE,IMMUNOGENICITY,1.55,titer,1.55,1.55,titer,,,Imaginary Labs,SERUM,Y,,3,BASELINE,1,TREATMENT,2013-03-18T23:30:00,-1,Pre-dose,-0.5
118,CDISCPILOT01,IS,01-701-1429,2,ADA_BAB,Binding Antidrug Antibody,XANOMELINE,IMMUNOGENICITY,1.46,titer,1.46,1.46,titer,,,Imaginary Labs,SERUM,,,4,WEEK 2,14,TREATMENT,2013-04-02T23:30:00,15,Pre-dose,-0.5
119,CDISCPILOT01,IS,01-701-1429,3,ADA_NAB,Neutralizing Binding Antidrug Antibody,XANOMELINE,IMMUNOGENICITY,NEGATIVE,,NEGATIVE,,,,,Imaginary Labs,SERUM,Y,,3,BASELINE,1,TREATMENT,2013-03-18T23:30:00,-1,Pre-dose,-0.5
120,CDISCPILOT01,IS,01-701-1429,4,ADA_NAB,Neutralizing Binding Antidrug Antibody,XANOMELINE,IMMUNOGENICITY,NEGATIVE,,NEGATIVE,,,,,Imaginary Labs,SERUM,,,4,WEEK 2,14,TREATMENT,2013-04-02T23:30:00,15,Pre-dose,-0.5
121,CDISCPILOT01,IS,01-701-1440,1,ADA_BAB,Binding Antidrug Antibody,XANOMELINE,IMMUNOGENICITY,NEGATIVE,titer,NEGATIVE,,titer,,,Imaginary Labs,SERUM,Y,,3,BASELINE,1,TREATMENT,2013-08-07T23:30:00,-1,Pre-dose,-0.5
122,CDISCPILOT01,IS,01-701-1442,1,ADA_BAB,Binding Antidrug Antibody,XANOMELINE,IMMUNOGENICITY,NEGATIVE,titer,NEGATIVE,,titer,,,Imaginary Labs,SERUM,Y,,3,BASELINE,1,TREATMENT,2013-10-25T23:30:00,-1,Pre-dose,-0.5
123,CDISCPILOT01,IS,01-701-1442,2,ADA_BAB,Binding Antidrug Antibody,XANOMELINE,IMMUNOGENICITY,1.49,titer,1.49,1.49,titer,,,Imaginary Labs,SERUM,,,4,WEEK 2,14,TREATMENT,2013-11-09T23:30:00,15,Pre-dose,-0.5
124,CDISCPILOT01,IS,01-701-1442,3,ADA_BAB,Binding Antidrug Antibody,XANOMELINE,IMMUNOGENICITY,NEGATIVE,titer,NEGATIVE,,titer,,,Imaginary Labs,SERUM,,,12,WEEK 24,168,TREATMENT,2014-04-17T23:30:00,174,Pre-dose,-0.5
125,CDISCPILOT01,IS,01-701-1442,4,ADA_NAB,Neutralizing Binding Antidrug Antibody,XANOMELINE,IMMUNOGENICITY,NEGATIVE,,NEGATIVE,,,,,Imaginary Labs,SERUM,,,4,WEEK 2,14,TREATMENT,2013-11-09T23:30:00,15,Pre-dose,-0.5
126,CDISCPILOT01,IS,01-701-1444,1,ADA_BAB,Binding Antidrug Antibody,XANOMELINE,IMMUNOGENICITY,NEGATIVE,titer,NEGATIVE,,titer,,,Imaginary Labs,SERUM,Y,,3,BASELINE,1,TREATMENT,2013-01-04T23:30:00,-1,Pre-dose,-0.5
127,CDISCPILOT01,IS,01-701-1444,2,ADA_BAB,Binding Antidrug Antibody,XANOMELINE,IMMUNOGENICITY,NEGATIVE,titer,NEGATIVE,,titer,,,Imaginary Labs,SERUM,,,4,WEEK 2,14,TREATMENT,2013-01-18T23:30:00,14,Pre-dose,-0.5
128,CDISCPILOT01,IS,01-702-1082,1,ADA_BAB,Binding Antidrug Antibody,XANOMELINE,IMMUNOGENICITY,1.46,titer,1.46,1.46,titer,,,Imaginary Labs,SERUM,Y,,3,BASELINE,1,TREATMENT,2013-07-25T23:30:00,-1,Pre-dose,-0.5
129,CDISCPILOT01,IS,01-702-1082,2,ADA_BAB,Binding Antidrug Antibody,XANOMELINE,IMMUNOGENICITY,1.48,titer,1.48,1.48,titer,,,Imaginary Labs,SERUM,,,4,WEEK 2,14,TREATMENT,2013-08-08T23:30:00,14,Pre-dose,-0.5
130,CDISCPILOT01,IS,01-702-1082,3,ADA_NAB,Neutralizing Binding Antidrug Antibody,XANOMELINE,IMMUNOGENICITY,NEGATIVE,,NEGATIVE,,,,,Imaginary Labs,SERUM,Y,,3,BASELINE,1,TREATMENT,2013-07-25T23:30:00,-1,Pre-dose,-0.5
131,CDISCPILOT01,IS,01-702-1082,4,ADA_NAB,Neutralizing Binding Antidrug Antibody,XANOMELINE,IMMUNOGENICITY,NEGATIVE,,NEGATIVE,,,,,Imaginary Labs,SERUM,,,4,WEEK 2,14,TREATMENT,2013-08-08T23:30:00,14,Pre-dose,-0.5
132,CDISCPILOT01,IS,01-703-1042,1,ADA_BAB,Binding Antidrug Antibody,XANOMELINE,IMMUNOGENICITY,1.44,titer,1.44,1.44,titer,,,Imaginary Labs,SERUM,Y,,3,BASELINE,1,TREATMENT,2013-03-01T23:30:00,-1,Pre-dose,-0.5
133,CDISCPILOT01,IS,01-703-1042,2,ADA_NAB,Neutralizing Binding Antidrug Antibody,XANOMELINE,IMMUNOGENICITY,NEGATIVE,,NEGATIVE,,,,,Imaginary Labs,SERUM,Y,,3,BASELINE,1,TREATMENT,2013-03-01T23:30:00,-1,Pre-dose,-0.5
134,CDISCPILOT01,IS,01-703-1076,1,ADA_BAB,Binding Antidrug Antibody,XANOMELINE,IMMUNOGENICITY,NEGATIVE,titer,NEGATIVE,,titer,,,Imaginary Labs,SERUM,Y,,3,BASELINE,1,TREATMENT,2013-10-24T23:30:00,-1,Pre-dose,-0.5
135,CDISCPILOT01,IS,01-703-1076,2,ADA_BAB,Binding Antidrug Antibody,XANOMELINE,IMMUNOGENICITY,1.57,titer,1.57,1.57,titer,,,Imaginary Labs,SERUM,,,4,WEEK 2,14,TREATMENT,2013-11-06T23:30:00,13,Pre-dose,-0.5
136,CDISCPILOT01,IS,01-703-1076,3,ADA_NAB,Neutralizing Binding Antidrug Antibody,XANOMELINE,IMMUNOGENICITY,NEGATIVE,,NEGATIVE,,,,,Imaginary Labs,SERUM,,,4,WEEK 2,14,TREATMENT,2013-11-06T23:30:00,13,Pre-dose,-0.5
137,CDISCPILOT01,IS,01-703-1086,1,ADA_BAB,Binding Antidrug Antibody,XANOMELINE,IMMUNOGENICITY,NEGATIVE,titer,NEGATIVE,,titer,,,Imaginary Labs,SERUM,Y,,3,BASELINE,1,TREATMENT,2012-09-01T23:30:00,-1,Pre-dose,-0.5
138,CDISCPILOT01,IS,01-703-1086,2,ADA_BAB,Binding Antidrug Antibody,XANOMELINE,IMMUNOGENICITY,1.54,titer,1.54,1.54,titer,,,Imaginary Labs,SERUM,,,4,WEEK 2,14,TREATMENT,2012-09-16T23:30:00,15,Pre-dose,-0.5
139,CDISCPILOT01,IS,01-703-1086,3,ADA_NAB,Neutralizing Binding Antidrug Antibody,XANOMELINE,IMMUNOGENICITY,NEGATIVE,,NEGATIVE,,,,,Imaginary Labs,SERUM,,,4,WEEK 2,14,TREATMENT,2012-09-16T23:30:00,15,Pre-dose,-0.5
140,CDISCPILOT01,IS,01-703-1096,1,ADA_BAB,Binding Antidrug Antibody,XANOMELINE,IMMUNOGENICITY,NEGATIVE,titer,NEGATIVE,,titer,,,Imaginary Labs,SERUM,Y,,3,BASELINE,1,TREATMENT,2013-01-24T23:30:00,-1,Pre-dose,-0.5
141,CDISCPILOT01,IS,01-703-1100,1,ADA_BAB,Binding Antidrug Antibody,XANOMELINE,IMMUNOGENICITY,1.52,titer,1.52,1.52,titer,,,Imaginary Labs,SERUM,Y,,3,BASELINE,1,TREATMENT,2013-03-12T23:30:00,-1,Pre-dose,-0.5
142,CDISCPILOT01,IS,01-703-1100,2,ADA_NAB,Neutralizing Binding Antidrug Antibody,XANOMELINE,IMMUNOGENICITY,NEGATIVE,,NEGATIVE,,,,,Imaginary Labs,SERUM,Y,,3,BASELINE,1,TREATMENT,2013-03-12T23:30:00,-1,Pre-dose,-0.5
143,CDISCPILOT01,IS,01-703-1119,1,ADA_BAB,Binding Antidrug Antibody,XANOMELINE,IMMUNOGENICITY,NEGATIVE,titer,NEGATIVE,,titer,,,Imaginary Labs,SERUM,Y,,3,BASELINE,1,TREATMENT,2013-02-19T23:30:00,-1,Pre-dose,-0.5
144,CDISCPILOT01,IS,01-703-1119,2,ADA_BAB,Binding Antidrug Antibody,XANOMELINE,IMMUNOGENICITY,NEGATIVE,titer,NEGATIVE,,titer,,,Imaginary Labs,SERUM,,,4,WEEK 2,14,TREATMENT,2013-03-10T23:30:00,19,Pre-dose,-0.5
145,CDISCPILOT01,IS,01-703-1175,1,ADA_BAB,Binding Antidrug Antibody,XANOMELINE,IMMUNOGENICITY,NEGATIVE,titer,NEGATIVE,,titer,,,Imaginary Labs,SERUM,Y,,3,BASELINE,1,TREATMENT,2013-12-19T23:30:00,-1,Pre-dose,-0.5
146,CDISCPILOT01,IS,01-703-1182,1,ADA_BAB,Binding Antidrug Antibody,XANOMELINE,IMMUNOGENICITY,NEGATIVE,titer,NEGATIVE,,titer,,,Imaginary Labs,SERUM,Y,,3,BASELINE,1,TREATMENT,2013-10-16T23:30:00,-1,Pre-dose,-0.5
147,CDISCPILOT01,IS,01-703-1182,2,ADA_BAB,Binding Antidrug Antibody,XANOMELINE,IMMUNOGENICITY,NEGATIVE,titer,NEGATIVE,,titer,,,Imaginary Labs,SERUM,,,4,WEEK 2,14,TREATMENT,2013-10-31T23:30:00,15,Pre-dose,-0.5
148,CDISCPILOT01,IS,01-703-1197,1,ADA_BAB,Binding Antidrug Antibody,XANOMELINE,IMMUNOGENICITY,1.55,titer,1.55,1.55,titer,,,Imaginary Labs,SERUM,Y,,3,BASELINE,1,TREATMENT,2013-06-15T23:30:00,-1,Pre-dose,-0.5
149,CDISCPILOT01,IS,01-703-1197,2,ADA_NAB,Neutralizing Binding Antidrug Antibody,XANOMELINE,IMMUNOGENICITY,NEGATIVE,,NEGATIVE,,,,,Imaginary Labs,SERUM,Y,,3,BASELINE,1,TREATMENT,2013-06-15T23:30:00,-1,Pre-dose,-0.5
150,CDISCPILOT01,IS,01-703-1210,1,ADA_BAB,Binding Antidrug Antibody,XANOMELINE,IMMUNOGENICITY,<1.40,titer,<1.40,,titer,,,Imaginary Labs,SERUM,Y,,3,BASELINE,1,TREATMENT,2013-03-15T23:30:00,-1,Pre-dose,-0.5
151,CDISCPILOT01,IS,01-703-1210,2,ADA_NAB,Neutralizing Binding Antidrug Antibody,XANOMELINE,IMMUNOGENICITY,NEGATIVE,,NEGATIVE,,,,,Imaginary Labs,SERUM,Y,,3,BASELINE,1,TREATMENT,2013-03-15T23:30:00,-1,Pre-dose,-0.5
152,CDISCPILOT01,IS,01-703-1258,1,ADA_BAB,Binding Antidrug Antibody,XANOMELINE,IMMUNOGENICITY,NEGATIVE,titer,NEGATIVE,,titer,,,Imaginary Labs,SERUM,Y,,3,BASELINE,1,TREATMENT,2012-07-19T23:30:00,-1,Pre-dose,-0.5
153,CDISCPILOT01,IS,01-703-1258,2,ADA_BAB,Binding Antidrug Antibody,XANOMELINE,IMMUNOGENICITY,NEGATIVE,titer,NEGATIVE,,titer,,,Imaginary Labs,SERUM,,,4,WEEK 2,14,TREATMENT,2012-08-01T23:30:00,13,Pre-dose,-0.5
154,CDISCPILOT01,IS,01-703-1258,3,ADA_BAB,Binding Antidrug Antibody,XANOMELINE,IMMUNOGENICITY,NEGATIVE,titer,NEGATIVE,,titer,,,Imaginary Labs,SERUM,,,12,WEEK 24,168,TREATMENT,2012-12-31T23:30:00,165,Pre-dose,-0.5
155,CDISCPILOT01,IS,01-703-1279,1,ADA_BAB,Binding Antidrug Antibody,XANOMELINE,IMMUNOGENICITY,1.48,titer,1.48,1.48,titer,,,Imaginary Labs,SERUM,Y,,3,BASELINE,1,TREATMENT,2013-05-12T23:30:00,-1,Pre-dose,-0.5
156,CDISCPILOT01,IS,01-703-1279,2,ADA_NAB,Neutralizing Binding Antidrug Antibody,XANOMELINE,IMMUNOGENICITY,NEGATIVE,,NEGATIVE,,,,,Imaginary Labs,SERUM,Y,,3,BASELINE,1,TREATMENT,2013-05-12T23:30:00,-1,Pre-dose,-0.5
157,CDISCPILOT01,IS,01-703-1295,1,ADA_BAB,Binding Antidrug Antibody,XANOMELINE,IMMUNOGENICITY,NEGATIVE,titer,NEGATIVE,,titer,,,Imaginary Labs,SERUM,Y,,3,BASELINE,1,TREATMENT,2013-11-20T23:30:00,-1,Pre-dose,-0.5
158,CDISCPILOT01,IS,01-703-1295,2,ADA_BAB,Binding Antidrug Antibody,XANOMELINE,IMMUNOGENICITY,NEGATIVE,titer,NEGATIVE,,titer,,,Imaginary Labs,SERUM,,,4,WEEK 2,14,TREATMENT,2013-12-05T23:30:00,15,Pre-dose,-0.5
159,CDISCPILOT01,IS,01-703-1299,1,ADA_BAB,Binding Antidrug Antibody,XANOMELINE,IMMUNOGENICITY,1.49,titer,1.49,1.49,titer,,,Imaginary Labs,SERUM,Y,,3,BASELINE,1,TREATMENT,2012-09-11T23:30:00,-1,Pre-dose,-0.5
160,CDISCPILOT01,IS,01-703-1299,2,ADA_NAB,Neutralizing Binding Antidrug Antibody,XANOMELINE,IMMUNOGENICITY,NEGATIVE,,NEGATIVE,,,,,Imaginary Labs,SERUM,Y,,3,BASELINE,1,TREATMENT,2012-09-11T23:30:00,-1,Pre-dose,-0.5
161,CDISCPILOT01,IS,01-703-1335,1,ADA_BAB,Binding Antidrug Antibody,XANOMELINE,IMMUNOGENICITY,NEGATIVE,titer,NEGATIVE,,titer,,,Imaginary Labs,SERUM,Y,,3,BASELINE,1,TREATMENT,2014-03-16T23:30:00,-1,Pre-dose,-0.5
162,CDISCPILOT01,IS,01-703-1335,2,ADA_BAB,Binding Antidrug Antibody,XANOMELINE,IMMUNOGENICITY,NEGATIVE,titer,NEGATIVE,,titer,,,Imaginary Labs,SERUM,,,4,WEEK 2,14,TREATMENT,2014-03-31T23:30:00,15,Pre-dose,-0.5
163,CDISCPILOT01,IS,01-703-1379,1,ADA_BAB,Binding Antidrug Antibody,XANOMELINE,IMMUNOGENICITY,1.49,titer,1.49,1.49,titer,,,Imaginary Labs,SERUM,Y,,3,BASELINE,1,TREATMENT,2013-09-21T23:30:00,-1,Pre-dose,-0.5
164,CDISCPILOT01,IS,01-703-1379,2,ADA_BAB,Binding Antidrug Antibody,XANOMELINE,IMMUNOGENICITY,1.51,titer,1.51,1.51,titer,,,Imaginary Labs,SERUM,,,4,WEEK 2,14,TREATMENT,2013-10-07T23:30:00,16,Pre-dose,-0.5
165,CDISCPILOT01,IS,01-703-1379,3,ADA_BAB,Binding Antidrug Antibody,XANOMELINE,IMMUNOGENICITY,1.58,titer,1.58,1.58,titer,,,Imaginary Labs,SERUM,,,12,WEEK 24,168,TREATMENT,2014-03-08T23:30:00,168,Pre-dose,-0.5
166,CDISCPILOT01,IS,01-703-1379,4,ADA_NAB,Neutralizing Binding Antidrug Antibody,XANOMELINE,IMMUNOGENICITY,NEGATIVE,,NEGATIVE,,,,,Imaginary Labs,SERUM,Y,,3,BASELINE,1,TREATMENT,2013-09-21T23:30:00,-1,Pre-dose,-0.5
167,CDISCPILOT01,IS,01-703-1379,5,ADA_NAB,Neutralizing Binding Antidrug Antibody,XANOMELINE,IMMUNOGENICITY,NEGATIVE,,NEGATIVE,,,,,Imaginary Labs,SERUM,,,4,WEEK 2,14,TREATMENT,2013-10-07T23:30:00,16,Pre-dose,-0.5
168,CDISCPILOT01,IS,01-703-1379,6,ADA_NAB,Neutralizing Binding Antidrug Antibody,XANOMELINE,IMMUNOGENICITY,NEGATIVE,,NEGATIVE,,,,,Imaginary Labs,SERUM,,,12,WEEK 24,168,TREATMENT,2014-03-08T23:30:00,168,Pre-dose,-0.5
169,CDISCPILOT01,IS,01-703-1403,1,ADA_BAB,Binding Antidrug Antibody,XANOMELINE,IMMUNOGENICITY,NEGATIVE,titer,NEGATIVE,,titer,,,Imaginary Labs,SERUM,Y,,3,BASELINE,1,TREATMENT,2012-12-11T23:30:00,-1,Pre-dose,-0.5
170,CDISCPILOT01,IS,01-703-1439,1,ADA_BAB,Binding Antidrug Antibody,XANOMELINE,IMMUNOGENICITY,1.53,titer,1.53,1.53,titer,,,Imaginary Labs,SERUM,Y,,3,BASELINE,1,TREATMENT,2014-03-11T23:30:00,-1,Pre-dose,-0.5
171,CDISCPILOT01,IS,01-703-1439,2,ADA_BAB,Binding Antidrug Antibody,XANOMELINE,IMMUNOGENICITY,2.33,titer,2.33,2.33,titer,,,Imaginary Labs,SERUM,,,4,WEEK 2,14,TREATMENT,2014-03-26T23:30:00,15,Pre-dose,-0.5
172,CDISCPILOT01,IS,01-703-1439,3,ADA_BAB,Binding Antidrug Antibody,XANOMELINE,IMMUNOGENICITY,2.05,titer,2.05,2.05,titer,,,Imaginary Labs,SERUM,,,12,WEEK 24,168,TREATMENT,2014-08-28T23:30:00,170,Pre-dose,-0.5
173,CDISCPILOT01,IS,01-703-1439,4,ADA_NAB,Neutralizing Binding Antidrug Antibody,XANOMELINE,IMMUNOGENICITY,POSITIVE,,POSITIVE,,,,,Imaginary Labs,SERUM,Y,,3,BASELINE,1,TREATMENT,2014-03-11T23:30:00,-1,Pre-dose,-0.5
174,CDISCPILOT01,IS,01-703-1439,5,ADA_NAB,Neutralizing Binding Antidrug Antibody,XANOMELINE,IMMUNOGENICITY,POSITIVE,,POSITIVE,,,,,Imaginary Labs,SERUM,,,4,WEEK 2,14,TREATMENT,2014-03-26T23:30:00,15,Pre-dose,-0.5
175,CDISCPILOT01,IS,01-703-1439,6,ADA_NAB,Neutralizing Binding Antidrug Antibody,XANOMELINE,IMMUNOGENICITY,POSITIVE,,POSITIVE,,,,,Imaginary Labs,SERUM,,,12,WEEK 24,168,TREATMENT,2014-08-28T23:30:00,170,Pre-dose,-0.5
176,CDISCPILOT01,IS,01-704-1008,1,ADA_BAB,Binding Antidrug Antibody,XANOMELINE,IMMUNOGENICITY,1.57,titer,1.57,1.57,titer,,,Imaginary Labs,SERUM,Y,,3,BASELINE,1,TREATMENT,2013-01-12T23:30:00,-1,Pre-dose,-0.5
177,CDISCPILOT01,IS,01-704-1008,2,ADA_BAB,Binding Antidrug Antibody,XANOMELINE,IMMUNOGENICITY,2.99,titer,2.99,2.99,titer,,,Imaginary Labs,SERUM,,,4,WEEK 2,14,TREATMENT,2013-01-28T23:30:00,16,Pre-dose,-0.5
178,CDISCPILOT01,IS,01-704-1008,3,ADA_NAB,Neutralizing Binding Antidrug Antibody,XANOMELINE,IMMUNOGENICITY,NEGATIVE,,NEGATIVE,,,,,Imaginary Labs,SERUM,Y,,3,BASELINE,1,TREATMENT,2013-01-12T23:30:00,-1,Pre-dose,-0.5
179,CDISCPILOT01,IS,01-704-1008,4,ADA_NAB,Neutralizing Binding Antidrug Antibody,XANOMELINE,IMMUNOGENICITY,NEGATIVE,,NEGATIVE,,,,,Imaginary Labs,SERUM,,,4,WEEK 2,14,TREATMENT,2013-01-28T23:30:00,16,Pre-dose,-0.5
180,CDISCPILOT01,IS,01-704-1009,1,ADA_BAB,Binding Antidrug Antibody,XANOMELINE,IMMUNOGENICITY,1.43,titer,1.43,1.43,titer,,,Imaginary Labs,SERUM,Y,,3,BASELINE,1,TREATMENT,2013-08-26T23:30:00,-1,Pre-dose,-0.5
181,CDISCPILOT01,IS,01-704-1009,2,ADA_BAB,Binding Antidrug Antibody,XANOMELINE,IMMUNOGENICITY,1.47,titer,1.47,1.47,titer,,,Imaginary Labs,SERUM,,,4,WEEK 2,14,TREATMENT,2013-09-14T23:30:00,19,Pre-dose,-0.5
182,CDISCPILOT01,IS,01-704-1009,3,ADA_NAB,Neutralizing Binding Antidrug Antibody,XANOMELINE,IMMUNOGENICITY,NEGATIVE,,NEGATIVE,,,,,Imaginary Labs,SERUM,Y,,3,BASELINE,1,TREATMENT,2013-08-26T23:30:00,-1,Pre-dose,-0.5
183,CDISCPILOT01,IS,01-704-1009,4,ADA_NAB,Neutralizing Binding Antidrug Antibody,XANOMELINE,IMMUNOGENICITY,NEGATIVE,,NEGATIVE,,,,,Imaginary Labs,SERUM,,,4,WEEK 2,14,TREATMENT,2013-09-14T23:30:00,19,Pre-dose,-0.5
184,CDISCPILOT01,IS,01-704-1010,1,ADA_BAB,Binding Antidrug Antibody,XANOMELINE,IMMUNOGENICITY,1.51,titer,1.51,1.51,titer,,,Imaginary Labs,SERUM,Y,,3,BASELINE,1,TREATMENT,2014-02-20T23:30:00,-1,Pre-dose,-0.5
185,CDISCPILOT01,IS,01-704-1010,2,ADA_NAB,Neutralizing Binding Antidrug Antibody,XANOMELINE,IMMUNOGENICITY,NEGATIVE,,NEGATIVE,,,,,Imaginary Labs,SERUM,Y,,3,BASELINE,1,TREATMENT,2014-02-20T23:30:00,-1,Pre-dose,-0.5
186,CDISCPILOT01,IS,01-704-1017,1,ADA_BAB,Binding Antidrug Antibody,XANOMELINE,IMMUNOGENICITY,1.47,titer,1.47,1.47,titer,,,Imaginary Labs,SERUM,Y,,3,BASELINE,1,TREATMENT,2013-10-05T23:30:00,-1,Pre-dose,-0.5
187,CDISCPILOT01,IS,01-704-1017,2,ADA_BAB,Binding Antidrug Antibody,XANOMELINE,IMMUNOGENICITY,2.68,titer,2.68,2.68,titer,,,Imaginary Labs,SERUM,,,4,WEEK 2,14,TREATMENT,2013-10-19T23:30:00,14,Pre-dose,-0.5
188,CDISCPILOT01,IS,01-704-1017,3,ADA_NAB,Neutralizing Binding Antidrug Antibody,XANOMELINE,IMMUNOGENICITY,POSITIVE,,POSITIVE,,,,,Imaginary Labs,SERUM,Y,,3,BASELINE,1,TREATMENT,2013-10-05T23:30:00,-1,Pre-dose,-0.5
189,CDISCPILOT01,IS,01-704-1017,4,ADA_NAB,Neutralizing Binding Antidrug Antibody,XANOMELINE,IMMUNOGENICITY,POSITIVE,,POSITIVE,,,,,Imaginary Labs,SERUM,,,4,WEEK 2,14,TREATMENT,2013-10-19T23:30:00,14,Pre-dose,-0.5
190,CDISCPILOT01,IS,01-704-1025,1,ADA_BAB,Binding Antidrug Antibody,XANOMELINE,IMMUNOGENICITY,1.51,titer,1.51,1.51,titer,,,Imaginary Labs,SERUM,Y,,3,BASELINE,1,TREATMENT,2013-09-26T23:30:00,-1,Pre-dose,-0.5
191,CDISCPILOT01,IS,01-704-1025,2,ADA_BAB,Binding Antidrug Antibody,XANOMELINE,IMMUNOGENICITY,1.51,titer,1.51,1.51,titer,,,Imaginary Labs,SERUM,,,4,WEEK 2,14,TREATMENT,2013-10-11T23:30:00,15,Pre-dose,-0.5
192,CDISCPILOT01,IS,01-704-1025,3,ADA_NAB,Neutralizing Binding Antidrug Antibody,XANOMELINE,IMMUNOGENICITY,NEGATIVE,,NEGATIVE,,,,,Imaginary Labs,SERUM,Y,,3,BASELINE,1,TREATMENT,2013-09-26T23:30:00,-1,Pre-dose,-0.5
193,CDISCPILOT01,IS,01-704-1025,4,ADA_NAB,Neutralizing Binding Antidrug Antibody,XANOMELINE,IMMUNOGENICITY,NEGATIVE,,NEGATIVE,,,,,Imaginary Labs,SERUM,,,4,WEEK 2,14,TREATMENT,2013-10-11T23:30:00,15,Pre-dose,-0.5
194,CDISCPILOT01,IS,01-704-1065,1,ADA_BAB,Binding Antidrug Antibody,XANOMELINE,IMMUNOGENICITY,NEGATIVE,titer,NEGATIVE,,titer,,,Imaginary Labs,SERUM,Y,,3,BASELINE,1,TREATMENT,2013-10-23T23:30:00,-1,Pre-dose,-0.5
195,CDISCPILOT01,IS,01-704-1065,2,ADA_BAB,Binding Antidrug Antibody,XANOMELINE,IMMUNOGENICITY,1.56,titer,1.56,1.56,titer,,,Imaginary Labs,SERUM,,,4,WEEK 2,14,TREATMENT,2013-11-07T23:30:00,15,Pre-dose,-0.5
196,CDISCPILOT01,IS,01-704-1065,3,ADA_NAB,Neutralizing Binding Antidrug Antibody,XANOMELINE,IMMUNOGENICITY,NEGATIVE,,NEGATIVE,,,,,Imaginary Labs,SERUM,,,4,WEEK 2,14,TREATMENT,2013-11-07T23:30:00,15,Pre-dose,-0.5
197,CDISCPILOT01,IS,01-704-1074,1,ADA_BAB,Binding Antidrug Antibody,XANOMELINE,IMMUNOGENICITY,1.43,titer,1.43,1.43,titer,,,Imaginary Labs,SERUM,Y,,3,BASELINE,1,TREATMENT,2014-01-21T23:30:00,-1,Pre-dose,-0.5
198,CDISCPILOT01,IS,01-704-1074,2,ADA_BAB,Binding Antidrug Antibody,XANOMELINE,IMMUNOGENICITY,2.5,titer,2.5,2.5,titer,,,Imaginary Labs,SERUM,,,4,WEEK 2,14,TREATMENT,2014-02-09T23:30:00,19,Pre-dose,-0.5
199,CDISCPILOT01,IS,01-704-1074,3,ADA_NAB,Neutralizing Binding Antidrug Antibody,XANOMELINE,IMMUNOGENICITY,NEGATIVE,,NEGATIVE,,,,,Imaginary Labs,SERUM,Y,,3,BASELINE,1,TREATMENT,2014-01-21T23:30:00,-1,Pre-dose,-0.5
200,CDISCPILOT01,IS,01-704-1074,4,ADA_NAB,Neutralizing Binding Antidrug Antibody,XANOMELINE,IMMUNOGENICITY,NEGATIVE,,NEGATIVE,,,,,Imaginary Labs,SERUM,,,4,WEEK 2,14,TREATMENT,2014-02-09T23:30:00,19,Pre-dose,-0.5
201,CDISCPILOT01,IS,01-704-1093,1,ADA_BAB,Binding Antidrug Antibody,XANOMELINE,IMMUNOGENICITY,2.15,titer,2.15,2.15,titer,,,Imaginary Labs,SERUM,,,4,WEEK 2,14,TREATMENT,2013-03-30T23:30:00,16,Pre-dose,-0.5
202,CDISCPILOT01,IS,01-704-1093,2,ADA_NAB,Neutralizing Binding Antidrug Antibody,XANOMELINE,IMMUNOGENICITY,NEGATIVE,,NEGATIVE,,,,,Imaginary Labs,SERUM,,,4,WEEK 2,14,TREATMENT,2013-03-30T23:30:00,16,Pre-dose,-0.5
203,CDISCPILOT01,IS,01-704-1114,1,ADA_BAB,Binding Antidrug Antibody,XANOMELINE,IMMUNOGENICITY,NEGATIVE,titer,NEGATIVE,,titer,,,Imaginary Labs,SERUM,Y,,3,BASELINE,1,TREATMENT,2013-01-22T23:30:00,-1,Pre-dose,-0.5
204,CDISCPILOT01,IS,01-704-1114,2,ADA_BAB,Binding Antidrug Antibody,XANOMELINE,IMMUNOGENICITY,POSITIVE CONFIRMATION,titer,POSITIVE CONFIRMATION,,titer,,,Imaginary Labs,SERUM,,,4,WEEK 2,14,TREATMENT,2013-02-03T23:30:00,12,Pre-dose,-0.5
205,CDISCPILOT01,IS,01-704-1114,3,ADA_NAB,Neutralizing Binding Antidrug Antibody,XANOMELINE,IMMUNOGENICITY,NEGATIVE,,NEGATIVE,,,,,Imaginary Labs,SERUM,,,4,WEEK 2,14,TREATMENT,2013-02-03T23:30:00,12,Pre-dose,-0.5
206,CDISCPILOT01,IS,01-704-1120,1,ADA_BAB,Binding Antidrug Antibody,XANOMELINE,IMMUNOGENICITY,NEGATIVE,titer,NEGATIVE,,titer,,,Imaginary Labs,SERUM,,,4,WEEK 2,14,TREATMENT,2013-12-15T23:30:00,14,Pre-dose,-0.5
207,CDISCPILOT01,IS,01-704-1127,1,ADA_BAB,Binding Antidrug Antibody,XANOMELINE,IMMUNOGENICITY,NEGATIVE,titer,NEGATIVE,,titer,,,Imaginary Labs,SERUM,Y,,3,BASELINE,1,TREATMENT,2013-10-01T23:30:00,-1,Pre-dose,-0.5
208,CDISCPILOT01,IS,01-704-1135,1,ADA_BAB,Binding Antidrug Antibody,XANOMELINE,IMMUNOGENICITY,NEGATIVE,titer,NEGATIVE,,titer,,,Imaginary Labs,SERUM,Y,,3,BASELINE,1,TREATMENT,2013-10-30T23:30:00,-1,Pre-dose,-0.5
209,CDISCPILOT01,IS,01-704-1135,2,ADA_BAB,Binding Antidrug Antibody,XANOMELINE,IMMUNOGENICITY,NEGATIVE,titer,NEGATIVE,,titer,,,Imaginary Labs,SERUM,,,4,WEEK 2,14,TREATMENT,2013-11-14T23:30:00,15,Pre-dose,-0.5
210,CDISCPILOT01,IS,01-704-1135,3,ADA_BAB,Binding Antidrug Antibody,XANOMELINE,IMMUNOGENICITY,NEGATIVE,titer,NEGATIVE,,titer,,,Imaginary Labs,SERUM,,,12,WEEK 24,168,TREATMENT,2014-05-01T23:30:00,183,Pre-dose,-0.5
211,CDISCPILOT01,IS,01-704-1164,1,ADA_BAB,Binding Antidrug Antibody,XANOMELINE,IMMUNOGENICITY,NEGATIVE,titer,NEGATIVE,,titer,,,Imaginary Labs,SERUM,Y,,3,BASELINE,1,TREATMENT,2012-09-18T23:30:00,-1,Pre-dose,-0.5
212,CDISCPILOT01,IS,01-704-1218,1,ADA_BAB,Binding Antidrug Antibody,XANOMELINE,IMMUNOGENICITY,NEGATIVE,titer,NEGATIVE,,titer,,,Imaginary Labs,SERUM,Y,,3,BASELINE,1,TREATMENT,2012-11-18T23:30:00,-1,Pre-dose,-0.5
213,CDISCPILOT01,IS,01-704-1218,2,ADA_BAB,Binding Antidrug Antibody,XANOMELINE,IMMUNOGENICITY,1.48,titer,1.48,1.48,titer,,,Imaginary Labs,SERUM,,,4,WEEK 2,14,TREATMENT,2012-12-03T23:30:00,15,Pre-dose,-0.5
214,CDISCPILOT01,IS,01-704-1218,3,ADA_BAB,Binding Antidrug Antibody,XANOMELINE,IMMUNOGENICITY,1.52,titer,1.52,1.52,titer,,,Imaginary Labs,SERUM,,,12,WEEK 24,168,TREATMENT,2013-05-13T23:30:00,176,Pre-dose,-0.5
215,CDISCPILOT01,IS,01-704-1218,4,ADA_NAB,Neutralizing Binding Antidrug Antibody,XANOMELINE,IMMUNOGENICITY,NEGATIVE,,NEGATIVE,,,,,Imaginary Labs,SERUM,,,4,WEEK 2,14,TREATMENT,2012-12-03T23:30:00,15,Pre-dose,-0.5
216,CDISCPILOT01,IS,01-704-1218,5,ADA_NAB,Neutralizing Binding Antidrug Antibody,XANOMELINE,IMMUNOGENICITY,NEGATIVE,,NEGATIVE,,,,,Imaginary Labs,SERUM,,,12,WEEK 24,168,TREATMENT,2013-05-13T23:30:00,176,Pre-dose,-0.5
217,CDISCPILOT01,IS,01-704-1233,1,ADA_BAB,Binding Antidrug Antibody,XANOMELINE,IMMUNOGENICITY,1.57,titer,1.57,1.57,titer,,,Imaginary Labs,SERUM,Y,,3,BASELINE,1,TREATMENT,2013-03-20T23:30:00,-1,Pre-dose,-0.5
218,CDISCPILOT01,IS,01-704-1233,2,ADA_NAB,Neutralizing Binding Antidrug Antibody,XANOMELINE,IMMUNOGENICITY,NEGATIVE,,NEGATIVE,,,,,Imaginary Labs,SERUM,Y,,3,BASELINE,1,TREATMENT,2013-03-20T23:30:00,-1,Pre-dose,-0.5
219,CDISCPILOT01,IS,01-704-1241,1,ADA_BAB,Binding Antidrug Antibody,XANOMELINE,IMMUNOGENICITY,NEGATIVE,titer,NEGATIVE,,titer,,,Imaginary Labs,SERUM,Y,,3,BASELINE,1,TREATMENT,2013-08-24T23:30:00,-1,Pre-dose,-0.5
220,CDISCPILOT01,IS,01-704-1241,2,ADA_BAB,Binding Antidrug Antibody,XANOMELINE,IMMUNOGENICITY,NEGATIVE,titer,NEGATIVE,,titer,,,Imaginary Labs,SERUM,,,4,WEEK 2,14,TREATMENT,2013-09-05T23:30:00,12,Pre-dose,-0.5
221,CDISCPILOT01,IS,01-704-1260,1,ADA_BAB,Binding Antidrug Antibody,XANOMELINE,IMMUNOGENICITY,1.52,titer,1.52,1.52,titer,,,Imaginary Labs,SERUM,Y,,3,BASELINE,1,TREATMENT,2012-08-29T23:30:00,-1,Pre-dose,-0.5
222,CDISCPILOT01,IS,01-704-1260,2,ADA_NAB,Neutralizing Binding Antidrug Antibody,XANOMELINE,IMMUNOGENICITY,NEGATIVE,,NEGATIVE,,,,,Imaginary Labs,SERUM,Y,,3,BASELINE,1,TREATMENT,2012-08-29T23:30:00,-1,Pre-dose,-0.5
223,CDISCPILOT01,IS,01-704-1266,1,ADA_BAB,Binding Antidrug Antibody,XANOMELINE,IMMUNOGENICITY,NEGATIVE,titer,NEGATIVE,,titer,,,Imaginary Labs,SERUM,Y,,3,BASELINE,1,TREATMENT,2013-10-12T23:30:00,-1,Pre-dose,-0.5
224,CDISCPILOT01,IS,01-704-1266,2,ADA_BAB,Binding Antidrug Antibody,XANOMELINE,IMMUNOGENICITY,1.55,titer,1.55,1.55,titer,,,Imaginary Labs,SERUM,,,4,WEEK 2,14,TREATMENT,2013-10-27T23:30:00,15,Pre-dose,-0.5
225,CDISCPILOT01,IS,01-704-1266,3,ADA_NAB,Neutralizing Binding Antidrug Antibody,XANOMELINE,IMMUNOGENICITY,NEGATIVE,,NEGATIVE,,,,,Imaginary Labs,SERUM,,,4,WEEK 2,14,TREATMENT,2013-10-27T23:30:00,15,Pre-dose,-0.5
226,CDISCPILOT01,IS,01-704-1323,1,ADA_BAB,Binding Antidrug Antibody,XANOMELINE,IMMUNOGENICITY,NEGATIVE,titer,NEGATIVE,,titer,,,Imaginary Labs,SERUM,Y,,3,BASELINE,1,TREATMENT,2013-07-07T23:30:00,-1,Pre-dose,-0.5
227,CDISCPILOT01,IS,01-704-1323,2,ADA_BAB,Binding Antidrug Antibody,XANOMELINE,IMMUNOGENICITY,NEGATIVE,titer,NEGATIVE,,titer,,,Imaginary Labs,SERUM,,,4,WEEK 2,14,TREATMENT,2013-07-23T23:30:00,16,Pre-dose,-0.5
228,CDISCPILOT01,IS,01-704-1325,1,ADA_BAB,Binding Antidrug Antibody,XANOMELINE,IMMUNOGENICITY,NEGATIVE,titer,NEGATIVE,,titer,,,Imaginary Labs,SERUM,Y,,3,BASELINE,1,TREATMENT,2014-04-22T23:30:00,-1,Pre-dose,-0.5
229,CDISCPILOT01,IS,01-704-1325,2,ADA_BAB,Binding Antidrug Antibody,XANOMELINE,IMMUNOGENICITY,NEGATIVE,titer,NEGATIVE,,titer,,,Imaginary Labs,SERUM,,,4,WEEK 2,14,TREATMENT,2014-05-07T23:30:00,15,Pre-dose,-0.5
230,CDISCPILOT01,IS,01-704-1332,1,ADA_BAB,Binding Antidrug Antibody,XANOMELINE,IMMUNOGENICITY,NEGATIVE,titer,NEGATIVE,,titer,,,Imaginary Labs,SERUM,Y,,3,BASELINE,1,TREATMENT,2013-12-08T23:30:00,-1,Pre-dose,-0.5
231,CDISCPILOT01,IS,01-704-1332,2,ADA_BAB,Binding Antidrug Antibody,XANOMELINE,IMMUNOGENICITY,NEGATIVE,titer,NEGATIVE,,titer,,,Imaginary Labs,SERUM,,,4,WEEK 2,14,TREATMENT,2013-12-23T23:30:00,15,Pre-dose,-0.5
232,CDISCPILOT01,IS,01-704-1351,1,ADA_BAB,Binding Antidrug Antibody,XANOMELINE,IMMUNOGENICITY,<1.40,titer,<1.40,,titer,,,Imaginary Labs,SERUM,Y,,3,BASELINE,1,TREATMENT,2013-10-11T23:30:00,-1,Pre-dose,-0.5
233,CDISCPILOT01,IS,01-704-1351,2,ADA_NAB,Neutralizing Binding Antidrug Antibody,XANOMELINE,IMMUNOGENICITY,NEGATIVE,,NEGATIVE,,,,,Imaginary Labs,SERUM,Y,,3,BASELINE,1,TREATMENT,2013-10-11T23:30:00,-1,Pre-dose,-0.5
234,CDISCPILOT01,IS,01-704-1388,1,ADA_BAB,Binding Antidrug Antibody,XANOMELINE,IMMUNOGENICITY,1.47,titer,1.47,1.47,titer,,,Imaginary Labs,SERUM,Y,,3,BASELINE,1,TREATMENT,2012-12-06T23:30:00,-1,Pre-dose,-0.5
235,CDISCPILOT01,IS,01-704-1388,2,ADA_NAB,Neutralizing Binding Antidrug Antibody,XANOMELINE,IMMUNOGENICITY,NEGATIVE,,NEGATIVE,,,,,Imaginary Labs,SERUM,Y,,3,BASELINE,1,TREATMENT,2012-12-06T23:30:00,-1,Pre-dose,-0.5
236,CDISCPILOT01,IS,01-704-1435,1,ADA_BAB,Binding Antidrug Antibody,XANOMELINE,IMMUNOGENICITY,NEGATIVE,titer,NEGATIVE,,titer,,,Imaginary Labs,SERUM,Y,,3,BASELINE,1,TREATMENT,2012-11-16T23:30:00,-1,Pre-dose,-0.5
237,CDISCPILOT01,IS,01-704-1445,1,ADA_BAB,Binding Antidrug Antibody,XANOMELINE,IMMUNOGENICITY,NEGATIVE,titer,NEGATIVE,,titer,,,Imaginary Labs,SERUM,Y,,3,BASELINE,1,TREATMENT,2014-05-10T23:30:00,-1,Pre-dose,-0.5
238,CDISCPILOT01,IS,01-705-1018,1,ADA_BAB,Binding Antidrug Antibody,XANOMELINE,IMMUNOGENICITY,NEGATIVE,titer,NEGATIVE,,titer,,,Imaginary Labs,SERUM,Y,,3,BASELINE,1,TREATMENT,2013-07-04T23:30:00,-1,Pre-dose,-0.5
239,CDISCPILOT01,IS,01-705-1031,1,ADA_BAB,Binding Antidrug Antibody,XANOMELINE,IMMUNOGENICITY,NEGATIVE,titer,NEGATIVE,,titer,,,Imaginary Labs,SERUM,Y,,3,BASELINE,1,TREATMENT,2013-11-26T23:30:00,-1,Pre-dose,-0.5
240,CDISCPILOT01,IS,01-705-1031,2,ADA_BAB,Binding Antidrug Antibody,XANOMELINE,IMMUNOGENICITY,NEGATIVE,titer,NEGATIVE,,titer,,,Imaginary Labs,SERUM,,,4,WEEK 2,14,TREATMENT,2013-12-18T23:30:00,22,Pre-dose,-0.5
241,CDISCPILOT01,IS,01-705-1059,1,ADA_BAB,Binding Antidrug Antibody,XANOMELINE,IMMUNOGENICITY,1.48,titer,1.48,1.48,titer,,,Imaginary Labs,SERUM,Y,,3,BASELINE,1,TREATMENT,2013-08-04T23:30:00,-1,Pre-dose,-0.5
242,CDISCPILOT01,IS,01-705-1059,2,ADA_NAB,Neutralizing Binding Antidrug Antibody,XANOMELINE,IMMUNOGENICITY,POSITIVE,,POSITIVE,,,,,Imaginary Labs,SERUM,Y,,3,BASELINE,1,TREATMENT,2013-08-04T23:30:00,-1,Pre-dose,-0.5
243,CDISCPILOT01,IS,01-705-1186,1,ADA_BAB,Binding Antidrug Antibody,XANOMELINE,IMMUNOGENICITY,1.57,titer,1.57,1.57,titer,,,Imaginary Labs,SERUM,Y,,3,BASELINE,1,TREATMENT,2014-01-07T23:30:00,-1,Pre-dose,-0.5
244,CDISCPILOT01,IS,01-705-1186,2,ADA_NAB,Neutralizing Binding Antidrug Antibody,XANOMELINE,IMMUNOGENICITY,NEGATIVE,,NEGATIVE,,,,,Imaginary Labs,SERUM,Y,,3,BASELINE,1,TREATMENT,2014-01-07T23:30:00,-1,Pre-dose,-0.5
245,CDISCPILOT01,IS,01-705-1199,1,ADA_BAB,Binding Antidrug Antibody,XANOMELINE,IMMUNOGENICITY,NEGATIVE,titer,NEGATIVE,,titer,,,Imaginary Labs,SERUM,Y,,3,BASELINE,1,TREATMENT,2013-09-15T23:30:00,-1,Pre-dose,-0.5
246,CDISCPILOT01,IS,01-705-1280,1,ADA_BAB,Binding Antidrug Antibody,XANOMELINE,IMMUNOGENICITY,1.56,titer,1.56,1.56,titer,,,Imaginary Labs,SERUM,Y,,3,BASELINE,1,TREATMENT,2014-01-16T23:30:00,-1,Pre-dose,-0.5
247,CDISCPILOT01,IS,01-705-1280,2,ADA_BAB,Binding Antidrug Antibody,XANOMELINE,IMMUNOGENICITY,1.49,titer,1.49,1.49,titer,,,Imaginary Labs,SERUM,,,4,WEEK 2,14,TREATMENT,2014-01-31T23:30:00,15,Pre-dose,-0.5
248,CDISCPILOT01,IS,01-705-1280,3,ADA_BAB,Binding Antidrug Antibody,XANOMELINE,IMMUNOGENICITY,<1.40,titer,<1.40,,titer,,,Imaginary Labs,SERUM,,,12,WEEK 24,168,TREATMENT,2014-07-11T23:30:00,176,Pre-dose,-0.5
249,CDISCPILOT01,IS,01-705-1280,4,ADA_NAB,Neutralizing Binding Antidrug Antibody,XANOMELINE,IMMUNOGENICITY,NEGATIVE,,NEGATIVE,,,,,Imaginary Labs,SERUM,Y,,3,BASELINE,1,TREATMENT,2014-01-16T23:30:00,-1,Pre-dose,-0.5
250,CDISCPILOT01,IS,01-705-1280,5,ADA_NAB,Neutralizing Binding Antidrug Antibody,XANOMELINE,IMMUNOGENICITY,NEGATIVE,,NEGATIVE,,,,,Imaginary Labs,SERUM,,,4,WEEK 2,14,TREATMENT,2014-01-31T23:30:00,15,Pre-dose,-0.5
251,CDISCPILOT01,IS,01-705-1280,6,ADA_NAB,Neutralizing Binding Antidrug Antibody,XANOMELINE,IMMUNOGENICITY,NEGATIVE,,NEGATIVE,,,,,Imaginary Labs,SERUM,,,12,WEEK 24,168,TREATMENT,2014-07-11T23:30:00,176,Pre-dose,-0.5
252,CDISCPILOT01,IS,01-705-1281,1,ADA_BAB,Binding Antidrug Antibody,XANOMELINE,IMMUNOGENICITY,NEGATIVE,titer,NEGATIVE,,titer,,,Imaginary Labs,SERUM,Y,,3,BASELINE,1,TREATMENT,2013-11-27T23:30:00,-1,Pre-dose,-0.5
253,CDISCPILOT01,IS,01-705-1281,2,ADA_BAB,Binding Antidrug Antibody,XANOMELINE,IMMUNOGENICITY,NEGATIVE,titer,NEGATIVE,,titer,,,Imaginary Labs,SERUM,,,4,WEEK 2,14,TREATMENT,2013-12-15T23:30:00,18,Pre-dose,-0.5
254,CDISCPILOT01,IS,01-705-1282,1,ADA_BAB,Binding Antidrug Antibody,XANOMELINE,IMMUNOGENICITY,NEGATIVE,titer,NEGATIVE,,titer,,,Imaginary Labs,SERUM,Y,,3,BASELINE,1,TREATMENT,2012-12-25T23:30:00,-1,Pre-dose,-0.5
255,CDISCPILOT01,IS,01-705-1292,1,ADA_BAB,Binding Antidrug Antibody,XANOMELINE,IMMUNOGENICITY,1.56,titer,1.56,1.56,titer,,,Imaginary Labs,SERUM,Y,,3,BASELINE,1,TREATMENT,2013-10-13T23:30:00,-1,Pre-dose,-0.5
256,CDISCPILOT01,IS,01-705-1292,2,ADA_BAB,Binding Antidrug Antibody,XANOMELINE,IMMUNOGENICITY,1.59,titer,1.59,1.59,titer,,,Imaginary Labs,SERUM,,,4,WEEK 2,14,TREATMENT,2013-10-29T23:30:00,16,Pre-dose,-0.5
257,CDISCPILOT01,IS,01-705-1292,3,ADA_BAB,Binding Antidrug Antibody,XANOMELINE,IMMUNOGENICITY,1.49,titer,1.49,1.49,titer,,,Imaginary Labs,SERUM,,,12,WEEK 24,168,TREATMENT,2014-04-28T23:30:00,197,Pre-dose,-0.5
258,CDISCPILOT01,IS,01-705-1292,4,ADA_NAB,Neutralizing Binding Antidrug Antibody,XANOMELINE,IMMUNOGENICITY,NEGATIVE,,NEGATIVE,,,,,Imaginary Labs,SERUM,Y,,3,BASELINE,1,TREATMENT,2013-10-13T23:30:00,-1,Pre-dose,-0.5
259,CDISCPILOT01,IS,01-705-1292,5,ADA_NAB,Neutralizing Binding Antidrug Antibody,XANOMELINE,IMMUNOGENICITY,NEGATIVE,,NEGATIVE,,,,,Imaginary Labs,SERUM,,,4,WEEK 2,14,TREATMENT,2013-10-29T23:30:00,16,Pre-dose,-0.5
260,CDISCPILOT01,IS,01-705-1292,6,ADA_NAB,Neutralizing Binding Antidrug Antibody,XANOMELINE,IMMUNOGENICITY,NEGATIVE,,NEGATIVE,,,,,Imaginary Labs,SERUM,,,12,WEEK 24,168,TREATMENT,2014-04-28T23:30:00,197,Pre-dose,-0.5
261,CDISCPILOT01,IS,01-705-1303,1,ADA_BAB,Binding Antidrug Antibody,XANOMELINE,IMMUNOGENICITY,1.57,titer,1.57,1.57,titer,,,Imaginary Labs,SERUM,Y,,3,BASELINE,1,TREATMENT,2013-12-15T23:30:00,-1,Pre-dose,-0.5
262,CDISCPILOT01,IS,01-705-1303,2,ADA_BAB,Binding Antidrug Antibody,XANOMELINE,IMMUNOGENICITY,1.54,titer,1.54,1.54,titer,,,Imaginary Labs,SERUM,,,4,WEEK 2,14,TREATMENT,2013-12-30T23:30:00,15,Pre-dose,-0.5
263,CDISCPILOT01,IS,01-705-1303,3,ADA_NAB,Neutralizing Binding Antidrug Antibody,XANOMELINE,IMMUNOGENICITY,NEGATIVE,,NEGATIVE,,,,,Imaginary Labs,SERUM,Y,,3,BASELINE,1,TREATMENT,2013-12-15T23:30:00,-1,Pre-dose,-0.5
264,CDISCPILOT01,IS,01-705-1303,4,ADA_NAB,Neutralizing Binding Antidrug Antibody,XANOMELINE,IMMUNOGENICITY,NEGATIVE,,NEGATIVE,,,,,Imaginary Labs,SERUM,,,4,WEEK 2,14,TREATMENT,2013-12-30T23:30:00,15,Pre-dose,-0.5
265,CDISCPILOT01,IS,01-705-1310,1,ADA_BAB,Binding Antidrug Antibody,XANOMELINE,IMMUNOGENICITY,NEGATIVE,titer,NEGATIVE,,titer,,,Imaginary Labs,SERUM,Y,,3,BASELINE,1,TREATMENT,2013-11-01T23:30:00,-1,Pre-dose,-0.5
266,CDISCPILOT01,IS,01-705-1310,2,ADA_BAB,Binding Antidrug Antibody,XANOMELINE,IMMUNOGENICITY,NEGATIVE,titer,NEGATIVE,,titer,,,Imaginary Labs,SERUM,,,4,WEEK 2,14,TREATMENT,2013-11-22T23:30:00,21,Pre-dose,-0.5
267,CDISCPILOT01,IS,01-705-1349,1,ADA_BAB,Binding Antidrug Antibody,XANOMELINE,IMMUNOGENICITY,<1.40,titer,<1.40,,titer,,,Imaginary Labs,SERUM,Y,,3,BASELINE,1,TREATMENT,2013-03-09T23:30:00,-1,Pre-dose,-0.5
268,CDISCPILOT01,IS,01-705-1349,2,ADA_NAB,Neutralizing Binding Antidrug Antibody,XANOMELINE,IMMUNOGENICITY,NEGATIVE,,NEGATIVE,,,,,Imaginary Labs,SERUM,Y,,3,BASELINE,1,TREATMENT,2013-03-09T23:30:00,-1,Pre-dose,-0.5
269,CDISCPILOT01,IS,01-705-1377,1,ADA_BAB,Binding Antidrug Antibody,XANOMELINE,IMMUNOGENICITY,1.4,titer,1.4,1.4,titer,,,Imaginary Labs,SERUM,Y,,3,BASELINE,1,TREATMENT,2014-01-03T23:30:00,-1,Pre-dose,-0.5
270,CDISCPILOT01,IS,01-705-1377,2,ADA_BAB,Binding Antidrug Antibody,XANOMELINE,IMMUNOGENICITY,1.6,titer,1.6,1.6,titer,,,Imaginary Labs,SERUM,,,4,WEEK 2,14,TREATMENT,2014-01-25T23:30:00,22,Pre-dose,-0.5
271,CDISCPILOT01,IS,01-705-1377,3,ADA_NAB,Neutralizing Binding Antidrug Antibody,XANOMELINE,IMMUNOGENICITY,NEGATIVE,,NEGATIVE,,,,,Imaginary Labs,SERUM,Y,,3,BASELINE,1,TREATMENT,2014-01-03T23:30:00,-1,Pre-dose,-0.5
272,CDISCPILOT01,IS,01-705-1377,4,ADA_NAB,Neutralizing Binding Antidrug Antibody,XANOMELINE,IMMUNOGENICITY,NEGATIVE,,NEGATIVE,,,,,Imaginary Labs,SERUM,,,4,WEEK 2,14,TREATMENT,2014-01-25T23:30:00,22,Pre-dose,-0.5
273,CDISCPILOT01,IS,01-705-1382,1,ADA_BAB,Binding Antidrug Antibody,XANOMELINE,IMMUNOGENICITY,NEGATIVE,titer,NEGATIVE,,titer,,,Imaginary Labs,SERUM,Y,,3,BASELINE,1,TREATMENT,2013-05-12T23:30:00,-1,Pre-dose,-0.5
274,CDISCPILOT01,IS,01-705-1393,1,ADA_BAB,Binding Antidrug Antibody,XANOMELINE,IMMUNOGENICITY,<1.40,titer,<1.40,,titer,,,Imaginary Labs,SERUM,Y,,3,BASELINE,1,TREATMENT,2012-09-06T23:30:00,-1,Pre-dose,-0.5
275,CDISCPILOT01,IS,01-705-1393,2,ADA_BAB,Binding Antidrug Antibody,XANOMELINE,IMMUNOGENICITY,2.5,titer,2.5,2.5,titer,,,Imaginary Labs,SERUM,,,4,WEEK 2,14,TREATMENT,2012-09-27T23:30:00,21,Pre-dose,-0.5
276,CDISCPILOT01,IS,01-705-1393,3,ADA_NAB,Neutralizing Binding Antidrug Antibody,XANOMELINE,IMMUNOGENICITY,NEGATIVE,,NEGATIVE,,,,,Imaginary Labs,SERUM,Y,,3,BASELINE,1,TREATMENT,2012-09-06T23:30:00,-1,Pre-dose,-0.5
277,CDISCPILOT01,IS,01-705-1393,4,ADA_NAB,Neutralizing Binding Antidrug Antibody,XANOMELINE,IMMUNOGENICITY,NEGATIVE,,NEGATIVE,,,,,Imaginary Labs,SERUM,,,4,WEEK 2,14,TREATMENT,2012-09-27T23:30:00,21,Pre-dose,-0.5
278,CDISCPILOT01,IS,01-705-1431,1,ADA_BAB,Binding Antidrug Antibody,XANOMELINE,IMMUNOGENICITY,NEGATIVE,titer,NEGATIVE,,titer,,,Imaginary Labs,SERUM,Y,,3,BASELINE,1,TREATMENT,2013-06-22T23:30:00,-1,Pre-dose,-0.5
279,CDISCPILOT01,IS,01-705-1431,2,ADA_BAB,Binding Antidrug Antibody,XANOMELINE,IMMUNOGENICITY,1.44,titer,1.44,1.44,titer,,,Imaginary Labs,SERUM,,,4,WEEK 2,14,TREATMENT,2013-07-07T23:30:00,15,Pre-dose,-0.5
280,CDISCPILOT01,IS,01-705-1431,3,ADA_BAB,Binding Antidrug Antibody,XANOMELINE,IMMUNOGENICITY,1.51,titer,1.51,1.51,titer,,,Imaginary Labs,SERUM,,,12,WEEK 24,168,TREATMENT,2013-12-05T23:30:00,166,Pre-dose,-0.5
281,CDISCPILOT01,IS,01-705-1431,4,ADA_NAB,Neutralizing Binding Antidrug Antibody,XANOMELINE,IMMUNOGENICITY,NEGATIVE,,NEGATIVE,,,,,Imaginary Labs,SERUM,,,4,WEEK 2,14,TREATMENT,2013-07-07T23:30:00,15,Pre-dose,-0.5
282,CDISCPILOT01,IS,01-705-1431,5,ADA_NAB,Neutralizing Binding Antidrug Antibody,XANOMELINE,IMMUNOGENICITY,NEGATIVE,,NEGATIVE,,,,,Imaginary Labs,SERUM,,,12,WEEK 24,168,TREATMENT,2013-12-05T23:30:00,166,Pre-dose,-0.5
283,CDISCPILOT01,IS,01-706-1041,1,ADA_BAB,Binding Antidrug Antibody,XANOMELINE,IMMUNOGENICITY,1.46,titer,1.46,1.46,titer,,,Imaginary Labs,SERUM,Y,,3,BASELINE,1,TREATMENT,2013-12-30T23:30:00,-1,Pre-dose,-0.5
284,CDISCPILOT01,IS,01-706-1041,2,ADA_NAB,Neutralizing Binding Antidrug Antibody,XANOMELINE,IMMUNOGENICITY,NEGATIVE,,NEGATIVE,,,,,Imaginary Labs,SERUM,Y,,3,BASELINE,1,TREATMENT,2013-12-30T23:30:00,-1,Pre-dose,-0.5
285,CDISCPILOT01,IS,01-706-1049,1,ADA_BAB,Binding Antidrug Antibody,XANOMELINE,IMMUNOGENICITY,NEGATIVE,titer,NEGATIVE,,titer,,,Imaginary Labs,SERUM,Y,,3,BASELINE,1,TREATMENT,2013-05-13T23:30:00,-1,Pre-dose,-0.5
286,CDISCPILOT01,IS,01-706-1049,2,ADA_BAB,Binding Antidrug Antibody,XANOMELINE,IMMUNOGENICITY,NEGATIVE,titer,NEGATIVE,,titer,,,Imaginary Labs,SERUM,,,4,WEEK 2,14,TREATMENT,2013-05-28T23:30:00,15,Pre-dose,-0.5
287,CDISCPILOT01,IS,01-706-1384,1,ADA_BAB,Binding Antidrug Antibody,XANOMELINE,IMMUNOGENICITY,<1.40,titer,<1.40,,titer,,,Imaginary Labs,SERUM,Y,,3,BASELINE,1,TREATMENT,2012-09-14T23:30:00,-1,Pre-dose,-0.5
288,CDISCPILOT01,IS,01-706-1384,2,ADA_NAB,Neutralizing Binding Antidrug Antibody,XANOMELINE,IMMUNOGENICITY,NEGATIVE,,NEGATIVE,,,,,Imaginary Labs,SERUM,Y,,3,BASELINE,1,TREATMENT,2012-09-14T23:30:00,-1,Pre-dose,-0.5
289,CDISCPILOT01,IS,01-707-1037,1,ADA_BAB,Binding Antidrug Antibody,XANOMELINE,IMMUNOGENICITY,1.46,titer,1.46,1.46,titer,,,Imaginary Labs,SERUM,Y,,3,BASELINE,1,TREATMENT,2013-12-19T23:30:00,-1,Pre-dose,-0.5
290,CDISCPILOT01,IS,01-707-1037,2,ADA_NAB,Neutralizing Binding Antidrug Antibody,XANOMELINE,IMMUNOGENICITY,NEGATIVE,,NEGATIVE,,,,,Imaginary Labs,SERUM,Y,,3,BASELINE,1,TREATMENT,2013-12-19T23:30:00,-1,Pre-dose,-0.5
291,CDISCPILOT01,IS,01-707-1206,1,ADA_BAB,Binding Antidrug Antibody,XANOMELINE,IMMUNOGENICITY,NEGATIVE,titer,NEGATIVE,,titer,,,Imaginary Labs,SERUM,Y,,3,BASELINE,1,TREATMENT,2013-10-27T23:30:00,-1,Pre-dose,-0.5
292,CDISCPILOT01,IS,01-708-1019,1,ADA_BAB,Binding Antidrug Antibody,XANOMELINE,IMMUNOGENICITY,1.59,titer,1.59,1.59,titer,,,Imaginary Labs,SERUM,Y,,3,BASELINE,1,TREATMENT,2013-12-19T23:30:00,-1,Pre-dose,-0.5
293,CDISCPILOT01,IS,01-708-1019,2,ADA_NAB,Neutralizing Binding Antidrug Antibody,XANOMELINE,IMMUNOGENICITY,NEGATIVE,,NEGATIVE,,,,,Imaginary Labs,SERUM,Y,,3,BASELINE,1,TREATMENT,2013-12-19T23:30:00,-1,Pre-dose,-0.5
294,CDISCPILOT01,IS,01-708-1032,1,ADA_BAB,Binding Antidrug Antibody,XANOMELINE,IMMUNOGENICITY,NEGATIVE,titer,NEGATIVE,,titer,,,Imaginary Labs,SERUM,Y,,3,BASELINE,1,TREATMENT,2013-02-08T23:30:00,-1,Pre-dose,-0.5
295,CDISCPILOT01,IS,01-708-1032,2,ADA_BAB,Binding Antidrug Antibody,XANOMELINE,IMMUNOGENICITY,NEGATIVE,titer,NEGATIVE,,titer,,,Imaginary Labs,SERUM,,,4,WEEK 2,14,TREATMENT,2013-02-23T23:30:00,15,Pre-dose,-0.5
296,CDISCPILOT01,IS,01-708-1084,1,ADA_BAB,Binding Antidrug Antibody,XANOMELINE,IMMUNOGENICITY,NEGATIVE,titer,NEGATIVE,,titer,,,Imaginary Labs,SERUM,Y,,3,BASELINE,1,TREATMENT,2013-05-08T23:30:00,-1,Pre-dose,-0.5
297,CDISCPILOT01,IS,01-708-1084,2,ADA_BAB,Binding Antidrug Antibody,XANOMELINE,IMMUNOGENICITY,<1.40,titer,<1.40,,titer,,,Imaginary Labs,SERUM,,,4,WEEK 2,14,TREATMENT,2013-05-23T23:30:00,15,Pre-dose,-0.5
298,CDISCPILOT01,IS,01-708-1084,3,ADA_BAB,Binding Antidrug Antibody,XANOMELINE,IMMUNOGENICITY,<1.40,titer,<1.40,,titer,,,Imaginary Labs,SERUM,,,12,WEEK 24,168,TREATMENT,2013-10-28T23:30:00,173,Pre-dose,-0.5
299,CDISCPILOT01,IS,01-708-1084,4,ADA_NAB,Neutralizing Binding Antidrug Antibody,XANOMELINE,IMMUNOGENICITY,NEGATIVE,,NEGATIVE,,,,,Imaginary Labs,SERUM,,,4,WEEK 2,14,TREATMENT,2013-05-23T23:30:00,15,Pre-dose,-0.5
300,CDISCPILOT01,IS,01-708-1084,5,ADA_NAB,Neutralizing Binding Antidrug Antibody,XANOMELINE,IMMUNOGENICITY,NEGATIVE,,NEGATIVE,,,,,Imaginary Labs,SERUM,,,12,WEEK 24,168,TREATMENT,2013-10-28T23:30:00,173,Pre-dose,-0.5
301,CDISCPILOT01,IS,01-708-1087,1,ADA_BAB,Binding Antidrug Antibody,XANOMELINE,IMMUNOGENICITY,1.47,titer,1.47,1.47,titer,,,Imaginary Labs,SERUM,Y,,3,BASELINE,1,TREATMENT,2012-10-21T23:30:00,-1,Pre-dose,-0.5
302,CDISCPILOT01,IS,01-708-1087,2,ADA_NAB,Neutralizing Binding Antidrug Antibody,XANOMELINE,IMMUNOGENICITY,NEGATIVE,,NEGATIVE,,,,,Imaginary Labs,SERUM,Y,,3,BASELINE,1,TREATMENT,2012-10-21T23:30:00,-1,Pre-dose,-0.5
303,CDISCPILOT01,IS,01-708-1158,1,ADA_BAB,Binding Antidrug Antibody,XANOMELINE,IMMUNOGENICITY,1.42,titer,1.42,1.42,titer,,,Imaginary Labs,SERUM,Y,,3,BASELINE,1,TREATMENT,2014-02-07T23:30:00,-1,Pre-dose,-0.5
304,CDISCPILOT01,IS,01-708-1158,2,ADA_NAB,Neutralizing Binding Antidrug Antibody,XANOMELINE,IMMUNOGENICITY,NEGATIVE,,NEGATIVE,,,,,Imaginary Labs,SERUM,Y,,3,BASELINE,1,TREATMENT,2014-02-07T23:30:00,-1,Pre-dose,-0.5
305,CDISCPILOT01,IS,01-708-1171,1,ADA_BAB,Binding Antidrug Antibody,XANOMELINE,IMMUNOGENICITY,NEGATIVE,titer,NEGATIVE,,titer,,,Imaginary Labs,SERUM,Y,,3,BASELINE,1,TREATMENT,2012-12-05T23:30:00,-1,Pre-dose,-0.5
306,CDISCPILOT01,IS,01-708-1178,1,ADA_BAB,Binding Antidrug Antibody,XANOMELINE,IMMUNOGENICITY,1.47,titer,1.47,1.47,titer,,,Imaginary Labs,SERUM,Y,,3,BASELINE,1,TREATMENT,2013-12-28T23:30:00,-1,Pre-dose,-0.5
307,CDISCPILOT01,IS,01-708-1178,2,ADA_BAB,Binding Antidrug Antibody,XANOMELINE,IMMUNOGENICITY,1.44,titer,1.44,1.44,titer,,,Imaginary Labs,SERUM,,,4,WEEK 2,14,TREATMENT,2014-01-18T23:30:00,21,Pre-dose,-0.5
308,CDISCPILOT01,IS,01-708-1178,3,ADA_NAB,Neutralizing Binding Antidrug Antibody,XANOMELINE,IMMUNOGENICITY,NEGATIVE,,NEGATIVE,,,,,Imaginary Labs,SERUM,Y,,3,BASELINE,1,TREATMENT,2013-12-28T23:30:00,-1,Pre-dose,-0.5
309,CDISCPILOT01,IS,01-708-1178,4,ADA_NAB,Neutralizing Binding Antidrug Antibody,XANOMELINE,IMMUNOGENICITY,NEGATIVE,,NEGATIVE,,,,,Imaginary Labs,SERUM,,,4,WEEK 2,14,TREATMENT,2014-01-18T23:30:00,21,Pre-dose,-0.5
310,CDISCPILOT01,IS,01-708-1213,1,ADA_BAB,Binding Antidrug Antibody,XANOMELINE,IMMUNOGENICITY,NEGATIVE,titer,NEGATIVE,,titer,,,Imaginary Labs,SERUM,Y,,3,BASELINE,1,TREATMENT,2013-02-08T23:30:00,-1,Pre-dose,-0.5
311,CDISCPILOT01,IS,01-708-1216,1,ADA_BAB,Binding Antidrug Antibody,XANOMELINE,IMMUNOGENICITY,NEGATIVE,titer,NEGATIVE,,titer,,,Imaginary Labs,SERUM,Y,,3,BASELINE,1,TREATMENT,2012-10-23T23:30:00,-1,Pre-dose,-0.5
312,CDISCPILOT01,IS,01-708-1216,2,ADA_BAB,Binding Antidrug Antibody,XANOMELINE,IMMUNOGENICITY,NEGATIVE,titer,NEGATIVE,,titer,,,Imaginary Labs,SERUM,,,4,WEEK 2,14,TREATMENT,2012-11-08T23:30:00,16,Pre-dose,-0.5
313,CDISCPILOT01,IS,01-708-1236,1,ADA_BAB,Binding Antidrug Antibody,XANOMELINE,IMMUNOGENICITY,1.42,titer,1.42,1.42,titer,,,Imaginary Labs,SERUM,Y,,3,BASELINE,1,TREATMENT,2013-09-20T23:30:00,-1,Pre-dose,-0.5
314,CDISCPILOT01,IS,01-708-1236,2,ADA_NAB,Neutralizing Binding Antidrug Antibody,XANOMELINE,IMMUNOGENICITY,NEGATIVE,,NEGATIVE,,,,,Imaginary Labs,SERUM,Y,,3,BASELINE,1,TREATMENT,2013-09-20T23:30:00,-1,Pre-dose,-0.5
315,CDISCPILOT01,IS,01-708-1253,1,ADA_BAB,Binding Antidrug Antibody,XANOMELINE,IMMUNOGENICITY,1.59,titer,1.59,1.59,titer,,,Imaginary Labs,SERUM,Y,,3,BASELINE,1,TREATMENT,2013-05-06T23:30:00,-1,Pre-dose,-0.5
316,CDISCPILOT01,IS,01-708-1253,2,ADA_NAB,Neutralizing Binding Antidrug Antibody,XANOMELINE,IMMUNOGENICITY,NEGATIVE,,NEGATIVE,,,,,Imaginary Labs,SERUM,Y,,3,BASELINE,1,TREATMENT,2013-05-06T23:30:00,-1,Pre-dose,-0.5
317,CDISCPILOT01,IS,01-708-1272,1,ADA_BAB,Binding Antidrug Antibody,XANOMELINE,IMMUNOGENICITY,NEGATIVE,titer,NEGATIVE,,titer,,,Imaginary Labs,SERUM,Y,,3,BASELINE,1,TREATMENT,2013-02-05T23:30:00,-1,Pre-dose,-0.5
318,CDISCPILOT01,IS,01-708-1272,2,ADA_BAB,Binding Antidrug Antibody,XANOMELINE,IMMUNOGENICITY,NEGATIVE,titer,NEGATIVE,,titer,,,Imaginary Labs,SERUM,,,4,WEEK 2,14,TREATMENT,2013-02-21T23:30:00,16,Pre-dose,-0.5
319,CDISCPILOT01,IS,01-708-1286,1,ADA_BAB,Binding Antidrug Antibody,XANOMELINE,IMMUNOGENICITY,NEGATIVE,titer,NEGATIVE,,titer,,,Imaginary Labs,SERUM,Y,,3,BASELINE,1,TREATMENT,2013-09-09T23:30:00,-1,Pre-dose,-0.5
320,CDISCPILOT01,IS,01-708-1296,1,ADA_BAB,Binding Antidrug Antibody,XANOMELINE,IMMUNOGENICITY,1.45,titer,1.45,1.45,titer,,,Imaginary Labs,SERUM,Y,,3,BASELINE,1,TREATMENT,2013-06-13T23:30:00,-1,Pre-dose,-0.5
321,CDISCPILOT01,IS,01-708-1296,2,ADA_NAB,Neutralizing Binding Antidrug Antibody,XANOMELINE,IMMUNOGENICITY,NEGATIVE,,NEGATIVE,,,,,Imaginary Labs,SERUM,Y,,3,BASELINE,1,TREATMENT,2013-06-13T23:30:00,-1,Pre-dose,-0.5
322,CDISCPILOT01,IS,01-708-1297,1,ADA_BAB,Binding Antidrug Antibody,XANOMELINE,IMMUNOGENICITY,NEGATIVE,titer,NEGATIVE,,titer,,,Imaginary Labs,SERUM,Y,,3,BASELINE,1,TREATMENT,2013-01-24T23:30:00,-1,Pre-dose,-0.5
323,CDISCPILOT01,IS,01-708-1297,2,ADA_BAB,Binding Antidrug Antibody,XANOMELINE,IMMUNOGENICITY,NEGATIVE,titer,NEGATIVE,,titer,,,Imaginary Labs,SERUM,,,4,WEEK 2,14,TREATMENT,2013-02-08T23:30:00,15,Pre-dose,-0.5
324,CDISCPILOT01,IS,01-708-1316,1,ADA_BAB,Binding Antidrug Antibody,XANOMELINE,IMMUNOGENICITY,1.54,titer,1.54,1.54,titer,,,Imaginary Labs,SERUM,Y,,3,BASELINE,1,TREATMENT,2013-08-22T23:30:00,-1,Pre-dose,-0.5
325,CDISCPILOT01,IS,01-708-1316,2,ADA_NAB,Neutralizing Binding Antidrug Antibody,XANOMELINE,IMMUNOGENICITY,NEGATIVE,,NEGATIVE,,,,,Imaginary Labs,SERUM,Y,,3,BASELINE,1,TREATMENT,2013-08-22T23:30:00,-1,Pre-dose,-0.5
326,CDISCPILOT01,IS,01-708-1336,1,ADA_BAB,Binding Antidrug Antibody,XANOMELINE,IMMUNOGENICITY,1.4,titer,1.4,1.4,titer,,,Imaginary Labs,SERUM,Y,,3,BASELINE,1,TREATMENT,2012-12-06T23:30:00,-1,Pre-dose,-0.5
327,CDISCPILOT01,IS,01-708-1336,2,ADA_BAB,Binding Antidrug Antibody,XANOMELINE,IMMUNOGENICITY,2.86,titer,2.86,2.86,titer,,,Imaginary Labs,SERUM,,,4,WEEK 2,14,TREATMENT,2012-12-21T23:30:00,15,Pre-dose,-0.5
328,CDISCPILOT01,IS,01-708-1336,3,ADA_BAB,Binding Antidrug Antibody,XANOMELINE,IMMUNOGENICITY,2.06,titer,2.06,2.06,titer,,,Imaginary Labs,SERUM,,,12,WEEK 24,168,TREATMENT,2013-05-22T23:30:00,167,Pre-dose,-0.5
329,CDISCPILOT01,IS,01-708-1336,4,ADA_NAB,Neutralizing Binding Antidrug Antibody,XANOMELINE,IMMUNOGENICITY,NEGATIVE,,NEGATIVE,,,,,Imaginary Labs,SERUM,Y,,3,BASELINE,1,TREATMENT,2012-12-06T23:30:00,-1,Pre-dose,-0.5
330,CDISCPILOT01,IS,01-708-1336,5,ADA_NAB,Neutralizing Binding Antidrug Antibody,XANOMELINE,IMMUNOGENICITY,NEGATIVE,,NEGATIVE,,,,,Imaginary Labs,SERUM,,,4,WEEK 2,14,TREATMENT,2012-12-21T23:30:00,15,Pre-dose,-0.5
331,CDISCPILOT01,IS,01-708-1336,6,ADA_NAB,Neutralizing Binding Antidrug Antibody,XANOMELINE,IMMUNOGENICITY,NEGATIVE,,NEGATIVE,,,,,Imaginary Labs,SERUM,,,12,WEEK 24,168,TREATMENT,2013-05-22T23:30:00,167,Pre-dose,-0.5
332,CDISCPILOT01,IS,01-708-1342,1,ADA_BAB,Binding Antidrug Antibody,XANOMELINE,IMMUNOGENICITY,NEGATIVE,titer,NEGATIVE,,titer,,,Imaginary Labs,SERUM,Y,,3,BASELINE,1,TREATMENT,2012-12-28T23:30:00,-1,Pre-dose,-0.5
333,CDISCPILOT01,IS,01-708-1347,1,ADA_BAB,Binding Antidrug Antibody,XANOMELINE,IMMUNOGENICITY,<1.40,titer,<1.40,,titer,,,Imaginary Labs,SERUM,Y,,3,BASELINE,1,TREATMENT,2013-04-19T23:30:00,-1,Pre-dose,-0.5
334,CDISCPILOT01,IS,01-708-1347,2,ADA_BAB,Binding Antidrug Antibody,XANOMELINE,IMMUNOGENICITY,2.78,titer,2.78,2.78,titer,,,Imaginary Labs,SERUM,,,4,WEEK 2,14,TREATMENT,2013-05-04T23:30:00,15,Pre-dose,-0.5
335,CDISCPILOT01,IS,01-708-1347,3,ADA_NAB,Neutralizing Binding Antidrug Antibody,XANOMELINE,IMMUNOGENICITY,NEGATIVE,,NEGATIVE,,,,,Imaginary Labs,SERUM,Y,,3,BASELINE,1,TREATMENT,2013-04-19T23:30:00,-1,Pre-dose,-0.5
336,CDISCPILOT01,IS,01-708-1347,4,ADA_NAB,Neutralizing Binding Antidrug Antibody,XANOMELINE,IMMUNOGENICITY,NEGATIVE,,NEGATIVE,,,,,Imaginary Labs,SERUM,,,4,WEEK 2,14,TREATMENT,2013-05-04T23:30:00,15,Pre-dose,-0.5
337,CDISCPILOT01,IS,01-708-1348,1,ADA_BAB,Binding Antidrug Antibody,XANOMELINE,IMMUNOGENICITY,<1.40,titer,<1.40,,titer,,,Imaginary Labs,SERUM,Y,,3,BASELINE,1,TREATMENT,2013-08-04T23:30:00,-1,Pre-dose,-0.5
338,CDISCPILOT01,IS,01-708-1348,2,ADA_BAB,Binding Antidrug Antibody,XANOMELINE,IMMUNOGENICITY,2.18,titer,2.18,2.18,titer,,,Imaginary Labs,SERUM,,,4,WEEK 2,14,TREATMENT,2013-08-19T23:30:00,15,Pre-dose,-0.5
339,CDISCPILOT01,IS,01-708-1348,3,ADA_BAB,Binding Antidrug Antibody,XANOMELINE,IMMUNOGENICITY,2.21,titer,2.21,2.21,titer,,,Imaginary Labs,SERUM,,,12,WEEK 24,168,TREATMENT,2014-02-03T23:30:00,183,Pre-dose,-0.5
340,CDISCPILOT01,IS,01-708-1348,4,ADA_NAB,Neutralizing Binding Antidrug Antibody,XANOMELINE,IMMUNOGENICITY,NEGATIVE,,NEGATIVE,,,,,Imaginary Labs,SERUM,Y,,3,BASELINE,1,TREATMENT,2013-08-04T23:30:00,-1,Pre-dose,-0.5
341,CDISCPILOT01,IS,01-708-1348,5,ADA_NAB,Neutralizing Binding Antidrug Antibody,XANOMELINE,IMMUNOGENICITY,NEGATIVE,,NEGATIVE,,,,,Imaginary Labs,SERUM,,,4,WEEK 2,14,TREATMENT,2013-08-19T23:30:00,15,Pre-dose,-0.5
342,CDISCPILOT01,IS,01-708-1348,6,ADA_NAB,Neutralizing Binding Antidrug Antibody,XANOMELINE,IMMUNOGENICITY,NEGATIVE,,NEGATIVE,,,,,Imaginary Labs,SERUM,,,12,WEEK 24,168,TREATMENT,2014-02-03T23:30:00,183,Pre-dose,-0.5
343,CDISCPILOT01,IS,01-708-1353,1,ADA_BAB,Binding Antidrug Antibody,XANOMELINE,IMMUNOGENICITY,1.4,titer,1.4,1.4,titer,,,Imaginary Labs,SERUM,Y,,3,BASELINE,1,TREATMENT,2013-07-03T23:30:00,-1,Pre-dose,-0.5
344,CDISCPILOT01,IS,01-708-1353,2,ADA_BAB,Binding Antidrug Antibody,XANOMELINE,IMMUNOGENICITY,2.55,titer,2.55,2.55,titer,,,Imaginary Labs,SERUM,,,4,WEEK 2,14,TREATMENT,2013-07-18T23:30:00,15,Pre-dose,-0.5
345,CDISCPILOT01,IS,01-708-1353,3,ADA_NAB,Neutralizing Binding Antidrug Antibody,XANOMELINE,IMMUNOGENICITY,NEGATIVE,,NEGATIVE,,,,,Imaginary Labs,SERUM,Y,,3,BASELINE,1,TREATMENT,2013-07-03T23:30:00,-1,Pre-dose,-0.5
346,CDISCPILOT01,IS,01-708-1353,4,ADA_NAB,Neutralizing Binding Antidrug Antibody,XANOMELINE,IMMUNOGENICITY,NEGATIVE,,NEGATIVE,,,,,Imaginary Labs,SERUM,,,4,WEEK 2,14,TREATMENT,2013-07-18T23:30:00,15,Pre-dose,-0.5
347,CDISCPILOT01,IS,01-708-1372,1,ADA_BAB,Binding Antidrug Antibody,XANOMELINE,IMMUNOGENICITY,1.55,titer,1.55,1.55,titer,,,Imaginary Labs,SERUM,Y,,3,BASELINE,1,TREATMENT,2013-04-11T23:30:00,-1,Pre-dose,-0.5
348,CDISCPILOT01,IS,01-708-1372,2,ADA_NAB,Neutralizing Binding Antidrug Antibody,XANOMELINE,IMMUNOGENICITY,NEGATIVE,,NEGATIVE,,,,,Imaginary Labs,SERUM,Y,,3,BASELINE,1,TREATMENT,2013-04-11T23:30:00,-1,Pre-dose,-0.5
349,CDISCPILOT01,IS,01-708-1378,1,ADA_BAB,Binding Antidrug Antibody,XANOMELINE,IMMUNOGENICITY,NEGATIVE,titer,NEGATIVE,,titer,,,Imaginary Labs,SERUM,Y,,3,BASELINE,1,TREATMENT,2013-09-02T23:30:00,-1,Pre-dose,-0.5
350,CDISCPILOT01,IS,01-708-1406,1,ADA_BAB,Binding Antidrug Antibody,XANOMELINE,IMMUNOGENICITY,NEGATIVE,titer,NEGATIVE,,titer,,,Imaginary Labs,SERUM,Y,,3,BASELINE,1,TREATMENT,2013-12-25T23:30:00,-1,Pre-dose,-0.5
351,CDISCPILOT01,IS,01-708-1406,2,ADA_BAB,Binding Antidrug Antibody,XANOMELINE,IMMUNOGENICITY,<1.40,titer,<1.40,,titer,,,Imaginary Labs,SERUM,,,4,WEEK 2,14,TREATMENT,2014-01-09T23:30:00,15,Pre-dose,-0.5
352,CDISCPILOT01,IS,01-708-1406,3,ADA_BAB,Binding Antidrug Antibody,XANOMELINE,IMMUNOGENICITY,1.53,titer,1.53,1.53,titer,,,Imaginary Labs,SERUM,,,12,WEEK 24,168,TREATMENT,2014-06-16T23:30:00,173,Pre-dose,-0.5
353,CDISCPILOT01,IS,01-708-1406,4,ADA_NAB,Neutralizing Binding Antidrug Antibody,XANOMELINE,IMMUNOGENICITY,NEGATIVE,,NEGATIVE,,,,,Imaginary Labs,SERUM,,,4,WEEK 2,14,TREATMENT,2014-01-09T23:30:00,15,Pre-dose,-0.5
354,CDISCPILOT01,IS,01-708-1406,5,ADA_NAB,Neutralizing Binding Antidrug Antibody,XANOMELINE,IMMUNOGENICITY,NEGATIVE,,NEGATIVE,,,,,Imaginary Labs,SERUM,,,12,WEEK 24,168,TREATMENT,2014-06-16T23:30:00,173,Pre-dose,-0.5
355,CDISCPILOT01,IS,01-708-1428,1,ADA_BAB,Binding Antidrug Antibody,XANOMELINE,IMMUNOGENICITY,NEGATIVE,titer,NEGATIVE,,titer,,,Imaginary Labs,SERUM,Y,,3,BASELINE,1,TREATMENT,2013-11-08T23:30:00,-1,Pre-dose,-0.5
356,CDISCPILOT01,IS,01-708-1428,2,ADA_BAB,Binding Antidrug Antibody,XANOMELINE,IMMUNOGENICITY,NEGATIVE,titer,NEGATIVE,,titer,,,Imaginary Labs,SERUM,,,4,WEEK 2,14,TREATMENT,2013-11-23T23:30:00,15,Pre-dose,-0.5
357,CDISCPILOT01,IS,01-709-1001,1,ADA_BAB,Binding Antidrug Antibody,XANOMELINE,IMMUNOGENICITY,NEGATIVE,titer,NEGATIVE,,titer,,,Imaginary Labs,SERUM,Y,,3,BASELINE,1,TREATMENT,2013-10-07T23:30:00,-1,Pre-dose,-0.5
358,CDISCPILOT01,IS,01-709-1007,1,ADA_BAB,Binding Antidrug Antibody,XANOMELINE,IMMUNOGENICITY,NEGATIVE,titer,NEGATIVE,,titer,,,Imaginary Labs,SERUM,Y,,3,BASELINE,1,TREATMENT,2012-07-30T23:30:00,-1,Pre-dose,-0.5
359,CDISCPILOT01,IS,01-709-1007,2,ADA_BAB,Binding Antidrug Antibody,XANOMELINE,IMMUNOGENICITY,NEGATIVE,titer,NEGATIVE,,titer,,,Imaginary Labs,SERUM,,,4,WEEK 2,14,TREATMENT,2012-08-18T23:30:00,19,Pre-dose,-0.5
360,CDISCPILOT01,IS,01-709-1020,1,ADA_BAB,Binding Antidrug Antibody,XANOMELINE,IMMUNOGENICITY,NEGATIVE,titer,NEGATIVE,,titer,,,Imaginary Labs,SERUM,Y,,3,BASELINE,1,TREATMENT,2012-11-30T23:30:00,-1,Pre-dose,-0.5
361,CDISCPILOT01,IS,01-709-1020,2,ADA_BAB,Binding Antidrug Antibody,XANOMELINE,IMMUNOGENICITY,<1.40,titer,<1.40,,titer,,,Imaginary Labs,SERUM,,,4,WEEK 2,14,TREATMENT,2012-12-15T23:30:00,15,Pre-dose,-0.5
362,CDISCPILOT01,IS,01-709-1020,3,ADA_BAB,Binding Antidrug Antibody,XANOMELINE,IMMUNOGENICITY,1.4,titer,1.4,1.4,titer,,,Imaginary Labs,SERUM,,,12,WEEK 24,168,TREATMENT,2013-05-18T23:30:00,169,Pre-dose,-0.5
363,CDISCPILOT01,IS,01-709-1020,4,ADA_NAB,Neutralizing Binding Antidrug Antibody,XANOMELINE,IMMUNOGENICITY,NEGATIVE,,NEGATIVE,,,,,Imaginary Labs,SERUM,,,4,WEEK 2,14,TREATMENT,2012-12-15T23:30:00,15,Pre-dose,-0.5
364,CDISCPILOT01,IS,01-709-1020,5,ADA_NAB,Neutralizing Binding Antidrug Antibody,XANOMELINE,IMMUNOGENICITY,NEGATIVE,,NEGATIVE,,,,,Imaginary Labs,SERUM,,,12,WEEK 24,168,TREATMENT,2013-05-18T23:30:00,169,Pre-dose,-0.5
365,CDISCPILOT01,IS,01-709-1029,1,ADA_BAB,Binding Antidrug Antibody,XANOMELINE,IMMUNOGENICITY,NEGATIVE,titer,NEGATIVE,,titer,,,Imaginary Labs,SERUM,Y,,3,BASELINE,1,TREATMENT,2012-12-24T23:30:00,-1,Pre-dose,-0.5
366,CDISCPILOT01,IS,01-709-1029,2,ADA_BAB,Binding Antidrug Antibody,XANOMELINE,IMMUNOGENICITY,1.42,titer,1.42,1.42,titer,,,Imaginary Labs,SERUM,,,4,WEEK 2,14,TREATMENT,2013-01-09T23:30:00,16,Pre-dose,-0.5
367,CDISCPILOT01,IS,01-709-1029,3,ADA_BAB,Binding Antidrug Antibody,XANOMELINE,IMMUNOGENICITY,1.59,titer,1.59,1.59,titer,,,Imaginary Labs,SERUM,,,12,WEEK 24,168,TREATMENT,2013-06-12T23:30:00,170,Pre-dose,-0.5
368,CDISCPILOT01,IS,01-709-1029,4,ADA_NAB,Neutralizing Binding Antidrug Antibody,XANOMELINE,IMMUNOGENICITY,NEGATIVE,,NEGATIVE,,,,,Imaginary Labs,SERUM,,,4,WEEK 2,14,TREATMENT,2013-01-09T23:30:00,16,Pre-dose,-0.5
369,CDISCPILOT01,IS,01-709-1029,5,ADA_NAB,Neutralizing Binding Antidrug Antibody,XANOMELINE,IMMUNOGENICITY,NEGATIVE,,NEGATIVE,,,,,Imaginary Labs,SERUM,,,12,WEEK 24,168,TREATMENT,2013-06-12T23:30:00,170,Pre-dose,-0.5
370,CDISCPILOT01,IS,01-709-1081,1,ADA_BAB,Binding Antidrug Antibody,XANOMELINE,IMMUNOGENICITY,NEGATIVE,titer,NEGATIVE,,titer,,,Imaginary Labs,SERUM,Y,,3,BASELINE,1,TREATMENT,2014-01-17T23:30:00,-1,Pre-dose,-0.5
371,CDISCPILOT01,IS,01-709-1081,2,ADA_BAB,Binding Antidrug Antibody,XANOMELINE,IMMUNOGENICITY,NEGATIVE,titer,NEGATIVE,,titer,,,Imaginary Labs,SERUM,,,4,WEEK 2,14,TREATMENT,2014-02-01T23:30:00,15,Pre-dose,-0.5
372,CDISCPILOT01,IS,01-709-1088,1,ADA_BAB,Binding Antidrug Antibody,XANOMELINE,IMMUNOGENICITY,NEGATIVE,titer,NEGATIVE,,titer,,,Imaginary Labs,SERUM,Y,,3,BASELINE,1,TREATMENT,2014-04-11T23:30:00,-1,Pre-dose,-0.5
373,CDISCPILOT01,IS,01-709-1099,1,ADA_BAB,Binding Antidrug Antibody,XANOMELINE,IMMUNOGENICITY,NEGATIVE,titer,NEGATIVE,,titer,,,Imaginary Labs,SERUM,Y,,3,BASELINE,1,TREATMENT,2013-10-24T23:30:00,-1,Pre-dose,-0.5
374,CDISCPILOT01,IS,01-709-1099,2,ADA_BAB,Binding Antidrug Antibody,XANOMELINE,IMMUNOGENICITY,NEGATIVE,titer,NEGATIVE,,titer,,,Imaginary Labs,SERUM,,,4,WEEK 2,14,TREATMENT,2013-11-12T23:30:00,19,Pre-dose,-0.5
375,CDISCPILOT01,IS,01-709-1099,3,ADA_BAB,Binding Antidrug Antibody,XANOMELINE,IMMUNOGENICITY,NEGATIVE,titer,NEGATIVE,,titer,,,Imaginary Labs,SERUM,,,12,WEEK 24,168,TREATMENT,2014-04-11T23:30:00,169,Pre-dose,-0.5
376,CDISCPILOT01,IS,01-709-1102,1,ADA_BAB,Binding Antidrug Antibody,XANOMELINE,IMMUNOGENICITY,1.56,titer,1.56,1.56,titer,,,Imaginary Labs,SERUM,Y,,3,BASELINE,1,TREATMENT,2013-01-14T23:30:00,-1,Pre-dose,-0.5
377,CDISCPILOT01,IS,01-709-1102,2,ADA_BAB,Binding Antidrug Antibody,XANOMELINE,IMMUNOGENICITY,2.36,titer,2.36,2.36,titer,,,Imaginary Labs,SERUM,,,4,WEEK 2,14,TREATMENT,2013-01-31T23:30:00,17,Pre-dose,-0.5
378,CDISCPILOT01,IS,01-709-1102,3,ADA_NAB,Neutralizing Binding Antidrug Antibody,XANOMELINE,IMMUNOGENICITY,NEGATIVE,,NEGATIVE,,,,,Imaginary Labs,SERUM,Y,,3,BASELINE,1,TREATMENT,2013-01-14T23:30:00,-1,Pre-dose,-0.5
379,CDISCPILOT01,IS,01-709-1102,4,ADA_NAB,Neutralizing Binding Antidrug Antibody,XANOMELINE,IMMUNOGENICITY,NEGATIVE,,NEGATIVE,,,,,Imaginary Labs,SERUM,,,4,WEEK 2,14,TREATMENT,2013-01-31T23:30:00,17,Pre-dose,-0.5
380,CDISCPILOT01,IS,01-709-1168,1,ADA_BAB,Binding Antidrug Antibody,XANOMELINE,IMMUNOGENICITY,NEGATIVE,titer,NEGATIVE,,titer,,,Imaginary Labs,SERUM,Y,,3,BASELINE,1,TREATMENT,2013-08-01T23:30:00,-1,Pre-dose,-0.5
381,CDISCPILOT01,IS,01-709-1168,2,ADA_BAB,Binding Antidrug Antibody,XANOMELINE,IMMUNOGENICITY,NEGATIVE,titer,NEGATIVE,,titer,,,Imaginary Labs,SERUM,,,4,WEEK 2,14,TREATMENT,2013-08-17T23:30:00,16,Pre-dose,-0.5
382,CDISCPILOT01,IS,01-709-1217,1,ADA_BAB,Binding Antidrug Antibody,XANOMELINE,IMMUNOGENICITY,NEGATIVE,titer,NEGATIVE,,titer,,,Imaginary Labs,SERUM,Y,,3,BASELINE,1,TREATMENT,2013-03-03T23:30:00,-1,Pre-dose,-0.5
383,CDISCPILOT01,IS,01-709-1217,2,ADA_BAB,Binding Antidrug Antibody,XANOMELINE,IMMUNOGENICITY,1.55,titer,1.55,1.55,titer,,,Imaginary Labs,SERUM,,,4,WEEK 2,14,TREATMENT,2013-03-19T23:30:00,16,Pre-dose,-0.5
384,CDISCPILOT01,IS,01-709-1217,3,ADA_NAB,Neutralizing Binding Antidrug Antibody,XANOMELINE,IMMUNOGENICITY,NEGATIVE,,NEGATIVE,,,,,Imaginary Labs,SERUM,,,4,WEEK 2,14,TREATMENT,2013-03-19T23:30:00,16,Pre-dose,-0.5
385,CDISCPILOT01,IS,01-709-1238,1,ADA_BAB,Binding Antidrug Antibody,XANOMELINE,IMMUNOGENICITY,NEGATIVE,titer,NEGATIVE,,titer,,,Imaginary Labs,SERUM,Y,,3,BASELINE,1,TREATMENT,2013-05-14T23:30:00,-1,Pre-dose,-0.5
386,CDISCPILOT01,IS,01-709-1238,2,ADA_BAB,Binding Antidrug Antibody,XANOMELINE,IMMUNOGENICITY,1.41,titer,1.41,1.41,titer,,,Imaginary Labs,SERUM,,,4,WEEK 2,14,TREATMENT,2013-05-29T23:30:00,15,Pre-dose,-0.5
387,CDISCPILOT01,IS,01-709-1238,3,ADA_NAB,Neutralizing Binding Antidrug Antibody,XANOMELINE,IMMUNOGENICITY,NEGATIVE,,NEGATIVE,,,,,Imaginary Labs,SERUM,,,4,WEEK 2,14,TREATMENT,2013-05-29T23:30:00,15,Pre-dose,-0.5
388,CDISCPILOT01,IS,01-709-1259,1,ADA_BAB,Binding Antidrug Antibody,XANOMELINE,IMMUNOGENICITY,NEGATIVE,titer,NEGATIVE,,titer,,,Imaginary Labs,SERUM,Y,,3,BASELINE,1,TREATMENT,2013-01-25T23:30:00,-1,Pre-dose,-0.5
389,CDISCPILOT01,IS,01-709-1285,1,ADA_BAB,Binding Antidrug Antibody,XANOMELINE,IMMUNOGENICITY,1.42,titer,1.42,1.42,titer,,,Imaginary Labs,SERUM,Y,,3,BASELINE,1,TREATMENT,2013-03-23T23:30:00,-1,Pre-dose,-0.5
390,CDISCPILOT01,IS,01-709-1285,2,ADA_BAB,Binding Antidrug Antibody,XANOMELINE,IMMUNOGENICITY,2.45,titer,2.45,2.45,titer,,,Imaginary Labs,SERUM,,,4,WEEK 2,14,TREATMENT,2013-04-08T23:30:00,16,Pre-dose,-0.5
391,CDISCPILOT01,IS,01-709-1285,3,ADA_NAB,Neutralizing Binding Antidrug Antibody,XANOMELINE,IMMUNOGENICITY,NEGATIVE,,NEGATIVE,,,,,Imaginary Labs,SERUM,Y,,3,BASELINE,1,TREATMENT,2013-03-23T23:30:00,-1,Pre-dose,-0.5
392,CDISCPILOT01,IS,01-709-1285,4,ADA_NAB,Neutralizing Binding Antidrug Antibody,XANOMELINE,IMMUNOGENICITY,NEGATIVE,,NEGATIVE,,,,,Imaginary Labs,SERUM,,,4,WEEK 2,14,TREATMENT,2013-04-08T23:30:00,16,Pre-dose,-0.5
393,CDISCPILOT01,IS,01-709-1301,1,ADA_BAB,Binding Antidrug Antibody,XANOMELINE,IMMUNOGENICITY,1.53,titer,1.53,1.53,titer,,,Imaginary Labs,SERUM,Y,,3,BASELINE,1,TREATMENT,2013-07-18T23:30:00,-1,Pre-dose,-0.5
394,CDISCPILOT01,IS,01-709-1301,2,ADA_NAB,Neutralizing Binding Antidrug Antibody,XANOMELINE,IMMUNOGENICITY,NEGATIVE,,NEGATIVE,,,,,Imaginary Labs,SERUM,Y,,3,BASELINE,1,TREATMENT,2013-07-18T23:30:00,-1,Pre-dose,-0.5
395,CDISCPILOT01,IS,01-709-1306,1,ADA_BAB,Binding Antidrug Antibody,XANOMELINE,IMMUNOGENICITY,<1.40,titer,<1.40,,titer,,,Imaginary Labs,SERUM,Y,,3,BASELINE,1,TREATMENT,2014-02-02T23:30:00,-1,Pre-dose,-0.5
396,CDISCPILOT01,IS,01-709-1306,2,ADA_NAB,Neutralizing Binding Antidrug Antibody,XANOMELINE,IMMUNOGENICITY,NEGATIVE,,NEGATIVE,,,,,Imaginary Labs,SERUM,Y,,3,BASELINE,1,TREATMENT,2014-02-02T23:30:00,-1,Pre-dose,-0.5
397,CDISCPILOT01,IS,01-709-1309,1,ADA_BAB,Binding Antidrug Antibody,XANOMELINE,IMMUNOGENICITY,NEGATIVE,titer,NEGATIVE,,titer,,,Imaginary Labs,SERUM,Y,,3,BASELINE,1,TREATMENT,2013-06-18T23:30:00,-1,Pre-dose,-0.5
398,CDISCPILOT01,IS,01-709-1309,2,ADA_BAB,Binding Antidrug Antibody,XANOMELINE,IMMUNOGENICITY,1.44,titer,1.44,1.44,titer,,,Imaginary Labs,SERUM,,,4,WEEK 2,14,TREATMENT,2013-07-01T23:30:00,13,Pre-dose,-0.5
399,CDISCPILOT01,IS,01-709-1309,3,ADA_BAB,Binding Antidrug Antibody,XANOMELINE,IMMUNOGENICITY,1.52,titer,1.52,1.52,titer,,,Imaginary Labs,SERUM,,,12,WEEK 24,168,TREATMENT,2013-12-05T23:30:00,170,Pre-dose,-0.5
400,CDISCPILOT01,IS,01-709-1309,4,ADA_NAB,Neutralizing Binding Antidrug Antibody,XANOMELINE,IMMUNOGENICITY,NEGATIVE,,NEGATIVE,,,,,Imaginary Labs,SERUM,,,4,WEEK 2,14,TREATMENT,2013-07-01T23:30:00,13,Pre-dose,-0.5
401,CDISCPILOT01,IS,01-709-1309,5,ADA_NAB,Neutralizing Binding Antidrug Antibody,XANOMELINE,IMMUNOGENICITY,NEGATIVE,,NEGATIVE,,,,,Imaginary Labs,SERUM,,,12,WEEK 24,168,TREATMENT,2013-12-05T23:30:00,170,Pre-dose,-0.5
402,CDISCPILOT01,IS,01-709-1312,1,ADA_BAB,Binding Antidrug Antibody,XANOMELINE,IMMUNOGENICITY,NEGATIVE,titer,NEGATIVE,,titer,,,Imaginary Labs,SERUM,Y,,3,BASELINE,1,TREATMENT,2014-04-19T23:30:00,-1,Pre-dose,-0.5
403,CDISCPILOT01,IS,01-709-1326,1,ADA_BAB,Binding Antidrug Antibody,XANOMELINE,IMMUNOGENICITY,1.4,titer,1.4,1.4,titer,,,Imaginary Labs,SERUM,Y,,3,BASELINE,1,TREATMENT,2013-04-04T23:30:00,-1,Pre-dose,-0.5
404,CDISCPILOT01,IS,01-709-1326,2,ADA_BAB,Binding Antidrug Antibody,XANOMELINE,IMMUNOGENICITY,2.78,titer,2.78,2.78,titer,,,Imaginary Labs,SERUM,,,4,WEEK 2,14,TREATMENT,2013-04-18T23:30:00,14,Pre-dose,-0.5
405,CDISCPILOT01,IS,01-709-1326,3,ADA_BAB,Binding Antidrug Antibody,XANOMELINE,IMMUNOGENICITY,2.05,titer,2.05,2.05,titer,,,Imaginary Labs,SERUM,,,12,WEEK 24,168,TREATMENT,2013-09-20T23:30:00,169,Pre-dose,-0.5
406,CDISCPILOT01,IS,01-709-1326,4,ADA_NAB,Neutralizing Binding Antidrug Antibody,XANOMELINE,IMMUNOGENICITY,NEGATIVE,,NEGATIVE,,,,,Imaginary Labs,SERUM,Y,,3,BASELINE,1,TREATMENT,2013-04-04T23:30:00,-1,Pre-dose,-0.5
407,CDISCPILOT01,IS,01-709-1326,5,ADA_NAB,Neutralizing Binding Antidrug Antibody,XANOMELINE,IMMUNOGENICITY,,,,,,,,Imaginary Labs,SERUM,,,4,WEEK 2,14,TREATMENT,2013-04-18T23:30:00,14,Pre-dose,-0.5
408,CDISCPILOT01,IS,01-709-1326,6,ADA_NAB,Neutralizing Binding Antidrug Antibody,XANOMELINE,IMMUNOGENICITY,NEGATIVE,,NEGATIVE,,,,,Imaginary Labs,SERUM,,,12,WEEK 24,168,TREATMENT,2013-09-20T23:30:00,169,Pre-dose,-0.5
409,CDISCPILOT01,IS,01-709-1329,1,ADA_BAB,Binding Antidrug Antibody,XANOMELINE,IMMUNOGENICITY,NEGATIVE,titer,NEGATIVE,,titer,,,Imaginary Labs,SERUM,Y,,3,BASELINE,1,TREATMENT,2013-08-14T23:30:00,-1,Pre-dose,-0.5
410,CDISCPILOT01,IS,01-709-1339,1,ADA_BAB,Binding Antidrug Antibody,XANOMELINE,IMMUNOGENICITY,1.54,titer,1.54,1.54,titer,,,Imaginary Labs,SERUM,Y,,3,BASELINE,1,TREATMENT,2012-12-22T23:30:00,-1,Pre-dose,-0.5
411,CDISCPILOT01,IS,01-709-1339,2,ADA_NAB,Neutralizing Binding Antidrug Antibody,XANOMELINE,IMMUNOGENICITY,NEGATIVE,,NEGATIVE,,,,,Imaginary Labs,SERUM,Y,,3,BASELINE,1,TREATMENT,2012-12-22T23:30:00,-1,Pre-dose,-0.5
412,CDISCPILOT01,IS,01-709-1424,1,ADA_BAB,Binding Antidrug Antibody,XANOMELINE,IMMUNOGENICITY,1.45,titer,1.45,1.45,titer,,,Imaginary Labs,SERUM,Y,,3,BASELINE,1,TREATMENT,2013-03-02T23:30:00,-1,Pre-dose,-0.5
413,CDISCPILOT01,IS,01-709-1424,2,ADA_NAB,Neutralizing Binding Antidrug Antibody,XANOMELINE,IMMUNOGENICITY,NEGATIVE,,NEGATIVE,,,,,Imaginary Labs,SERUM,Y,,3,BASELINE,1,TREATMENT,2013-03-02T23:30:00,-1,Pre-dose,-0.5
414,CDISCPILOT01,IS,01-710-1002,1,ADA_BAB,Binding Antidrug Antibody,XANOMELINE,IMMUNOGENICITY,<1.40,titer,<1.40,,titer,,,Imaginary Labs,SERUM,Y,,3,BASELINE,1,TREATMENT,2014-01-13T23:30:00,-1,Pre-dose,-0.5
415,CDISCPILOT01,IS,01-710-1002,2,ADA_NAB,Neutralizing Binding Antidrug Antibody,XANOMELINE,IMMUNOGENICITY,NEGATIVE,,NEGATIVE,,,,,Imaginary Labs,SERUM,Y,,3,BASELINE,1,TREATMENT,2014-01-13T23:30:00,-1,Pre-dose,-0.5
416,CDISCPILOT01,IS,01-710-1006,1,ADA_BAB,Binding Antidrug Antibody,XANOMELINE,IMMUNOGENICITY,1.52,titer,1.52,1.52,titer,,,Imaginary Labs,SERUM,Y,,3,BASELINE,1,TREATMENT,2013-02-09T23:30:00,-1,Pre-dose,-0.5
417,CDISCPILOT01,IS,01-710-1006,2,ADA_BAB,Binding Antidrug Antibody,XANOMELINE,IMMUNOGENICITY,2.63,titer,2.63,2.63,titer,,,Imaginary Labs,SERUM,,,4,WEEK 2,14,TREATMENT,2013-02-22T23:30:00,13,Pre-dose,-0.5
418,CDISCPILOT01,IS,01-710-1006,3,ADA_BAB,Binding Antidrug Antibody,XANOMELINE,IMMUNOGENICITY,2.16,titer,2.16,2.16,titer,,,Imaginary Labs,SERUM,,,12,WEEK 24,168,TREATMENT,2013-07-27T23:30:00,168,Pre-dose,-0.5
419,CDISCPILOT01,IS,01-710-1006,4,ADA_NAB,Neutralizing Binding Antidrug Antibody,XANOMELINE,IMMUNOGENICITY,NEGATIVE,,NEGATIVE,,,,,Imaginary Labs,SERUM,Y,,3,BASELINE,1,TREATMENT,2013-02-09T23:30:00,-1,Pre-dose,-0.5
420,CDISCPILOT01,IS,01-710-1006,5,ADA_NAB,Neutralizing Binding Antidrug Antibody,XANOMELINE,IMMUNOGENICITY,NEGATIVE,,NEGATIVE,,,,,Imaginary Labs,SERUM,,,4,WEEK 2,14,TREATMENT,2013-02-22T23:30:00,13,Pre-dose,-0.5
421,CDISCPILOT01,IS,01-710-1006,6,ADA_NAB,Neutralizing Binding Antidrug Antibody,XANOMELINE,IMMUNOGENICITY,NEGATIVE,,NEGATIVE,,,,,Imaginary Labs,SERUM,,,12,WEEK 24,168,TREATMENT,2013-07-27T23:30:00,168,Pre-dose,-0.5
422,CDISCPILOT01,IS,01-710-1021,1,ADA_BAB,Binding Antidrug Antibody,XANOMELINE,IMMUNOGENICITY,NEGATIVE,titer,NEGATIVE,,titer,,,Imaginary Labs,SERUM,Y,,3,BASELINE,1,TREATMENT,2013-09-26T23:30:00,-1,Pre-dose,-0.5
423,CDISCPILOT01,IS,01-710-1021,2,ADA_BAB,Binding Antidrug Antibody,XANOMELINE,IMMUNOGENICITY,NEGATIVE,titer,NEGATIVE,,titer,,,Imaginary Labs,SERUM,,,4,WEEK 2,14,TREATMENT,2013-10-11T23:30:00,15,Pre-dose,-0.5
424,CDISCPILOT01,IS,01-710-1027,1,ADA_BAB,Binding Antidrug Antibody,XANOMELINE,IMMUNOGENICITY,1.42,titer,1.42,1.42,titer,,,Imaginary Labs,SERUM,Y,,3,BASELINE,1,TREATMENT,2014-02-27T23:30:00,-1,Pre-dose,-0.5
425,CDISCPILOT01,IS,01-710-1027,2,ADA_NAB,Neutralizing Binding Antidrug Antibody,XANOMELINE,IMMUNOGENICITY,NEGATIVE,,NEGATIVE,,,,,Imaginary Labs,SERUM,Y,,3,BASELINE,1,TREATMENT,2014-02-27T23:30:00,-1,Pre-dose,-0.5
426,CDISCPILOT01,IS,01-710-1045,1,ADA_BAB,Binding Antidrug Antibody,XANOMELINE,IMMUNOGENICITY,1.44,titer,1.44,1.44,titer,,,Imaginary Labs,SERUM,Y,,3,BASELINE,1,TREATMENT,2013-06-02T23:30:00,-1,Pre-dose,-0.5
427,CDISCPILOT01,IS,01-710-1045,2,ADA_BAB,Binding Antidrug Antibody,XANOMELINE,IMMUNOGENICITY,1.51,titer,1.51,1.51,titer,,,Imaginary Labs,SERUM,,,4,WEEK 2,14,TREATMENT,2013-06-17T23:30:00,15,Pre-dose,-0.5
428,CDISCPILOT01,IS,01-710-1045,3,ADA_NAB,Neutralizing Binding Antidrug Antibody,XANOMELINE,IMMUNOGENICITY,NEGATIVE,,NEGATIVE,,,,,Imaginary Labs,SERUM,Y,,3,BASELINE,1,TREATMENT,2013-06-02T23:30:00,-1,Pre-dose,-0.5
429,CDISCPILOT01,IS,01-710-1045,4,ADA_NAB,Neutralizing Binding Antidrug Antibody,XANOMELINE,IMMUNOGENICITY,NEGATIVE,,NEGATIVE,,,,,Imaginary Labs,SERUM,,,4,WEEK 2,14,TREATMENT,2013-06-17T23:30:00,15,Pre-dose,-0.5
430,CDISCPILOT01,IS,01-710-1053,1,ADA_BAB,Binding Antidrug Antibody,XANOMELINE,IMMUNOGENICITY,NEGATIVE,titer,NEGATIVE,,titer,,,Imaginary Labs,SERUM,Y,,3,BASELINE,1,TREATMENT,2012-12-25T23:30:00,-1,Pre-dose,-0.5
431,CDISCPILOT01,IS,01-710-1053,2,ADA_BAB,Binding Antidrug Antibody,XANOMELINE,IMMUNOGENICITY,NEGATIVE,titer,NEGATIVE,,titer,,,Imaginary Labs,SERUM,,,4,WEEK 2,14,TREATMENT,2013-01-09T23:30:00,15,Pre-dose,-0.5
432,CDISCPILOT01,IS,01-710-1060,1,ADA_BAB,Binding Antidrug Antibody,XANOMELINE,IMMUNOGENICITY,NEGATIVE,titer,NEGATIVE,,titer,,,Imaginary Labs,SERUM,Y,,3,BASELINE,1,TREATMENT,2012-12-31T23:30:00,-1,Pre-dose,-0.5
433,CDISCPILOT01,IS,01-710-1070,1,ADA_BAB,Binding Antidrug Antibody,XANOMELINE,IMMUNOGENICITY,1.44,titer,1.44,1.44,titer,,,Imaginary Labs,SERUM,Y,,3,BASELINE,1,TREATMENT,2012-09-07T23:30:00,-1,Pre-dose,-0.5
434,CDISCPILOT01,IS,01-710-1070,2,ADA_BAB,Binding Antidrug Antibody,XANOMELINE,IMMUNOGENICITY,1.43,titer,1.43,1.43,titer,,,Imaginary Labs,SERUM,,,4,WEEK 2,14,TREATMENT,2012-09-22T23:30:00,15,Pre-dose,-0.5
435,CDISCPILOT01,IS,01-710-1070,3,ADA_NAB,Neutralizing Binding Antidrug Antibody,XANOMELINE,IMMUNOGENICITY,NEGATIVE,,NEGATIVE,,,,,Imaginary Labs,SERUM,Y,,3,BASELINE,1,TREATMENT,2012-09-07T23:30:00,-1,Pre-dose,-0.5
436,CDISCPILOT01,IS,01-710-1070,4,ADA_NAB,Neutralizing Binding Antidrug Antibody,XANOMELINE,IMMUNOGENICITY,NEGATIVE,,NEGATIVE,,,,,Imaginary Labs,SERUM,,,4,WEEK 2,14,TREATMENT,2012-09-22T23:30:00,15,Pre-dose,-0.5
437,CDISCPILOT01,IS,01-710-1077,1,ADA_BAB,Binding Antidrug Antibody,XANOMELINE,IMMUNOGENICITY,NEGATIVE,titer,NEGATIVE,,titer,,,Imaginary Labs,SERUM,Y,,3,BASELINE,1,TREATMENT,2013-11-16T23:30:00,-1,Pre-dose,-0.5
438,CDISCPILOT01,IS,01-710-1078,1,ADA_BAB,Binding Antidrug Antibody,XANOMELINE,IMMUNOGENICITY,NEGATIVE,titer,NEGATIVE,,titer,,,Imaginary Labs,SERUM,Y,,3,BASELINE,1,TREATMENT,2013-09-16T23:30:00,-1,Pre-dose,-0.5
439,CDISCPILOT01,IS,01-710-1083,1,ADA_BAB,Binding Antidrug Antibody,XANOMELINE,IMMUNOGENICITY,1.6,titer,1.6,1.6,titer,,,Imaginary Labs,SERUM,Y,,3,BASELINE,1,TREATMENT,2013-07-21T23:30:00,-1,Pre-dose,-0.5
440,CDISCPILOT01,IS,01-710-1083,2,ADA_NAB,Neutralizing Binding Antidrug Antibody,XANOMELINE,IMMUNOGENICITY,NEGATIVE,,NEGATIVE,,,,,Imaginary Labs,SERUM,Y,,3,BASELINE,1,TREATMENT,2013-07-21T23:30:00,-1,Pre-dose,-0.5
441,CDISCPILOT01,IS,01-710-1137,1,ADA_BAB,Binding Antidrug Antibody,XANOMELINE,IMMUNOGENICITY,NEGATIVE,titer,NEGATIVE,,titer,,,Imaginary Labs,SERUM,Y,,3,BASELINE,1,TREATMENT,2013-10-10T23:30:00,-1,Pre-dose,-0.5
442,CDISCPILOT01,IS,01-710-1137,2,ADA_BAB,Binding Antidrug Antibody,XANOMELINE,IMMUNOGENICITY,1.41,titer,1.41,1.41,titer,,,Imaginary Labs,SERUM,,,4,WEEK 2,14,TREATMENT,2013-10-25T23:30:00,15,Pre-dose,-0.5
443,CDISCPILOT01,IS,01-710-1137,3,ADA_NAB,Neutralizing Binding Antidrug Antibody,XANOMELINE,IMMUNOGENICITY,NEGATIVE,,NEGATIVE,,,,,Imaginary Labs,SERUM,,,4,WEEK 2,14,TREATMENT,2013-10-25T23:30:00,15,Pre-dose,-0.5
444,CDISCPILOT01,IS,01-710-1142,1,ADA_BAB,Binding Antidrug Antibody,XANOMELINE,IMMUNOGENICITY,NEGATIVE,titer,NEGATIVE,,titer,,,Imaginary Labs,SERUM,Y,,3,BASELINE,1,TREATMENT,2012-10-01T23:30:00,-1,Pre-dose,-0.5
445,CDISCPILOT01,IS,01-710-1142,2,ADA_BAB,Binding Antidrug Antibody,XANOMELINE,IMMUNOGENICITY,NEGATIVE,titer,NEGATIVE,,titer,,,Imaginary Labs,SERUM,,,4,WEEK 2,14,TREATMENT,2012-10-16T23:30:00,15,Pre-dose,-0.5
446,CDISCPILOT01,IS,01-710-1154,1,ADA_BAB,Binding Antidrug Antibody,XANOMELINE,IMMUNOGENICITY,NEGATIVE,titer,NEGATIVE,,titer,,,Imaginary Labs,SERUM,Y,,3,BASELINE,1,TREATMENT,2014-03-28T23:30:00,-1,Pre-dose,-0.5
447,CDISCPILOT01,IS,01-710-1154,2,ADA_BAB,Binding Antidrug Antibody,XANOMELINE,IMMUNOGENICITY,1.59,titer,1.59,1.59,titer,,,Imaginary Labs,SERUM,,,4,WEEK 2,14,TREATMENT,2014-04-12T23:30:00,15,Pre-dose,-0.5
448,CDISCPILOT01,IS,01-710-1154,3,ADA_NAB,Neutralizing Binding Antidrug Antibody,XANOMELINE,IMMUNOGENICITY,NEGATIVE,,NEGATIVE,,,,,Imaginary Labs,SERUM,,,4,WEEK 2,14,TREATMENT,2014-04-12T23:30:00,15,Pre-dose,-0.5
449,CDISCPILOT01,IS,01-710-1166,1,ADA_BAB,Binding Antidrug Antibody,XANOMELINE,IMMUNOGENICITY,<1.40,titer,<1.40,,titer,,,Imaginary Labs,SERUM,Y,,3,BASELINE,1,TREATMENT,2012-11-29T23:30:00,-1,Pre-dose,-0.5
450,CDISCPILOT01,IS,01-710-1166,2,ADA_BAB,Binding Antidrug Antibody,XANOMELINE,IMMUNOGENICITY,1.54,titer,1.54,1.54,titer,,,Imaginary Labs,SERUM,,,4,WEEK 2,14,TREATMENT,2012-12-14T23:30:00,15,Pre-dose,-0.5
451,CDISCPILOT01,IS,01-710-1166,3,ADA_NAB,Neutralizing Binding Antidrug Antibody,XANOMELINE,IMMUNOGENICITY,NEGATIVE,,NEGATIVE,,,,,Imaginary Labs,SERUM,Y,,3,BASELINE,1,TREATMENT,2012-11-29T23:30:00,-1,Pre-dose,-0.5
452,CDISCPILOT01,IS,01-710-1166,4,ADA_NAB,Neutralizing Binding Antidrug Antibody,XANOMELINE,IMMUNOGENICITY,NEGATIVE,,NEGATIVE,,,,,Imaginary Labs,SERUM,,,4,WEEK 2,14,TREATMENT,2012-12-14T23:30:00,15,Pre-dose,-0.5
453,CDISCPILOT01,IS,01-710-1183,1,ADA_BAB,Binding Antidrug Antibody,XANOMELINE,IMMUNOGENICITY,1.4,titer,1.4,1.4,titer,,,Imaginary Labs,SERUM,Y,,3,BASELINE,1,TREATMENT,2013-11-15T23:30:00,-1,Pre-dose,-0.5
454,CDISCPILOT01,IS,01-710-1183,2,ADA_NAB,Neutralizing Binding Antidrug Antibody,XANOMELINE,IMMUNOGENICITY,NEGATIVE,,NEGATIVE,,,,,Imaginary Labs,SERUM,Y,,3,BASELINE,1,TREATMENT,2013-11-15T23:30:00,-1,Pre-dose,-0.5
455,CDISCPILOT01,IS,01-710-1187,1,ADA_BAB,Binding Antidrug Antibody,XANOMELINE,IMMUNOGENICITY,NEGATIVE,titer,NEGATIVE,,titer,,,Imaginary Labs,SERUM,Y,,3,BASELINE,1,TREATMENT,2012-11-09T23:30:00,-1,Pre-dose,-0.5
456,CDISCPILOT01,IS,01-710-1187,2,ADA_BAB,Binding Antidrug Antibody,XANOMELINE,IMMUNOGENICITY,NEGATIVE,titer,NEGATIVE,,titer,,,Imaginary Labs,SERUM,,,4,WEEK 2,14,TREATMENT,2012-11-24T23:30:00,15,Pre-dose,-0.5
457,CDISCPILOT01,IS,01-710-1187,3,ADA_BAB,Binding Antidrug Antibody,XANOMELINE,IMMUNOGENICITY,NEGATIVE,titer,NEGATIVE,,titer,,,Imaginary Labs,SERUM,,,12,WEEK 24,168,TREATMENT,2013-04-28T23:30:00,170,Pre-dose,-0.5
458,CDISCPILOT01,IS,01-710-1235,1,ADA_BAB,Binding Antidrug Antibody,XANOMELINE,IMMUNOGENICITY,NEGATIVE,titer,NEGATIVE,,titer,,,Imaginary Labs,SERUM,Y,,3,BASELINE,1,TREATMENT,2012-09-25T23:30:00,-1,Pre-dose,-0.5
459,CDISCPILOT01,IS,01-710-1235,2,ADA_BAB,Binding Antidrug Antibody,XANOMELINE,IMMUNOGENICITY,,,,,,,,Imaginary Labs,SERUM,,,4,WEEK 2,14,TREATMENT,2012-10-10T23:30:00,15,Pre-dose,-0.5
460,CDISCPILOT01,IS,01-710-1235,3,ADA_BAB,Binding Antidrug Antibody,XANOMELINE,IMMUNOGENICITY,NEGATIVE,titer,NEGATIVE,,titer,,,Imaginary Labs,SERUM,,,12,WEEK 24,168,TREATMENT,2013-03-13T23:30:00,169,Pre-dose,-0.5
461,CDISCPILOT01,IS,01-710-1249,1,ADA_BAB,Binding Antidrug Antibody,XANOMELINE,IMMUNOGENICITY,NEGATIVE,titer,NEGATIVE,,titer,,,Imaginary Labs,SERUM,Y,,3,BASELINE,1,TREATMENT,2013-12-27T23:30:00,-1,Pre-dose,-0.5
462,CDISCPILOT01,IS,01-710-1249,2,ADA_BAB,Binding Antidrug Antibody,XANOMELINE,IMMUNOGENICITY,1.59,titer,1.59,1.59,titer,,,Imaginary Labs,SERUM,,,4,WEEK 2,14,TREATMENT,2014-01-11T23:30:00,15,Pre-dose,-0.5
463,CDISCPILOT01,IS,01-710-1249,3,ADA_BAB,Binding Antidrug Antibody,XANOMELINE,IMMUNOGENICITY,NEGATIVE,titer,NEGATIVE,,titer,,,Imaginary Labs,SERUM,,,12,WEEK 24,168,TREATMENT,2014-06-14T23:30:00,169,Pre-dose,-0.5
464,CDISCPILOT01,IS,01-710-1249,4,ADA_NAB,Neutralizing Binding Antidrug Antibody,XANOMELINE,IMMUNOGENICITY,NEGATIVE,,NEGATIVE,,,,,Imaginary Labs,SERUM,,,4,WEEK 2,14,TREATMENT,2014-01-11T23:30:00,15,Pre-dose,-0.5
465,CDISCPILOT01,IS,01-710-1264,1,ADA_BAB,Binding Antidrug Antibody,XANOMELINE,IMMUNOGENICITY,NEGATIVE,titer,NEGATIVE,,titer,,,Imaginary Labs,SERUM,Y,,3,BASELINE,1,TREATMENT,2013-06-12T23:30:00,-1,Pre-dose,-0.5
466,CDISCPILOT01,IS,01-710-1270,1,ADA_BAB,Binding Antidrug Antibody,XANOMELINE,IMMUNOGENICITY,1.59,titer,1.59,1.59,titer,,,Imaginary Labs,SERUM,Y,,3,BASELINE,1,TREATMENT,2014-02-11T23:30:00,-1,Pre-dose,-0.5
467,CDISCPILOT01,IS,01-710-1270,2,ADA_NAB,Neutralizing Binding Antidrug Antibody,XANOMELINE,IMMUNOGENICITY,POSITIVE,,POSITIVE,,,,,Imaginary Labs,SERUM,Y,,3,BASELINE,1,TREATMENT,2014-02-11T23:30:00,-1,Pre-dose,-0.5
468,CDISCPILOT01,IS,01-710-1271,1,ADA_BAB,Binding Antidrug Antibody,XANOMELINE,IMMUNOGENICITY,NEGATIVE,titer,NEGATIVE,,titer,,,Imaginary Labs,SERUM,Y,,3,BASELINE,1,TREATMENT,2012-09-26T23:30:00,-1,Pre-dose,-0.5
469,CDISCPILOT01,IS,01-710-1278,1,ADA_BAB,Binding Antidrug Antibody,XANOMELINE,IMMUNOGENICITY,NEGATIVE,titer,NEGATIVE,,titer,,,Imaginary Labs,SERUM,Y,,3,BASELINE,1,TREATMENT,2012-12-23T23:30:00,-1,Pre-dose,-0.5
470,CDISCPILOT01,IS,01-710-1278,2,ADA_BAB,Binding Antidrug Antibody,XANOMELINE,IMMUNOGENICITY,<1.40,titer,<1.40,,titer,,,Imaginary Labs,SERUM,,,4,WEEK 2,14,TREATMENT,2013-01-07T23:30:00,15,Pre-dose,-0.5
471,CDISCPILOT01,IS,01-710-1278,3,ADA_NAB,Neutralizing Binding Antidrug Antibody,XANOMELINE,IMMUNOGENICITY,NEGATIVE,,NEGATIVE,,,,,Imaginary Labs,SERUM,,,4,WEEK 2,14,TREATMENT,2013-01-07T23:30:00,15,Pre-dose,-0.5
472,CDISCPILOT01,IS,01-710-1300,1,ADA_BAB,Binding Antidrug Antibody,XANOMELINE,IMMUNOGENICITY,NEGATIVE,titer,NEGATIVE,,titer,,,Imaginary Labs,SERUM,Y,,3,BASELINE,1,TREATMENT,2012-12-14T23:30:00,-1,Pre-dose,-0.5
473,CDISCPILOT01,IS,01-710-1300,2,ADA_BAB,Binding Antidrug Antibody,XANOMELINE,IMMUNOGENICITY,NEGATIVE,titer,NEGATIVE,,titer,,,Imaginary Labs,SERUM,,,4,WEEK 2,14,TREATMENT,2012-12-30T23:30:00,16,Pre-dose,-0.5
474,CDISCPILOT01,IS,01-710-1314,1,ADA_BAB,Binding Antidrug Antibody,XANOMELINE,IMMUNOGENICITY,<1.40,titer,<1.40,,titer,,,Imaginary Labs,SERUM,Y,,3,BASELINE,1,TREATMENT,2013-04-23T23:30:00,-1,Pre-dose,-0.5
475,CDISCPILOT01,IS,01-710-1314,2,ADA_NAB,Neutralizing Binding Antidrug Antibody,XANOMELINE,IMMUNOGENICITY,NEGATIVE,,NEGATIVE,,,,,Imaginary Labs,SERUM,Y,,3,BASELINE,1,TREATMENT,2013-04-23T23:30:00,-1,Pre-dose,-0.5
476,CDISCPILOT01,IS,01-710-1315,1,ADA_BAB,Binding Antidrug Antibody,XANOMELINE,IMMUNOGENICITY,1.48,titer,1.48,1.48,titer,,,Imaginary Labs,SERUM,Y,,3,BASELINE,1,TREATMENT,2013-02-26T23:30:00,-1,Pre-dose,-0.5
477,CDISCPILOT01,IS,01-710-1315,2,ADA_NAB,Neutralizing Binding Antidrug Antibody,XANOMELINE,IMMUNOGENICITY,NEGATIVE,,NEGATIVE,,,,,Imaginary Labs,SERUM,Y,,3,BASELINE,1,TREATMENT,2013-02-26T23:30:00,-1,Pre-dose,-0.5
478,CDISCPILOT01,IS,01-710-1354,1,ADA_BAB,Binding Antidrug Antibody,XANOMELINE,IMMUNOGENICITY,1.48,titer,1.48,1.48,titer,,,Imaginary Labs,SERUM,Y,,3,BASELINE,1,TREATMENT,2012-11-10T23:30:00,-1,Pre-dose,-0.5
479,CDISCPILOT01,IS,01-710-1354,2,ADA_BAB,Binding Antidrug Antibody,XANOMELINE,IMMUNOGENICITY,1.41,titer,1.41,1.41,titer,,,Imaginary Labs,SERUM,,,4,WEEK 2,14,TREATMENT,2012-11-25T23:30:00,15,Pre-dose,-0.5
480,CDISCPILOT01,IS,01-710-1354,3,ADA_BAB,Binding Antidrug Antibody,XANOMELINE,IMMUNOGENICITY,1.45,titer,1.45,1.45,titer,,,Imaginary Labs,SERUM,,,12,WEEK 24,168,TREATMENT,2013-04-21T23:30:00,162,Pre-dose,-0.5
481,CDISCPILOT01,IS,01-710-1354,4,ADA_NAB,Neutralizing Binding Antidrug Antibody,XANOMELINE,IMMUNOGENICITY,NEGATIVE,,NEGATIVE,,,,,Imaginary Labs,SERUM,Y,,3,BASELINE,1,TREATMENT,2012-11-10T23:30:00,-1,Pre-dose,-0.5
482,CDISCPILOT01,IS,01-710-1354,5,ADA_NAB,Neutralizing Binding Antidrug Antibody,XANOMELINE,IMMUNOGENICITY,NEGATIVE,,NEGATIVE,,,,,Imaginary Labs,SERUM,,,4,WEEK 2,14,TREATMENT,2012-11-25T23:30:00,15,Pre-dose,-0.5
483,CDISCPILOT01,IS,01-710-1354,6,ADA_NAB,Neutralizing Binding Antidrug Antibody,XANOMELINE,IMMUNOGENICITY,NEGATIVE,,NEGATIVE,,,,,Imaginary Labs,SERUM,,,12,WEEK 24,168,TREATMENT,2013-04-21T23:30:00,162,Pre-dose,-0.5
484,CDISCPILOT01,IS,01-710-1358,1,ADA_BAB,Binding Antidrug Antibody,XANOMELINE,IMMUNOGENICITY,NEGATIVE,titer,NEGATIVE,,titer,,,Imaginary Labs,SERUM,Y,,3,BASELINE,1,TREATMENT,2012-09-16T23:30:00,-1,Pre-dose,-0.5
485,CDISCPILOT01,IS,01-710-1358,2,ADA_BAB,Binding Antidrug Antibody,XANOMELINE,IMMUNOGENICITY,NEGATIVE,titer,NEGATIVE,,titer,,,Imaginary Labs,SERUM,,,4,WEEK 2,14,TREATMENT,2012-10-01T23:30:00,15,Pre-dose,-0.5
486,CDISCPILOT01,IS,01-710-1368,1,ADA_BAB,Binding Antidrug Antibody,XANOMELINE,IMMUNOGENICITY,1.42,titer,1.42,1.42,titer,,,Imaginary Labs,SERUM,Y,,3,BASELINE,1,TREATMENT,2013-10-22T23:30:00,-1,Pre-dose,-0.5
487,CDISCPILOT01,IS,01-710-1368,2,ADA_NAB,Neutralizing Binding Antidrug Antibody,XANOMELINE,IMMUNOGENICITY,NEGATIVE,,NEGATIVE,,,,,Imaginary Labs,SERUM,Y,,3,BASELINE,1,TREATMENT,2013-10-22T23:30:00,-1,Pre-dose,-0.5
488,CDISCPILOT01,IS,01-710-1385,1,ADA_BAB,Binding Antidrug Antibody,XANOMELINE,IMMUNOGENICITY,NEGATIVE,titer,NEGATIVE,,titer,,,Imaginary Labs,SERUM,Y,,3,BASELINE,1,TREATMENT,2012-10-28T23:30:00,-1,Pre-dose,-0.5
489,CDISCPILOT01,IS,01-710-1385,2,ADA_BAB,Binding Antidrug Antibody,XANOMELINE,IMMUNOGENICITY,NEGATIVE,titer,NEGATIVE,,titer,,,Imaginary Labs,SERUM,,,4,WEEK 2,14,TREATMENT,2012-11-12T23:30:00,15,Pre-dose,-0.5
490,CDISCPILOT01,IS,01-710-1408,1,ADA_BAB,Binding Antidrug Antibody,XANOMELINE,IMMUNOGENICITY,1.59,titer,1.59,1.59,titer,,,Imaginary Labs,SERUM,Y,,3,BASELINE,1,TREATMENT,2013-01-04T23:30:00,-1,Pre-dose,-0.5
491,CDISCPILOT01,IS,01-710-1408,2,ADA_BAB,Binding Antidrug Antibody,XANOMELINE,IMMUNOGENICITY,<1.40,titer,<1.40,,titer,,,Imaginary Labs,SERUM,,,4,WEEK 2,14,TREATMENT,2013-01-24T23:30:00,20,Pre-dose,-0.5
492,CDISCPILOT01,IS,01-710-1408,3,ADA_BAB,Binding Antidrug Antibody,XANOMELINE,IMMUNOGENICITY,1.54,titer,1.54,1.54,titer,,,Imaginary Labs,SERUM,,,12,WEEK 24,168,TREATMENT,2013-06-28T23:30:00,175,Pre-dose,-0.5
493,CDISCPILOT01,IS,01-710-1408,4,ADA_NAB,Neutralizing Binding Antidrug Antibody,XANOMELINE,IMMUNOGENICITY,NEGATIVE,,NEGATIVE,,,,,Imaginary Labs,SERUM,Y,,3,BASELINE,1,TREATMENT,2013-01-04T23:30:00,-1,Pre-dose,-0.5
494,CDISCPILOT01,IS,01-710-1408,5,ADA_NAB,Neutralizing Binding Antidrug Antibody,XANOMELINE,IMMUNOGENICITY,NEGATIVE,,NEGATIVE,,,,,Imaginary Labs,SERUM,,,4,WEEK 2,14,TREATMENT,2013-01-24T23:30:00,20,Pre-dose,-0.5
495,CDISCPILOT01,IS,01-710-1408,6,ADA_NAB,Neutralizing Binding Antidrug Antibody,XANOMELINE,IMMUNOGENICITY,NEGATIVE,,NEGATIVE,,,,,Imaginary Labs,SERUM,,,12,WEEK 24,168,TREATMENT,2013-06-28T23:30:00,175,Pre-dose,-0.5
496,CDISCPILOT01,IS,01-711-1012,1,ADA_BAB,Binding Antidrug Antibody,XANOMELINE,IMMUNOGENICITY,<1.40,titer,<1.40,,titer,,,Imaginary Labs,SERUM,Y,,3,BASELINE,1,TREATMENT,2013-04-02T23:30:00,-1,Pre-dose,-0.5
497,CDISCPILOT01,IS,01-711-1012,2,ADA_BAB,Binding Antidrug Antibody,XANOMELINE,IMMUNOGENICITY,1.49,titer,1.49,1.49,titer,,,Imaginary Labs,SERUM,,,4,WEEK 2,14,TREATMENT,2013-04-17T23:30:00,15,Pre-dose,-0.5
498,CDISCPILOT01,IS,01-711-1012,3,ADA_NAB,Neutralizing Binding Antidrug Antibody,XANOMELINE,IMMUNOGENICITY,NEGATIVE,,NEGATIVE,,,,,Imaginary Labs,SERUM,Y,,3,BASELINE,1,TREATMENT,2013-04-02T23:30:00,-1,Pre-dose,-0.5
499,CDISCPILOT01,IS,01-711-1012,4,ADA_NAB,Neutralizing Binding Antidrug Antibody,XANOMELINE,IMMUNOGENICITY,NEGATIVE,,NEGATIVE,,,,,Imaginary Labs,SERUM,,,4,WEEK 2,14,TREATMENT,2013-04-17T23:30:00,15,Pre-dose,-0.5
500,CDISCPILOT01,IS,01-711-1036,1,ADA_BAB,Binding Antidrug Antibody,XANOMELINE,IMMUNOGENICITY,NEGATIVE,titer,NEGATIVE,,titer,,,Imaginary Labs,SERUM,Y,,3,BASELINE,1,TREATMENT,2012-07-28T23:30:00,-1,Pre-dose,-0.5
501,CDISCPILOT01,IS,01-711-1143,1,ADA_BAB,Binding Antidrug Antibody,XANOMELINE,IMMUNOGENICITY,NEGATIVE,titer,NEGATIVE,,titer,,,Imaginary Labs,SERUM,Y,,3,BASELINE,1,TREATMENT,2013-04-02T23:30:00,-1,Pre-dose,-0.5
502,CDISCPILOT01,IS,01-711-1143,2,ADA_BAB,Binding Antidrug Antibody,XANOMELINE,IMMUNOGENICITY,NEGATIVE,titer,NEGATIVE,,titer,,,Imaginary Labs,SERUM,,,4,WEEK 2,14,TREATMENT,2013-04-17T23:30:00,15,Pre-dose,-0.5
503,CDISCPILOT01,IS,01-711-1433,1,ADA_BAB,Binding Antidrug Antibody,XANOMELINE,IMMUNOGENICITY,1.5,titer,1.5,1.5,titer,,,Imaginary Labs,SERUM,Y,,3,BASELINE,1,TREATMENT,2013-01-26T23:30:00,-1,Pre-dose,-0.5
504,CDISCPILOT01,IS,01-711-1433,2,ADA_NAB,Neutralizing Binding Antidrug Antibody,XANOMELINE,IMMUNOGENICITY,NEGATIVE,,NEGATIVE,,,,,Imaginary Labs,SERUM,Y,,3,BASELINE,1,TREATMENT,2013-01-26T23:30:00,-1,Pre-dose,-0.5
505,CDISCPILOT01,IS,01-713-1043,1,ADA_BAB,Binding Antidrug Antibody,XANOMELINE,IMMUNOGENICITY,NEGATIVE,titer,NEGATIVE,,titer,,,Imaginary Labs,SERUM,Y,,3,BASELINE,1,TREATMENT,2013-09-14T23:30:00,-1,Pre-dose,-0.5
506,CDISCPILOT01,IS,01-713-1043,2,ADA_BAB,Binding Antidrug Antibody,XANOMELINE,IMMUNOGENICITY,1.41,titer,1.41,1.41,titer,,,Imaginary Labs,SERUM,,,4,WEEK 2,14,TREATMENT,2013-09-30T23:30:00,16,Pre-dose,-0.5
507,CDISCPILOT01,IS,01-713-1043,3,ADA_BAB,Binding Antidrug Antibody,XANOMELINE,IMMUNOGENICITY,1.56,titer,1.56,1.56,titer,,,Imaginary Labs,SERUM,,,12,WEEK 24,168,TREATMENT,2014-02-28T23:30:00,167,Pre-dose,-0.5
508,CDISCPILOT01,IS,01-713-1043,4,ADA_NAB,Neutralizing Binding Antidrug Antibody,XANOMELINE,IMMUNOGENICITY,NEGATIVE,,NEGATIVE,,,,,Imaginary Labs,SERUM,,,4,WEEK 2,14,TREATMENT,2013-09-30T23:30:00,16,Pre-dose,-0.5
509,CDISCPILOT01,IS,01-713-1043,5,ADA_NAB,Neutralizing Binding Antidrug Antibody,XANOMELINE,IMMUNOGENICITY,NEGATIVE,,NEGATIVE,,,,,Imaginary Labs,SERUM,,,12,WEEK 24,168,TREATMENT,2014-02-28T23:30:00,167,Pre-dose,-0.5
510,CDISCPILOT01,IS,01-713-1073,1,ADA_BAB,Binding Antidrug Antibody,XANOMELINE,IMMUNOGENICITY,NEGATIVE,titer,NEGATIVE,,titer,,,Imaginary Labs,SERUM,Y,,3,BASELINE,1,TREATMENT,2014-03-29T23:30:00,-1,Pre-dose,-0.5
511,CDISCPILOT01,IS,01-713-1073,2,ADA_BAB,Binding Antidrug Antibody,XANOMELINE,IMMUNOGENICITY,NEGATIVE,titer,NEGATIVE,,titer,,,Imaginary Labs,SERUM,,,4,WEEK 2,14,TREATMENT,2014-04-14T23:30:00,16,Pre-dose,-0.5
512,CDISCPILOT01,IS,01-713-1073,3,ADA_BAB,Binding Antidrug Antibody,XANOMELINE,IMMUNOGENICITY,NEGATIVE,titer,NEGATIVE,,titer,,,Imaginary Labs,SERUM,,,12,WEEK 24,168,TREATMENT,2014-09-21T23:30:00,176,Pre-dose,-0.5
513,CDISCPILOT01,IS,01-713-1106,1,ADA_BAB,Binding Antidrug Antibody,XANOMELINE,IMMUNOGENICITY,1.41,titer,1.41,1.41,titer,,,Imaginary Labs,SERUM,Y,,3,BASELINE,1,TREATMENT,2012-10-30T23:30:00,-1,Pre-dose,-0.5
514,CDISCPILOT01,IS,01-713-1106,2,ADA_BAB,Binding Antidrug Antibody,XANOMELINE,IMMUNOGENICITY,<1.40,titer,<1.40,,titer,,,Imaginary Labs,SERUM,,,4,WEEK 2,14,TREATMENT,2012-11-15T23:30:00,16,Pre-dose,-0.5
515,CDISCPILOT01,IS,01-713-1106,3,ADA_BAB,Binding Antidrug Antibody,XANOMELINE,IMMUNOGENICITY,1.49,titer,1.49,1.49,titer,,,Imaginary Labs,SERUM,,,12,WEEK 24,168,TREATMENT,2013-04-22T23:30:00,174,Pre-dose,-0.5
516,CDISCPILOT01,IS,01-713-1106,4,ADA_NAB,Neutralizing Binding Antidrug Antibody,XANOMELINE,IMMUNOGENICITY,NEGATIVE,,NEGATIVE,,,,,Imaginary Labs,SERUM,Y,,3,BASELINE,1,TREATMENT,2012-10-30T23:30:00,-1,Pre-dose,-0.5
517,CDISCPILOT01,IS,01-713-1106,5,ADA_NAB,Neutralizing Binding Antidrug Antibody,XANOMELINE,IMMUNOGENICITY,NEGATIVE,,NEGATIVE,,,,,Imaginary Labs,SERUM,,,4,WEEK 2,14,TREATMENT,2012-11-15T23:30:00,16,Pre-dose,-0.5
518,CDISCPILOT01,IS,01-713-1106,6,ADA_NAB,Neutralizing Binding Antidrug Antibody,XANOMELINE,IMMUNOGENICITY,NEGATIVE,,NEGATIVE,,,,,Imaginary Labs,SERUM,,,12,WEEK 24,168,TREATMENT,2013-04-22T23:30:00,174,Pre-dose,-0.5
519,CDISCPILOT01,IS,01-713-1141,1,ADA_BAB,Binding Antidrug Antibody,XANOMELINE,IMMUNOGENICITY,1.45,titer,1.45,1.45,titer,,,Imaginary Labs,SERUM,Y,,3,BASELINE,1,TREATMENT,2013-05-30T23:30:00,-1,Pre-dose,-0.5
520,CDISCPILOT01,IS,01-713-1141,2,ADA_BAB,Binding Antidrug Antibody,XANOMELINE,IMMUNOGENICITY,2.81,titer,2.81,2.81,titer,,,Imaginary Labs,SERUM,,,4,WEEK 2,14,TREATMENT,2013-06-14T23:30:00,15,Pre-dose,-0.5
521,CDISCPILOT01,IS,01-713-1141,3,ADA_NAB,Neutralizing Binding Antidrug Antibody,XANOMELINE,IMMUNOGENICITY,NEGATIVE,,NEGATIVE,,,,,Imaginary Labs,SERUM,Y,,3,BASELINE,1,TREATMENT,2013-05-30T23:30:00,-1,Pre-dose,-0.5
522,CDISCPILOT01,IS,01-713-1141,4,ADA_NAB,Neutralizing Binding Antidrug Antibody,XANOMELINE,IMMUNOGENICITY,NEGATIVE,,NEGATIVE,,,,,Imaginary Labs,SERUM,,,4,WEEK 2,14,TREATMENT,2013-06-14T23:30:00,15,Pre-dose,-0.5
523,CDISCPILOT01,IS,01-713-1179,1,ADA_BAB,Binding Antidrug Antibody,XANOMELINE,IMMUNOGENICITY,1.4,titer,1.4,1.4,titer,,,Imaginary Labs,SERUM,Y,,3,BASELINE,1,TREATMENT,2013-08-08T23:30:00,-1,Pre-dose,-0.5
524,CDISCPILOT01,IS,01-713-1179,2,ADA_NAB,Neutralizing Binding Antidrug Antibody,XANOMELINE,IMMUNOGENICITY,NEGATIVE,,NEGATIVE,,,,,Imaginary Labs,SERUM,Y,,3,BASELINE,1,TREATMENT,2013-08-08T23:30:00,-1,Pre-dose,-0.5
525,CDISCPILOT01,IS,01-713-1209,1,ADA_BAB,Binding Antidrug Antibody,XANOMELINE,IMMUNOGENICITY,NEGATIVE,titer,NEGATIVE,,titer,,,Imaginary Labs,SERUM,Y,,3,BASELINE,1,TREATMENT,2013-05-26T23:30:00,-1,Pre-dose,-0.5
526,CDISCPILOT01,IS,01-713-1209,2,ADA_BAB,Binding Antidrug Antibody,XANOMELINE,IMMUNOGENICITY,NEGATIVE,titer,NEGATIVE,,titer,,,Imaginary Labs,SERUM,,,4,WEEK 2,14,TREATMENT,2013-06-14T23:30:00,19,Pre-dose,-0.5
527,CDISCPILOT01,IS,01-713-1209,3,ADA_BAB,Binding Antidrug Antibody,XANOMELINE,IMMUNOGENICITY,NEGATIVE,titer,NEGATIVE,,titer,,,Imaginary Labs,SERUM,,,12,WEEK 24,168,TREATMENT,2013-11-14T23:30:00,172,Pre-dose,-0.5
528,CDISCPILOT01,IS,01-713-1256,1,ADA_BAB,Binding Antidrug Antibody,XANOMELINE,IMMUNOGENICITY,NEGATIVE,titer,NEGATIVE,,titer,,,Imaginary Labs,SERUM,Y,,3,BASELINE,1,TREATMENT,2012-09-18T23:30:00,-1,Pre-dose,-0.5
529,CDISCPILOT01,IS,01-713-1269,1,ADA_BAB,Binding Antidrug Antibody,XANOMELINE,IMMUNOGENICITY,NEGATIVE,titer,NEGATIVE,,titer,,,Imaginary Labs,SERUM,Y,,3,BASELINE,1,TREATMENT,2014-01-26T23:30:00,-1,Pre-dose,-0.5
530,CDISCPILOT01,IS,01-713-1448,1,ADA_BAB,Binding Antidrug Antibody,XANOMELINE,IMMUNOGENICITY,NEGATIVE,titer,NEGATIVE,,titer,,,Imaginary Labs,SERUM,Y,,3,BASELINE,1,TREATMENT,2014-01-18T23:30:00,-1,Pre-dose,-0.5
531,CDISCPILOT01,IS,01-713-1448,2,ADA_BAB,Binding Antidrug Antibody,XANOMELINE,IMMUNOGENICITY,NEGATIVE,titer,NEGATIVE,,titer,,,Imaginary Labs,SERUM,,,4,WEEK 2,14,TREATMENT,2014-02-01T23:30:00,14,Pre-dose,-0.5
532,CDISCPILOT01,IS,01-714-1035,1,ADA_BAB,Binding Antidrug Antibody,XANOMELINE,IMMUNOGENICITY,NEGATIVE,titer,NEGATIVE,,titer,,,Imaginary Labs,SERUM,Y,,3,BASELINE,1,TREATMENT,2014-04-16T23:30:00,-1,Pre-dose,-0.5
533,CDISCPILOT01,IS,01-714-1068,1,ADA_BAB,Binding Antidrug Antibody,XANOMELINE,IMMUNOGENICITY,1.42,titer,1.42,1.42,titer,,,Imaginary Labs,SERUM,Y,,3,BASELINE,1,TREATMENT,2013-08-07T23:30:00,-1,Pre-dose,-0.5
534,CDISCPILOT01,IS,01-714-1068,2,ADA_BAB,Binding Antidrug Antibody,XANOMELINE,IMMUNOGENICITY,2.46,titer,2.46,2.46,titer,,,Imaginary Labs,SERUM,,,4,WEEK 2,14,TREATMENT,2013-08-22T23:30:00,15,Pre-dose,-0.5
535,CDISCPILOT01,IS,01-714-1068,3,ADA_NAB,Neutralizing Binding Antidrug Antibody,XANOMELINE,IMMUNOGENICITY,NEGATIVE,,NEGATIVE,,,,,Imaginary Labs,SERUM,Y,,3,BASELINE,1,TREATMENT,2013-08-07T23:30:00,-1,Pre-dose,-0.5
536,CDISCPILOT01,IS,01-714-1068,4,ADA_NAB,Neutralizing Binding Antidrug Antibody,XANOMELINE,IMMUNOGENICITY,NEGATIVE,,NEGATIVE,,,,,Imaginary Labs,SERUM,,,4,WEEK 2,14,TREATMENT,2013-08-22T23:30:00,15,Pre-dose,-0.5
537,CDISCPILOT01,IS,01-714-1195,1,ADA_BAB,Binding Antidrug Antibody,XANOMELINE,IMMUNOGENICITY,1.52,titer,1.52,1.52,titer,,,Imaginary Labs,SERUM,Y,,3,BASELINE,1,TREATMENT,2013-04-25T23:30:00,-1,Pre-dose,-0.5
538,CDISCPILOT01,IS,01-714-1195,2,ADA_BAB,Binding Antidrug Antibody,XANOMELINE,IMMUNOGENICITY,1.57,titer,1.57,1.57,titer,,,Imaginary Labs,SERUM,,,4,WEEK 2,14,TREATMENT,2013-05-09T23:30:00,14,Pre-dose,-0.5
539,CDISCPILOT01,IS,01-714-1195,3,ADA_BAB,Binding Antidrug Antibody,XANOMELINE,IMMUNOGENICITY,1.52,titer,1.52,1.52,titer,,,Imaginary Labs,SERUM,,,12,WEEK 24,168,TREATMENT,2013-10-10T23:30:00,168,Pre-dose,-0.5
540,CDISCPILOT01,IS,01-714-1195,4,ADA_NAB,Neutralizing Binding Antidrug Antibody,XANOMELINE,IMMUNOGENICITY,NEGATIVE,,NEGATIVE,,,,,Imaginary Labs,SERUM,Y,,3,BASELINE,1,TREATMENT,2013-04-25T23:30:00,-1,Pre-dose,-0.5
541,CDISCPILOT01,IS,01-714-1195,5,ADA_NAB,Neutralizing Binding Antidrug Antibody,XANOMELINE,IMMUNOGENICITY,NEGATIVE,,NEGATIVE,,,,,Imaginary Labs,SERUM,,,4,WEEK 2,14,TREATMENT,2013-05-09T23:30:00,14,Pre-dose,-0.5
542,CDISCPILOT01,IS,01-714-1195,6,ADA_NAB,Neutralizing Binding Antidrug Antibody,XANOMELINE,IMMUNOGENICITY,NEGATIVE,,NEGATIVE,,,,,Imaginary Labs,SERUM,,,12,WEEK 24,168,TREATMENT,2013-10-10T23:30:00,168,Pre-dose,-0.5
543,CDISCPILOT01,IS,01-714-1288,1,ADA_BAB,Binding Antidrug Antibody,XANOMELINE,IMMUNOGENICITY,NEGATIVE,titer,NEGATIVE,,titer,,,Imaginary Labs,SERUM,Y,,3,BASELINE,1,TREATMENT,2013-12-03T23:30:00,-1,Pre-dose,-0.5
544,CDISCPILOT01,IS,01-714-1288,2,ADA_BAB,Binding Antidrug Antibody,XANOMELINE,IMMUNOGENICITY,NEGATIVE,titer,NEGATIVE,,titer,,,Imaginary Labs,SERUM,,,4,WEEK 2,14,TREATMENT,2013-12-17T23:30:00,14,Pre-dose,-0.5
545,CDISCPILOT01,IS,01-714-1288,3,ADA_BAB,Binding Antidrug Antibody,XANOMELINE,IMMUNOGENICITY,NEGATIVE,titer,NEGATIVE,,titer,,,Imaginary Labs,SERUM,,,12,WEEK 24,168,TREATMENT,2014-05-27T23:30:00,175,Pre-dose,-0.5
546,CDISCPILOT01,IS,01-714-1375,1,ADA_BAB,Binding Antidrug Antibody,XANOMELINE,IMMUNOGENICITY,NEGATIVE,titer,NEGATIVE,,titer,,,Imaginary Labs,SERUM,Y,,3,BASELINE,1,TREATMENT,2013-02-25T23:30:00,-1,Pre-dose,-0.5
547,CDISCPILOT01,IS,01-714-1425,1,ADA_BAB,Binding Antidrug Antibody,XANOMELINE,IMMUNOGENICITY,NEGATIVE,titer,NEGATIVE,,titer,,,Imaginary Labs,SERUM,Y,,3,BASELINE,1,TREATMENT,2013-08-14T23:30:00,-1,Pre-dose,-0.5
548,CDISCPILOT01,IS,01-715-1085,1,ADA_BAB,Binding Antidrug Antibody,XANOMELINE,IMMUNOGENICITY,<1.40,titer,<1.40,,titer,,,Imaginary Labs,SERUM,Y,,3,BASELINE,1,TREATMENT,2013-02-15T23:30:00,-1,Pre-dose,-0.5
549,CDISCPILOT01,IS,01-715-1085,2,ADA_BAB,Binding Antidrug Antibody,XANOMELINE,IMMUNOGENICITY,1.48,titer,1.48,1.48,titer,,,Imaginary Labs,SERUM,,,4,WEEK 2,14,TREATMENT,2013-03-04T23:30:00,17,Pre-dose,-0.5
550,CDISCPILOT01,IS,01-715-1085,3,ADA_BAB,Binding Antidrug Antibody,XANOMELINE,IMMUNOGENICITY,1.55,titer,1.55,1.55,titer,,,Imaginary Labs,SERUM,,,12,WEEK 24,168,TREATMENT,2013-08-04T23:30:00,170,Pre-dose,-0.5
551,CDISCPILOT01,IS,01-715-1085,4,ADA_NAB,Neutralizing Binding Antidrug Antibody,XANOMELINE,IMMUNOGENICITY,NEGATIVE,,NEGATIVE,,,,,Imaginary Labs,SERUM,Y,,3,BASELINE,1,TREATMENT,2013-02-15T23:30:00,-1,Pre-dose,-0.5
552,CDISCPILOT01,IS,01-715-1085,5,ADA_NAB,Neutralizing Binding Antidrug Antibody,XANOMELINE,IMMUNOGENICITY,NEGATIVE,,NEGATIVE,,,,,Imaginary Labs,SERUM,,,4,WEEK 2,14,TREATMENT,2013-03-04T23:30:00,17,Pre-dose,-0.5
553,CDISCPILOT01,IS,01-715-1085,6,ADA_NAB,Neutralizing Binding Antidrug Antibody,XANOMELINE,IMMUNOGENICITY,NEGATIVE,,NEGATIVE,,,,,Imaginary Labs,SERUM,,,12,WEEK 24,168,TREATMENT,2013-08-04T23:30:00,170,Pre-dose,-0.5
554,CDISCPILOT01,IS,01-715-1107,1,ADA_BAB,Binding Antidrug Antibody,XANOMELINE,IMMUNOGENICITY,1.6,titer,1.6,1.6,titer,,,Imaginary Labs,SERUM,Y,,3,BASELINE,1,TREATMENT,2013-02-25T23:30:00,-1,Pre-dose,-0.5
555,CDISCPILOT01,IS,01-715-1107,2,ADA_BAB,Binding Antidrug Antibody,XANOMELINE,IMMUNOGENICITY,1.48,titer,1.48,1.48,titer,,,Imaginary Labs,SERUM,,,4,WEEK 2,14,TREATMENT,2013-03-12T23:30:00,15,Pre-dose,-0.5
556,CDISCPILOT01,IS,01-715-1107,3,ADA_NAB,Neutralizing Binding Antidrug Antibody,XANOMELINE,IMMUNOGENICITY,NEGATIVE,,NEGATIVE,,,,,Imaginary Labs,SERUM,Y,,3,BASELINE,1,TREATMENT,2013-02-25T23:30:00,-1,Pre-dose,-0.5
557,CDISCPILOT01,IS,01-715-1107,4,ADA_NAB,Neutralizing Binding Antidrug Antibody,XANOMELINE,IMMUNOGENICITY,NEGATIVE,,NEGATIVE,,,,,Imaginary Labs,SERUM,,,4,WEEK 2,14,TREATMENT,2013-03-12T23:30:00,15,Pre-dose,-0.5
558,CDISCPILOT01,IS,01-715-1155,1,ADA_BAB,Binding Antidrug Antibody,XANOMELINE,IMMUNOGENICITY,NEGATIVE,titer,NEGATIVE,,titer,,,Imaginary Labs,SERUM,Y,,3,BASELINE,1,TREATMENT,2013-12-12T23:30:00,-1,Pre-dose,-0.5
559,CDISCPILOT01,IS,01-715-1207,1,ADA_BAB,Binding Antidrug Antibody,XANOMELINE,IMMUNOGENICITY,1.49,titer,1.49,1.49,titer,,,Imaginary Labs,SERUM,Y,,3,BASELINE,1,TREATMENT,2012-11-17T23:30:00,-1,Pre-dose,-0.5
560,CDISCPILOT01,IS,01-715-1207,2,ADA_NAB,Neutralizing Binding Antidrug Antibody,XANOMELINE,IMMUNOGENICITY,NEGATIVE,,NEGATIVE,,,,,Imaginary Labs,SERUM,Y,,3,BASELINE,1,TREATMENT,2012-11-17T23:30:00,-1,Pre-dose,-0.5
561,CDISCPILOT01,IS,01-715-1319,1,ADA_BAB,Binding Antidrug Antibody,XANOMELINE,IMMUNOGENICITY,NEGATIVE,titer,NEGATIVE,,titer,,,Imaginary Labs,SERUM,Y,,3,BASELINE,1,TREATMENT,2013-02-16T23:30:00,-1,Pre-dose,-0.5
562,CDISCPILOT01,IS,01-715-1319,2,ADA_BAB,Binding Antidrug Antibody,XANOMELINE,IMMUNOGENICITY,NEGATIVE,titer,NEGATIVE,,titer,,,Imaginary Labs,SERUM,,,4,WEEK 2,14,TREATMENT,2013-03-03T23:30:00,15,Pre-dose,-0.5
563,CDISCPILOT01,IS,01-715-1321,1,ADA_BAB,Binding Antidrug Antibody,XANOMELINE,IMMUNOGENICITY,NEGATIVE,titer,NEGATIVE,,titer,,,Imaginary Labs,SERUM,Y,,3,BASELINE,1,TREATMENT,2014-02-10T23:30:00,-1,Pre-dose,-0.5
564,CDISCPILOT01,IS,01-715-1321,2,ADA_BAB,Binding Antidrug Antibody,XANOMELINE,IMMUNOGENICITY,NEGATIVE,titer,NEGATIVE,,titer,,,Imaginary Labs,SERUM,,,4,WEEK 2,14,TREATMENT,2014-02-26T23:30:00,16,Pre-dose,-0.5
565,CDISCPILOT01,IS,01-715-1397,1,ADA_BAB,Binding Antidrug Antibody,XANOMELINE,IMMUNOGENICITY,1.6,titer,1.6,1.6,titer,,,Imaginary Labs,SERUM,Y,,3,BASELINE,1,TREATMENT,2013-04-02T23:30:00,-1,Pre-dose,-0.5
566,CDISCPILOT01,IS,01-715-1397,2,ADA_NAB,Neutralizing Binding Antidrug Antibody,XANOMELINE,IMMUNOGENICITY,NEGATIVE,,NEGATIVE,,,,,Imaginary Labs,SERUM,Y,,3,BASELINE,1,TREATMENT,2013-04-02T23:30:00,-1,Pre-dose,-0.5
567,CDISCPILOT01,IS,01-715-1405,1,ADA_BAB,Binding Antidrug Antibody,XANOMELINE,IMMUNOGENICITY,<1.40,titer,<1.40,,titer,,,Imaginary Labs,SERUM,Y,,3,BASELINE,1,TREATMENT,2013-07-05T23:30:00,-1,Pre-dose,-0.5
568,CDISCPILOT01,IS,01-715-1405,2,ADA_NAB,Neutralizing Binding Antidrug Antibody,XANOMELINE,IMMUNOGENICITY,NEGATIVE,,NEGATIVE,,,,,Imaginary Labs,SERUM,Y,,3,BASELINE,1,TREATMENT,2013-07-05T23:30:00,-1,Pre-dose,-0.5
569,CDISCPILOT01,IS,01-716-1024,1,ADA_BAB,Binding Antidrug Antibody,XANOMELINE,IMMUNOGENICITY,NEGATIVE,titer,NEGATIVE,,titer,,,Imaginary Labs,SERUM,Y,,3,BASELINE,1,TREATMENT,2012-07-08T23:30:00,-1,Pre-dose,-0.5
570,CDISCPILOT01,IS,01-716-1026,1,ADA_BAB,Binding Antidrug Antibody,XANOMELINE,IMMUNOGENICITY,1.45,titer,1.45,1.45,titer,,,Imaginary Labs,SERUM,Y,,3,BASELINE,1,TREATMENT,2014-04-01T23:30:00,-1,Pre-dose,-0.5
571,CDISCPILOT01,IS,01-716-1026,2,ADA_NAB,Neutralizing Binding Antidrug Antibody,XANOMELINE,IMMUNOGENICITY,NEGATIVE,,NEGATIVE,,,,,Imaginary Labs,SERUM,Y,,3,BASELINE,1,TREATMENT,2014-04-01T23:30:00,-1,Pre-dose,-0.5
572,CDISCPILOT01,IS,01-716-1030,1,ADA_BAB,Binding Antidrug Antibody,XANOMELINE,IMMUNOGENICITY,1.56,titer,1.56,1.56,titer,,,Imaginary Labs,SERUM,Y,,3,BASELINE,1,TREATMENT,2013-12-27T23:30:00,-1,Pre-dose,-0.5
573,CDISCPILOT01,IS,01-716-1030,2,ADA_NAB,Neutralizing Binding Antidrug Antibody,XANOMELINE,IMMUNOGENICITY,NEGATIVE,,NEGATIVE,,,,,Imaginary Labs,SERUM,Y,,3,BASELINE,1,TREATMENT,2013-12-27T23:30:00,-1,Pre-dose,-0.5
574,CDISCPILOT01,IS,01-716-1044,1,ADA_BAB,Binding Antidrug Antibody,XANOMELINE,IMMUNOGENICITY,NEGATIVE,titer,NEGATIVE,,titer,,,Imaginary Labs,SERUM,Y,,3,BASELINE,1,TREATMENT,2013-04-26T23:30:00,-1,Pre-dose,-0.5
575,CDISCPILOT01,IS,01-716-1063,1,ADA_BAB,Binding Antidrug Antibody,XANOMELINE,IMMUNOGENICITY,1.49,titer,1.49,1.49,titer,,,Imaginary Labs,SERUM,Y,,3,BASELINE,1,TREATMENT,2013-05-08T23:30:00,-1,Pre-dose,-0.5
576,CDISCPILOT01,IS,01-716-1063,2,ADA_BAB,Binding Antidrug Antibody,XANOMELINE,IMMUNOGENICITY,2.63,titer,2.63,2.63,titer,,,Imaginary Labs,SERUM,,,4,WEEK 2,14,TREATMENT,2013-05-23T23:30:00,15,Pre-dose,-0.5
577,CDISCPILOT01,IS,01-716-1063,3,ADA_NAB,Neutralizing Binding Antidrug Antibody,XANOMELINE,IMMUNOGENICITY,POSITIVE,,POSITIVE,,,,,Imaginary Labs,SERUM,Y,,3,BASELINE,1,TREATMENT,2013-05-08T23:30:00,-1,Pre-dose,-0.5
578,CDISCPILOT01,IS,01-716-1063,4,ADA_NAB,Neutralizing Binding Antidrug Antibody,XANOMELINE,IMMUNOGENICITY,POSITIVE,,POSITIVE,,,,,Imaginary Labs,SERUM,,,4,WEEK 2,14,TREATMENT,2013-05-23T23:30:00,15,Pre-dose,-0.5
579,CDISCPILOT01,IS,01-716-1071,1,ADA_BAB,Binding Antidrug Antibody,XANOMELINE,IMMUNOGENICITY,1.53,titer,1.53,1.53,titer,,,Imaginary Labs,SERUM,Y,,3,BASELINE,1,TREATMENT,2013-06-07T23:30:00,-1,Pre-dose,-0.5
580,CDISCPILOT01,IS,01-716-1071,2,ADA_BAB,Binding Antidrug Antibody,XANOMELINE,IMMUNOGENICITY,<1.40,titer,<1.40,,titer,,,Imaginary Labs,SERUM,,,4,WEEK 2,14,TREATMENT,2013-06-22T23:30:00,15,Pre-dose,-0.5
581,CDISCPILOT01,IS,01-716-1071,3,ADA_NAB,Neutralizing Binding Antidrug Antibody,XANOMELINE,IMMUNOGENICITY,NEGATIVE,,NEGATIVE,,,,,Imaginary Labs,SERUM,Y,,3,BASELINE,1,TREATMENT,2013-06-07T23:30:00,-1,Pre-dose,-0.5
582,CDISCPILOT01,IS,01-716-1071,4,ADA_NAB,Neutralizing Binding Antidrug Antibody,XANOMELINE,IMMUNOGENICITY,NEGATIVE,,NEGATIVE,,,,,Imaginary Labs,SERUM,,,4,WEEK 2,14,TREATMENT,2013-06-22T23:30:00,15,Pre-dose,-0.5
583,CDISCPILOT01,IS,01-716-1094,1,ADA_BAB,Binding Antidrug Antibody,XANOMELINE,IMMUNOGENICITY,NEGATIVE,titer,NEGATIVE,,titer,,,Imaginary Labs,SERUM,Y,,3,BASELINE,1,TREATMENT,2012-12-18T23:30:00,-1,Pre-dose,-0.5
584,CDISCPILOT01,IS,01-716-1094,2,ADA_BAB,Binding Antidrug Antibody,XANOMELINE,IMMUNOGENICITY,NEGATIVE,titer,NEGATIVE,,titer,,,Imaginary Labs,SERUM,,,4,WEEK 2,14,TREATMENT,2013-01-06T23:30:00,19,Pre-dose,-0.5
585,CDISCPILOT01,IS,01-716-1103,1,ADA_BAB,Binding Antidrug Antibody,XANOMELINE,IMMUNOGENICITY,NEGATIVE,titer,NEGATIVE,,titer,,,Imaginary Labs,SERUM,Y,,3,BASELINE,1,TREATMENT,2014-03-19T23:30:00,-1,Pre-dose,-0.5
586,CDISCPILOT01,IS,01-716-1103,2,ADA_BAB,Binding Antidrug Antibody,XANOMELINE,IMMUNOGENICITY,NEGATIVE,titer,NEGATIVE,,titer,,,Imaginary Labs,SERUM,,,4,WEEK 2,14,TREATMENT,2014-04-05T23:30:00,17,Pre-dose,-0.5
587,CDISCPILOT01,IS,01-716-1103,3,ADA_BAB,Binding Antidrug Antibody,XANOMELINE,IMMUNOGENICITY,NEGATIVE,titer,NEGATIVE,,titer,,,Imaginary Labs,SERUM,,,12,WEEK 24,168,TREATMENT,2014-08-30T23:30:00,164,Pre-dose,-0.5
588,CDISCPILOT01,IS,01-716-1108,1,ADA_BAB,Binding Antidrug Antibody,XANOMELINE,IMMUNOGENICITY,NEGATIVE,titer,NEGATIVE,,titer,,,Imaginary Labs,SERUM,Y,,3,BASELINE,1,TREATMENT,2013-02-11T23:30:00,-1,Pre-dose,-0.5
589,CDISCPILOT01,IS,01-716-1151,1,ADA_BAB,Binding Antidrug Antibody,XANOMELINE,IMMUNOGENICITY,NEGATIVE,titer,NEGATIVE,,titer,,,Imaginary Labs,SERUM,Y,,3,BASELINE,1,TREATMENT,2013-01-31T23:30:00,-1,Pre-dose,-0.5
590,CDISCPILOT01,IS,01-716-1151,2,ADA_BAB,Binding Antidrug Antibody,XANOMELINE,IMMUNOGENICITY,NEGATIVE,titer,NEGATIVE,,titer,,,Imaginary Labs,SERUM,,,4,WEEK 2,14,TREATMENT,2013-02-15T23:30:00,15,Pre-dose,-0.5
591,CDISCPILOT01,IS,01-716-1157,1,ADA_BAB,Binding Antidrug Antibody,XANOMELINE,IMMUNOGENICITY,NEGATIVE,titer,NEGATIVE,,titer,,,Imaginary Labs,SERUM,Y,,3,BASELINE,1,TREATMENT,2013-10-01T23:30:00,-1,Pre-dose,-0.5
592,CDISCPILOT01,IS,01-716-1157,2,ADA_BAB,Binding Antidrug Antibody,XANOMELINE,IMMUNOGENICITY,1.45,titer,1.45,1.45,titer,,,Imaginary Labs,SERUM,,,4,WEEK 2,14,TREATMENT,2013-10-16T23:30:00,15,Pre-dose,-0.5
593,CDISCPILOT01,IS,01-716-1157,3,ADA_BAB,Binding Antidrug Antibody,XANOMELINE,IMMUNOGENICITY,1.52,titer,1.52,1.52,titer,,,Imaginary Labs,SERUM,,,12,WEEK 24,168,TREATMENT,2014-03-26T23:30:00,176,Pre-dose,-0.5
594,CDISCPILOT01,IS,01-716-1157,4,ADA_NAB,Neutralizing Binding Antidrug Antibody,XANOMELINE,IMMUNOGENICITY,NEGATIVE,,NEGATIVE,,,,,Imaginary Labs,SERUM,,,4,WEEK 2,14,TREATMENT,2013-10-16T23:30:00,15,Pre-dose,-0.5
595,CDISCPILOT01,IS,01-716-1157,5,ADA_NAB,Neutralizing Binding Antidrug Antibody,XANOMELINE,IMMUNOGENICITY,NEGATIVE,,NEGATIVE,,,,,Imaginary Labs,SERUM,,,12,WEEK 24,168,TREATMENT,2014-03-26T23:30:00,176,Pre-dose,-0.5
596,CDISCPILOT01,IS,01-716-1160,1,ADA_BAB,Binding Antidrug Antibody,XANOMELINE,IMMUNOGENICITY,NEGATIVE,titer,NEGATIVE,,titer,,,Imaginary Labs,SERUM,Y,,3,BASELINE,1,TREATMENT,2013-04-04T23:30:00,-1,Pre-dose,-0.5
597,CDISCPILOT01,IS,01-716-1167,1,ADA_BAB,Binding Antidrug Antibody,XANOMELINE,IMMUNOGENICITY,NEGATIVE,titer,NEGATIVE,,titer,,,Imaginary Labs,SERUM,Y,,3,BASELINE,1,TREATMENT,2012-10-07T23:30:00,-1,Pre-dose,-0.5
598,CDISCPILOT01,IS,01-716-1167,2,ADA_BAB,Binding Antidrug Antibody,XANOMELINE,IMMUNOGENICITY,NEGATIVE,titer,NEGATIVE,,titer,,,Imaginary Labs,SERUM,,,4,WEEK 2,14,TREATMENT,2012-10-29T23:30:00,22,Pre-dose,-0.5
599,CDISCPILOT01,IS,01-716-1167,3,ADA_BAB,Binding Antidrug Antibody,XANOMELINE,IMMUNOGENICITY,NEGATIVE,titer,NEGATIVE,,titer,,,Imaginary Labs,SERUM,,,12,WEEK 24,168,TREATMENT,2013-03-24T23:30:00,168,Pre-dose,-0.5
600,CDISCPILOT01,IS,01-716-1177,1,ADA_BAB,Binding Antidrug Antibody,XANOMELINE,IMMUNOGENICITY,1.48,titer,1.48,1.48,titer,,,Imaginary Labs,SERUM,Y,,3,BASELINE,1,TREATMENT,2014-09-01T23:30:00,-1,Pre-dose,-0.5
601,CDISCPILOT01,IS,01-716-1177,2,ADA_NAB,Neutralizing Binding Antidrug Antibody,XANOMELINE,IMMUNOGENICITY,NEGATIVE,,NEGATIVE,,,,,Imaginary Labs,SERUM,Y,,3,BASELINE,1,TREATMENT,2014-09-01T23:30:00,-1,Pre-dose,-0.5
602,CDISCPILOT01,IS,01-716-1189,1,ADA_BAB,Binding Antidrug Antibody,XANOMELINE,IMMUNOGENICITY,NEGATIVE,titer,NEGATIVE,,titer,,,Imaginary Labs,SERUM,Y,,3,BASELINE,1,TREATMENT,2012-10-08T23:30:00,-1,Pre-dose,-0.5
603,CDISCPILOT01,IS,01-716-1189,2,ADA_BAB,Binding Antidrug Antibody,XANOMELINE,IMMUNOGENICITY,NEGATIVE,titer,NEGATIVE,,titer,,,Imaginary Labs,SERUM,,,4,WEEK 2,14,TREATMENT,2012-10-24T23:30:00,16,Pre-dose,-0.5
604,CDISCPILOT01,IS,01-716-1229,1,ADA_BAB,Binding Antidrug Antibody,XANOMELINE,IMMUNOGENICITY,1.42,titer,1.42,1.42,titer,,,Imaginary Labs,SERUM,Y,,3,BASELINE,1,TREATMENT,2013-02-19T23:30:00,-1,Pre-dose,-0.5
605,CDISCPILOT01,IS,01-716-1229,2,ADA_BAB,Binding Antidrug Antibody,XANOMELINE,IMMUNOGENICITY,<1.40,titer,<1.40,,titer,,,Imaginary Labs,SERUM,,,4,WEEK 2,14,TREATMENT,2013-03-06T23:30:00,15,Pre-dose,-0.5
606,CDISCPILOT01,IS,01-716-1229,3,ADA_NAB,Neutralizing Binding Antidrug Antibody,XANOMELINE,IMMUNOGENICITY,POSITIVE,,POSITIVE,,,,,Imaginary Labs,SERUM,Y,,3,BASELINE,1,TREATMENT,2013-02-19T23:30:00,-1,Pre-dose,-0.5
607,CDISCPILOT01,IS,01-716-1229,4,ADA_NAB,Neutralizing Binding Antidrug Antibody,XANOMELINE,IMMUNOGENICITY,POSITIVE,,POSITIVE,,,,,Imaginary Labs,SERUM,,,4,WEEK 2,14,TREATMENT,2013-03-06T23:30:00,15,Pre-dose,-0.5
608,CDISCPILOT01,IS,01-716-1298,1,ADA_BAB,Binding Antidrug Antibody,XANOMELINE,IMMUNOGENICITY,NEGATIVE,titer,NEGATIVE,,titer,,,Imaginary Labs,SERUM,Y,,3,BASELINE,1,TREATMENT,2013-04-07T23:30:00,-1,Pre-dose,-0.5
609,CDISCPILOT01,IS,01-716-1298,2,ADA_BAB,Binding Antidrug Antibody,XANOMELINE,IMMUNOGENICITY,NEGATIVE,titer,NEGATIVE,,titer,,,Imaginary Labs,SERUM,,,4,WEEK 2,14,TREATMENT,2013-04-22T23:30:00,15,Pre-dose,-0.5
610,CDISCPILOT01,IS,01-716-1308,1,ADA_BAB,Binding Antidrug Antibody,XANOMELINE,IMMUNOGENICITY,NEGATIVE,titer,NEGATIVE,,titer,,,Imaginary Labs,SERUM,Y,,3,BASELINE,1,TREATMENT,2013-08-27T23:30:00,-1,Pre-dose,-0.5
611,CDISCPILOT01,IS,01-716-1311,1,ADA_BAB,Binding Antidrug Antibody,XANOMELINE,IMMUNOGENICITY,NEGATIVE,titer,NEGATIVE,,titer,,,Imaginary Labs,SERUM,Y,,3,BASELINE,1,TREATMENT,2014-05-13T23:30:00,-1,Pre-dose,-0.5
612,CDISCPILOT01,IS,01-716-1311,2,ADA_BAB,Binding Antidrug Antibody,XANOMELINE,IMMUNOGENICITY,1.52,titer,1.52,1.52,titer,,,Imaginary Labs,SERUM,,,4,WEEK 2,14,TREATMENT,2014-05-28T23:30:00,15,Pre-dose,-0.5
613,CDISCPILOT01,IS,01-716-1311,3,ADA_NAB,Neutralizing Binding Antidrug Antibody,XANOMELINE,IMMUNOGENICITY,NEGATIVE,,NEGATIVE,,,,,Imaginary Labs,SERUM,,,4,WEEK 2,14,TREATMENT,2014-05-28T23:30:00,15,Pre-dose,-0.5
614,CDISCPILOT01,IS,01-716-1364,1,ADA_BAB,Binding Antidrug Antibody,XANOMELINE,IMMUNOGENICITY,1.45,titer,1.45,1.45,titer,,,Imaginary Labs,SERUM,Y,,3,BASELINE,1,TREATMENT,2013-07-03T23:30:00,-1,Pre-dose,-0.5
615,CDISCPILOT01,IS,01-716-1364,2,ADA_BAB,Binding Antidrug Antibody,XANOMELINE,IMMUNOGENICITY,2.33,titer,2.33,2.33,titer,,,Imaginary Labs,SERUM,,,4,WEEK 2,14,TREATMENT,2013-07-17T23:30:00,14,Pre-dose,-0.5
616,CDISCPILOT01,IS,01-716-1364,3,ADA_BAB,Binding Antidrug Antibody,XANOMELINE,IMMUNOGENICITY,2.17,titer,2.17,2.17,titer,,,Imaginary Labs,SERUM,,,12,WEEK 24,168,TREATMENT,2013-12-23T23:30:00,173,Pre-dose,-0.5
617,CDISCPILOT01,IS,01-716-1364,4,ADA_NAB,Neutralizing Binding Antidrug Antibody,XANOMELINE,IMMUNOGENICITY,NEGATIVE,,NEGATIVE,,,,,Imaginary Labs,SERUM,Y,,3,BASELINE,1,TREATMENT,2013-07-03T23:30:00,-1,Pre-dose,-0.5
618,CDISCPILOT01,IS,01-716-1364,5,ADA_NAB,Neutralizing Binding Antidrug Antibody,XANOMELINE,IMMUNOGENICITY,NEGATIVE,,NEGATIVE,,,,,Imaginary Labs,SERUM,,,4,WEEK 2,14,TREATMENT,2013-07-17T23:30:00,14,Pre-dose,-0.5
619,CDISCPILOT01,IS,01-716-1364,6,ADA_NAB,Neutralizing Binding Antidrug Antibody,XANOMELINE,IMMUNOGENICITY,NEGATIVE,,NEGATIVE,,,,,Imaginary Labs,SERUM,,,12,WEEK 24,168,TREATMENT,2013-12-23T23:30:00,173,Pre-dose,-0.5
620,CDISCPILOT01,IS,01-716-1373,1,ADA_BAB,Binding Antidrug Antibody,XANOMELINE,IMMUNOGENICITY,NEGATIVE,titer,NEGATIVE,,titer,,,Imaginary Labs,SERUM,Y,,3,BASELINE,1,TREATMENT,2012-12-13T23:30:00,-1,Pre-dose,-0.5
621,CDISCPILOT01,IS,01-716-1373,2,ADA_BAB,Binding Antidrug Antibody,XANOMELINE,IMMUNOGENICITY,NEGATIVE,titer,NEGATIVE,,titer,,,Imaginary Labs,SERUM,,,4,WEEK 2,14,TREATMENT,2012-12-30T23:30:00,17,Pre-dose,-0.5
622,CDISCPILOT01,IS,01-716-1418,1,ADA_BAB,Binding Antidrug Antibody,XANOMELINE,IMMUNOGENICITY,1.44,titer,1.44,1.44,titer,,,Imaginary Labs,SERUM,Y,,3,BASELINE,1,TREATMENT,2013-05-04T23:30:00,-1,Pre-dose,-0.5
623,CDISCPILOT01,IS,01-716-1418,2,ADA_BAB,Binding Antidrug Antibody,XANOMELINE,IMMUNOGENICITY,1.58,titer,1.58,1.58,titer,,,Imaginary Labs,SERUM,,,4,WEEK 2,14,TREATMENT,2013-05-19T23:30:00,15,Pre-dose,-0.5
624,CDISCPILOT01,IS,01-716-1418,3,ADA_BAB,Binding Antidrug Antibody,XANOMELINE,IMMUNOGENICITY,1.41,titer,1.41,1.41,titer,,,Imaginary Labs,SERUM,,,12,WEEK 24,168,TREATMENT,2013-11-06T23:30:00,186,Pre-dose,-0.5
625,CDISCPILOT01,IS,01-716-1418,4,ADA_NAB,Neutralizing Binding Antidrug Antibody,XANOMELINE,IMMUNOGENICITY,POSITIVE,,POSITIVE,,,,,Imaginary Labs,SERUM,Y,,3,BASELINE,1,TREATMENT,2013-05-04T23:30:00,-1,Pre-dose,-0.5
626,CDISCPILOT01,IS,01-716-1418,5,ADA_NAB,Neutralizing Binding Antidrug Antibody,XANOMELINE,IMMUNOGENICITY,POSITIVE,,POSITIVE,,,,,Imaginary Labs,SERUM,,,4,WEEK 2,14,TREATMENT,2013-05-19T23:30:00,15,Pre-dose,-0.5
627,CDISCPILOT01,IS,01-716-1418,6,ADA_NAB,Neutralizing Binding Antidrug Antibody,XANOMELINE,IMMUNOGENICITY,POSITIVE,,POSITIVE,,,,,Imaginary Labs,SERUM,,,12,WEEK 24,168,TREATMENT,2013-11-06T23:30:00,186,Pre-dose,-0.5
628,CDISCPILOT01,IS,01-716-1441,1,ADA_BAB,Binding Antidrug Antibody,XANOMELINE,IMMUNOGENICITY,1.54,titer,1.54,1.54,titer,,,Imaginary Labs,SERUM,Y,,3,BASELINE,1,TREATMENT,2014-01-21T23:30:00,-1,Pre-dose,-0.5
629,CDISCPILOT01,IS,01-716-1441,2,ADA_NAB,Neutralizing Binding Antidrug Antibody,XANOMELINE,IMMUNOGENICITY,NEGATIVE,,NEGATIVE,,,,,Imaginary Labs,SERUM,Y,,3,BASELINE,1,TREATMENT,2014-01-21T23:30:00,-1,Pre-dose,-0.5
630,CDISCPILOT01,IS,01-716-1447,1,ADA_BAB,Binding Antidrug Antibody,XANOMELINE,IMMUNOGENICITY,<1.40,titer,<1.40,,titer,,,Imaginary Labs,SERUM,Y,,3,BASELINE,1,TREATMENT,2013-12-15T23:30:00,-1,Pre-dose,-0.5
631,CDISCPILOT01,IS,01-716-1447,2,ADA_BAB,Binding Antidrug Antibody,XANOMELINE,IMMUNOGENICITY,1.6,titer,1.6,1.6,titer,,,Imaginary Labs,SERUM,,,4,WEEK 2,14,TREATMENT,2013-12-31T23:30:00,16,Pre-dose,-0.5
632,CDISCPILOT01,IS,01-716-1447,3,ADA_BAB,Binding Antidrug Antibody,XANOMELINE,IMMUNOGENICITY,1.48,titer,1.48,1.48,titer,,,Imaginary Labs,SERUM,,,12,WEEK 24,168,TREATMENT,2014-06-07T23:30:00,174,Pre-dose,-0.5
633,CDISCPILOT01,IS,01-716-1447,4,ADA_NAB,Neutralizing Binding Antidrug Antibody,XANOMELINE,IMMUNOGENICITY,NEGATIVE,,NEGATIVE,,,,,Imaginary Labs,SERUM,Y,,3,BASELINE,1,TREATMENT,2013-12-15T23:30:00,-1,Pre-dose,-0.5
634,CDISCPILOT01,IS,01-716-1447,5,ADA_NAB,Neutralizing Binding Antidrug Antibody,XANOMELINE,IMMUNOGENICITY,NEGATIVE,,NEGATIVE,,,,,Imaginary Labs,SERUM,,,4,WEEK 2,14,TREATMENT,2013-12-31T23:30:00,16,Pre-dose,-0.5
635,CDISCPILOT01,IS,01-716-1447,6,ADA_NAB,Neutralizing Binding Antidrug Antibody,XANOMELINE,IMMUNOGENICITY,NEGATIVE,,NEGATIVE,,,,,Imaginary Labs,SERUM,,,12,WEEK 24,168,TREATMENT,2014-06-07T23:30:00,174,Pre-dose,-0.5
636,CDISCPILOT01,IS,01-717-1004,1,ADA_BAB,Binding Antidrug Antibody,XANOMELINE,IMMUNOGENICITY,1.46,titer,1.46,1.46,titer,,,Imaginary Labs,SERUM,Y,,3,BASELINE,1,TREATMENT,2014-01-13T23:30:00,-1,Pre-dose,-0.5
637,CDISCPILOT01,IS,01-717-1004,2,ADA_BAB,Binding Antidrug Antibody,XANOMELINE,IMMUNOGENICITY,2.78,titer,2.78,2.78,titer,,,Imaginary Labs,SERUM,,,4,WEEK 2,14,TREATMENT,2014-01-28T23:30:00,15,Pre-dose,-0.5
638,CDISCPILOT01,IS,01-717-1004,3,ADA_BAB,Binding Antidrug Antibody,XANOMELINE,IMMUNOGENICITY,2.1,titer,2.1,2.1,titer,,,Imaginary Labs,SERUM,,,12,WEEK 24,168,TREATMENT,2014-07-01T23:30:00,169,Pre-dose,-0.5
639,CDISCPILOT01,IS,01-717-1004,4,ADA_NAB,Neutralizing Binding Antidrug Antibody,XANOMELINE,IMMUNOGENICITY,NEGATIVE,,NEGATIVE,,,,,Imaginary Labs,SERUM,Y,,3,BASELINE,1,TREATMENT,2014-01-13T23:30:00,-1,Pre-dose,-0.5
640,CDISCPILOT01,IS,01-717-1004,5,ADA_NAB,Neutralizing Binding Antidrug Antibody,XANOMELINE,IMMUNOGENICITY,NEGATIVE,,NEGATIVE,,,,,Imaginary Labs,SERUM,,,4,WEEK 2,14,TREATMENT,2014-01-28T23:30:00,15,Pre-dose,-0.5
641,CDISCPILOT01,IS,01-717-1004,6,ADA_NAB,Neutralizing Binding Antidrug Antibody,XANOMELINE,IMMUNOGENICITY,NEGATIVE,,NEGATIVE,,,,,Imaginary Labs,SERUM,,,12,WEEK 24,168,TREATMENT,2014-07-01T23:30:00,169,Pre-dose,-0.5
642,CDISCPILOT01,IS,01-717-1109,1,ADA_BAB,Binding Antidrug Antibody,XANOMELINE,IMMUNOGENICITY,NEGATIVE,titer,NEGATIVE,,titer,,,Imaginary Labs,SERUM,Y,,3,BASELINE,1,TREATMENT,2014-01-26T23:30:00,-1,Pre-dose,-0.5
643,CDISCPILOT01,IS,01-717-1109,2,ADA_BAB,Binding Antidrug Antibody,XANOMELINE,IMMUNOGENICITY,NEGATIVE,titer,NEGATIVE,,titer,,,Imaginary Labs,SERUM,,,4,WEEK 2,14,TREATMENT,2014-02-10T23:30:00,15,Pre-dose,-0.5
644,CDISCPILOT01,IS,01-717-1109,3,ADA_BAB,Binding Antidrug Antibody,XANOMELINE,IMMUNOGENICITY,NEGATIVE,titer,NEGATIVE,,titer,,,Imaginary Labs,SERUM,,,12,WEEK 24,168,TREATMENT,2014-07-18T23:30:00,173,Pre-dose,-0.5
645,CDISCPILOT01,IS,01-717-1174,1,ADA_BAB,Binding Antidrug Antibody,XANOMELINE,IMMUNOGENICITY,NEGATIVE,titer,NEGATIVE,,titer,,,Imaginary Labs,SERUM,Y,,3,BASELINE,1,TREATMENT,2013-01-21T23:30:00,-1,Pre-dose,-0.5
646,CDISCPILOT01,IS,01-717-1174,2,ADA_BAB,Binding Antidrug Antibody,XANOMELINE,IMMUNOGENICITY,NEGATIVE,titer,NEGATIVE,,titer,,,Imaginary Labs,SERUM,,,4,WEEK 2,14,TREATMENT,2013-02-04T23:30:00,14,Pre-dose,-0.5
647,CDISCPILOT01,IS,01-717-1174,3,ADA_BAB,Binding Antidrug Antibody,XANOMELINE,IMMUNOGENICITY,NEGATIVE,titer,NEGATIVE,,titer,,,Imaginary Labs,SERUM,,,12,WEEK 24,168,TREATMENT,2013-07-07T23:30:00,167,Pre-dose,-0.5
648,CDISCPILOT01,IS,01-717-1201,1,ADA_BAB,Binding Antidrug Antibody,XANOMELINE,IMMUNOGENICITY,1.53,titer,1.53,1.53,titer,,,Imaginary Labs,SERUM,Y,,3,BASELINE,1,TREATMENT,2013-12-18T23:30:00,-1,Pre-dose,-0.5
649,CDISCPILOT01,IS,01-717-1201,2,ADA_NAB,Neutralizing Binding Antidrug Antibody,XANOMELINE,IMMUNOGENICITY,NEGATIVE,,NEGATIVE,,,,,Imaginary Labs,SERUM,Y,,3,BASELINE,1,TREATMENT,2013-12-18T23:30:00,-1,Pre-dose,-0.5
650,CDISCPILOT01,IS,01-717-1344,1,ADA_BAB,Binding Antidrug Antibody,XANOMELINE,IMMUNOGENICITY,1.47,titer,1.47,1.47,titer,,,Imaginary Labs,SERUM,Y,,3,BASELINE,1,TREATMENT,2014-01-10T23:30:00,-1,Pre-dose,-0.5
651,CDISCPILOT01,IS,01-717-1344,2,ADA_NAB,Neutralizing Binding Antidrug Antibody,XANOMELINE,IMMUNOGENICITY,NEGATIVE,,NEGATIVE,,,,,Imaginary Labs,SERUM,Y,,3,BASELINE,1,TREATMENT,2014-01-10T23:30:00,-1,Pre-dose,-0.5
652,CDISCPILOT01,IS,01-717-1357,1,ADA_BAB,Binding Antidrug Antibody,XANOMELINE,IMMUNOGENICITY,NEGATIVE,titer,NEGATIVE,,titer,,,Imaginary Labs,SERUM,Y,,3,BASELINE,1,TREATMENT,2013-04-30T23:30:00,-1,Pre-dose,-0.5
653,CDISCPILOT01,IS,01-717-1357,2,ADA_BAB,Binding Antidrug Antibody,XANOMELINE,IMMUNOGENICITY,<1.40,titer,<1.40,,titer,,,Imaginary Labs,SERUM,,,4,WEEK 2,14,TREATMENT,2013-05-15T23:30:00,15,Pre-dose,-0.5
654,CDISCPILOT01,IS,01-717-1357,3,ADA_NAB,Neutralizing Binding Antidrug Antibody,XANOMELINE,IMMUNOGENICITY,NEGATIVE,,NEGATIVE,,,,,Imaginary Labs,SERUM,,,4,WEEK 2,14,TREATMENT,2013-05-15T23:30:00,15,Pre-dose,-0.5
655,CDISCPILOT01,IS,01-717-1446,1,ADA_BAB,Binding Antidrug Antibody,XANOMELINE,IMMUNOGENICITY,NEGATIVE,titer,NEGATIVE,,titer,,,Imaginary Labs,SERUM,Y,,3,BASELINE,1,TREATMENT,2013-08-31T23:30:00,-1,Pre-dose,-0.5
656,CDISCPILOT01,IS,01-717-1446,2,ADA_BAB,Binding Antidrug Antibody,XANOMELINE,IMMUNOGENICITY,NEGATIVE,titer,NEGATIVE,,titer,,,Imaginary Labs,SERUM,,,4,WEEK 2,14,TREATMENT,2013-09-16T23:30:00,16,Pre-dose,-0.5
657,CDISCPILOT01,IS,01-717-1446,3,ADA_BAB,Binding Antidrug Antibody,XANOMELINE,IMMUNOGENICITY,NEGATIVE,titer,NEGATIVE,,titer,,,Imaginary Labs,SERUM,,,12,WEEK 24,168,TREATMENT,2014-02-16T23:30:00,169,Pre-dose,-0.5
658,CDISCPILOT01,IS,01-718-1066,1,ADA_BAB,Binding Antidrug Antibody,XANOMELINE,IMMUNOGENICITY,NEGATIVE,titer,NEGATIVE,,titer,,,Imaginary Labs,SERUM,Y,,3,BASELINE,1,TREATMENT,2013-07-06T23:30:00,-1,Pre-dose,-0.5
659,CDISCPILOT01,IS,01-718-1079,1,ADA_BAB,Binding Antidrug Antibody,XANOMELINE,IMMUNOGENICITY,1.45,titer,1.45,1.45,titer,,,Imaginary Labs,SERUM,Y,,3,BASELINE,1,TREATMENT,2012-09-18T23:30:00,-1,Pre-dose,-0.5
660,CDISCPILOT01,IS,01-718-1079,2,ADA_BAB,Binding Antidrug Antibody,XANOMELINE,IMMUNOGENICITY,<1.40,titer,<1.40,,titer,,,Imaginary Labs,SERUM,,,4,WEEK 2,14,TREATMENT,2012-10-03T23:30:00,15,Pre-dose,-0.5
661,CDISCPILOT01,IS,01-718-1079,3,ADA_NAB,Neutralizing Binding Antidrug Antibody,XANOMELINE,IMMUNOGENICITY,NEGATIVE,,NEGATIVE,,,,,Imaginary Labs,SERUM,Y,,3,BASELINE,1,TREATMENT,2012-09-18T23:30:00,-1,Pre-dose,-0.5
662,CDISCPILOT01,IS,01-718-1079,4,ADA_NAB,Neutralizing Binding Antidrug Antibody,XANOMELINE,IMMUNOGENICITY,NEGATIVE,,NEGATIVE,,,,,Imaginary Labs,SERUM,,,4,WEEK 2,14,TREATMENT,2012-10-03T23:30:00,15,Pre-dose,-0.5
663,CDISCPILOT01,IS,01-718-1101,1,ADA_BAB,Binding Antidrug Antibody,XANOMELINE,IMMUNOGENICITY,1.59,titer,1.59,1.59,titer,,,Imaginary Labs,SERUM,Y,,3,BASELINE,1,TREATMENT,2013-02-16T23:30:00,-1,Pre-dose,-0.5
664,CDISCPILOT01,IS,01-718-1101,2,ADA_BAB,Binding Antidrug Antibody,XANOMELINE,IMMUNOGENICITY,2.62,titer,2.62,2.62,titer,,,Imaginary Labs,SERUM,,,4,WEEK 2,14,TREATMENT,2013-03-03T23:30:00,15,Pre-dose,-0.5
665,CDISCPILOT01,IS,01-718-1101,3,ADA_NAB,Neutralizing Binding Antidrug Antibody,XANOMELINE,IMMUNOGENICITY,NEGATIVE,,NEGATIVE,,,,,Imaginary Labs,SERUM,Y,,3,BASELINE,1,TREATMENT,2013-02-16T23:30:00,-1,Pre-dose,-0.5
666,CDISCPILOT01,IS,01-718-1101,4,ADA_NAB,Neutralizing Binding Antidrug Antibody,XANOMELINE,IMMUNOGENICITY,NEGATIVE,,NEGATIVE,,,,,Imaginary Labs,SERUM,,,4,WEEK 2,14,TREATMENT,2013-03-03T23:30:00,15,Pre-dose,-0.5
667,CDISCPILOT01,IS,01-718-1139,1,ADA_BAB,Binding Antidrug Antibody,XANOMELINE,IMMUNOGENICITY,NEGATIVE,titer,NEGATIVE,,titer,,,Imaginary Labs,SERUM,Y,,3,BASELINE,1,TREATMENT,2013-05-18T23:30:00,-1,Pre-dose,-0.5
668,CDISCPILOT01,IS,01-718-1150,1,ADA_BAB,Binding Antidrug Antibody,XANOMELINE,IMMUNOGENICITY,NEGATIVE,titer,NEGATIVE,,titer,,,Imaginary Labs,SERUM,Y,,3,BASELINE,1,TREATMENT,2013-01-18T23:30:00,-1,Pre-dose,-0.5
669,CDISCPILOT01,IS,01-718-1170,1,ADA_BAB,Binding Antidrug Antibody,XANOMELINE,IMMUNOGENICITY,NEGATIVE,titer,NEGATIVE,,titer,,,Imaginary Labs,SERUM,Y,,3,BASELINE,1,TREATMENT,2013-09-15T23:30:00,-1,Pre-dose,-0.5
670,CDISCPILOT01,IS,01-718-1170,2,ADA_BAB,Binding Antidrug Antibody,XANOMELINE,IMMUNOGENICITY,NEGATIVE,titer,NEGATIVE,,titer,,,Imaginary Labs,SERUM,,,4,WEEK 2,14,TREATMENT,2013-09-29T23:30:00,14,Pre-dose,-0.5
671,CDISCPILOT01,IS,01-718-1172,1,ADA_BAB,Binding Antidrug Antibody,XANOMELINE,IMMUNOGENICITY,NEGATIVE,titer,NEGATIVE,,titer,,,Imaginary Labs,SERUM,Y,,3,BASELINE,1,TREATMENT,2013-09-20T23:30:00,-1,Pre-dose,-0.5
672,CDISCPILOT01,IS,01-718-1250,1,ADA_BAB,Binding Antidrug Antibody,XANOMELINE,IMMUNOGENICITY,1.56,titer,1.56,1.56,titer,,,Imaginary Labs,SERUM,Y,,3,BASELINE,1,TREATMENT,2013-09-20T23:30:00,-1,Pre-dose,-0.5
673,CDISCPILOT01,IS,01-718-1250,2,ADA_BAB,Binding Antidrug Antibody,XANOMELINE,IMMUNOGENICITY,2.33,titer,2.33,2.33,titer,,,Imaginary Labs,SERUM,,,4,WEEK 2,14,TREATMENT,2013-10-03T23:30:00,13,Pre-dose,-0.5
674,CDISCPILOT01,IS,01-718-1250,3,ADA_NAB,Neutralizing Binding Antidrug Antibody,XANOMELINE,IMMUNOGENICITY,NEGATIVE,,NEGATIVE,,,,,Imaginary Labs,SERUM,Y,,3,BASELINE,1,TREATMENT,2013-09-20T23:30:00,-1,Pre-dose,-0.5
675,CDISCPILOT01,IS,01-718-1250,4,ADA_NAB,Neutralizing Binding Antidrug Antibody,XANOMELINE,IMMUNOGENICITY,NEGATIVE,,NEGATIVE,,,,,Imaginary Labs,SERUM,,,4,WEEK 2,14,TREATMENT,2013-10-03T23:30:00,13,Pre-dose,-0.5
676,CDISCPILOT01,IS,01-718-1254,1,ADA_BAB,Binding Antidrug Antibody,XANOMELINE,IMMUNOGENICITY,NEGATIVE,titer,NEGATIVE,,titer,,,Imaginary Labs,SERUM,Y,,3,BASELINE,1,TREATMENT,2013-07-09T23:30:00,-1,Pre-dose,-0.5
677,CDISCPILOT01,IS,01-718-1254,2,ADA_BAB,Binding Antidrug Antibody,XANOMELINE,IMMUNOGENICITY,NEGATIVE,titer,NEGATIVE,,titer,,,Imaginary Labs,SERUM,,,4,WEEK 2,14,TREATMENT,2013-07-25T23:30:00,16,Pre-dose,-0.5
678,CDISCPILOT01,IS,01-718-1254,3,ADA_BAB,Binding Antidrug Antibody,XANOMELINE,IMMUNOGENICITY,NEGATIVE,titer,NEGATIVE,,titer,,,Imaginary Labs,SERUM,,,12,WEEK 24,168,TREATMENT,2013-12-26T23:30:00,170,Pre-dose,-0.5
679,CDISCPILOT01,IS,01-718-1328,1,ADA_BAB,Binding Antidrug Antibody,XANOMELINE,IMMUNOGENICITY,1.51,titer,1.51,1.51,titer,,,Imaginary Labs,SERUM,Y,,3,BASELINE,1,TREATMENT,2013-01-31T23:30:00,-1,Pre-dose,-0.5
680,CDISCPILOT01,IS,01-718-1328,2,ADA_BAB,Binding Antidrug Antibody,XANOMELINE,IMMUNOGENICITY,1.52,titer,1.52,1.52,titer,,,Imaginary Labs,SERUM,,,4,WEEK 2,14,TREATMENT,2013-02-14T23:30:00,14,Pre-dose,-0.5
681,CDISCPILOT01,IS,01-718-1328,3,ADA_NAB,Neutralizing Binding Antidrug Antibody,XANOMELINE,IMMUNOGENICITY,POSITIVE,,POSITIVE,,,,,Imaginary Labs,SERUM,Y,,3,BASELINE,1,TREATMENT,2013-01-31T23:30:00,-1,Pre-dose,-0.5
682,CDISCPILOT01,IS,01-718-1328,4,ADA_NAB,Neutralizing Binding Antidrug Antibody,XANOMELINE,IMMUNOGENICITY,POSITIVE,,POSITIVE,,,,,Imaginary Labs,SERUM,,,4,WEEK 2,14,TREATMENT,2013-02-14T23:30:00,14,Pre-dose,-0.5
683,CDISCPILOT01,IS,01-718-1355,1,ADA_BAB,Binding Antidrug Antibody,XANOMELINE,IMMUNOGENICITY,NEGATIVE,titer,NEGATIVE,,titer,,,Imaginary Labs,SERUM,Y,,3,BASELINE,1,TREATMENT,2013-02-27T23:30:00,-1,Pre-dose,-0.5
684,CDISCPILOT01,IS,01-718-1371,1,ADA_BAB,Binding Antidrug Antibody,XANOMELINE,IMMUNOGENICITY,1.54,titer,1.54,1.54,titer,,,Imaginary Labs,SERUM,Y,,3,BASELINE,1,TREATMENT,2013-04-25T23:30:00,-1,Pre-dose,-0.5
685,CDISCPILOT01,IS,01-718-1371,2,ADA_BAB,Binding Antidrug Antibody,XANOMELINE,IMMUNOGENICITY,1.54,titer,1.54,1.54,titer,,,Imaginary Labs,SERUM,,,4,WEEK 2,14,TREATMENT,2013-05-08T23:30:00,13,Pre-dose,-0.5
686,CDISCPILOT01,IS,01-718-1371,3,ADA_NAB,Neutralizing Binding Antidrug Antibody,XANOMELINE,IMMUNOGENICITY,POSITIVE,,POSITIVE,,,,,Imaginary Labs,SERUM,Y,,3,BASELINE,1,TREATMENT,2013-04-25T23:30:00,-1,Pre-dose,-0.5
687,CDISCPILOT01,IS,01-718-1371,4,ADA_NAB,Neutralizing Binding Antidrug Antibody,XANOMELINE,IMMUNOGENICITY,POSITIVE,,POSITIVE,,,,,Imaginary Labs,SERUM,,,4,WEEK 2,14,TREATMENT,2013-05-08T23:30:00,13,Pre-dose,-0.5
688,CDISCPILOT01,IS,01-718-1427,1,ADA_BAB,Binding Antidrug Antibody,XANOMELINE,IMMUNOGENICITY,1.59,titer,1.59,1.59,titer,,,Imaginary Labs,SERUM,Y,,3,BASELINE,1,TREATMENT,2012-12-16T23:30:00,-1,Pre-dose,-0.5
689,CDISCPILOT01,IS,01-718-1427,2,ADA_BAB,Binding Antidrug Antibody,XANOMELINE,IMMUNOGENICITY,<1.40,titer,<1.40,,titer,,,Imaginary Labs,SERUM,,,4,WEEK 2,14,TREATMENT,2012-12-31T23:30:00,15,Pre-dose,-0.5
690,CDISCPILOT01,IS,01-718-1427,3,ADA_NAB,Neutralizing Binding Antidrug Antibody,XANOMELINE,IMMUNOGENICITY,NEGATIVE,,NEGATIVE,,,,,Imaginary Labs,SERUM,Y,,3,BASELINE,1,TREATMENT,2012-12-16T23:30:00,-1,Pre-dose,-0.5
691,CDISCPILOT01,IS,01-718-1427,4,ADA_NAB,Neutralizing Binding Antidrug Antibody,XANOMELINE,IMMUNOGENICITY,NEGATIVE,,NEGATIVE,,,,,Imaginary Labs,SERUM,,,4,WEEK 2,14,TREATMENT,2012-12-31T23:30:00,15,Pre-dose,-0.5
