rownames,STUDYID,DOMAIN,USUBJID,ISSEQ,ISTESTCD,ISTEST,ISCAT,ISORRES,ISORRESU,ISSTRESC,ISSTRESN,ISSTRESU,ISSTAT,ISREASND,ISNAM,ISSPEC,ISMETHOD,ISBLFL,ISLLOQ,VISITNUM,EPOCH,ISDTC,ISDY,ISULOQ
1,ABC,IS,ABC-1001,1,J0033VN,J0033VN Antibody,IMMUNOLOGY,,,,,,NOT DONE,INVALID RESULT,LABNAME,SERUM,METHODNAME,Y,2,10,FIRST TREATMENT,,,100
2,ABC,IS,ABC-1001,2,I0019NT,I0019NT Antibody,IMMUNOLOGY,3,1/DIL,3,3,titer,,,LABNAME,SERUM,METHODNAME,Y,4,10,FIRST TREATMENT,2021-11,1,200
3,ABC,IS,ABC-1001,3,M0019LN,M0019LN Antibody,IMMUNOLOGY,>150,1/DIL,>150,,titer,,,LABNAME,SERUM,METHODNAME,Y,8,10,FIRST TREATMENT,2021-11,1,150
4,ABC,IS,ABC-1001,4,R0003MA,R0003MA Antibody,IMMUNOLOGY,140.5,1/DIL,140.5,140.5,titer,,,LABNAME,SERUM,METHODNAME,Y,4,10,FIRST TREATMENT,2021-11,1,120
5,ABC,IS,ABC-1001,5,J0033VN,J0033VN Antibody,IMMUNOLOGY,2,1/DIL,2,2,titer,,,LABNAME,SERUM,METHODNAME,,2,30,SECOND TREATMENT,2021-12,61,100
6,ABC,IS,ABC-1001,6,I0019NT,I0019NT Antibody,IMMUNOLOGY,>200,1/DIL,>200,,titer,,,LABNAME,SERUM,METHODNAME,,4,30,SECOND TREATMENT,2021-12,61,200
7,ABC,IS,ABC-1001,7,M0019LN,M0019LN Antibody,IMMUNOLOGY,<2,1/DIL,<2,,titer,,,LABNAME,SERUM,METHODNAME,,8,30,SECOND TREATMENT,2021-12,61,150
8,ABC,IS,ABC-1001,8,R0003MA,R0003MA Antibody,IMMUNOLOGY,98.2,1/DIL,98.2,98.2,titer,,,LABNAME,SERUM,METHODNAME,,4,30,SECOND TREATMENT,2021-12,61,120
9,ABC,IS,ABC-1002,1,J0033VN,J0033VN Antibody,IMMUNOLOGY,3,1/DIL,3,3,titer,,,LABNAME,SERUM,METHODNAME,Y,2,10,FIRST TREATMENT,2021,1,100
10,ABC,IS,ABC-1002,2,I0019NT,I0019NT Antibody,IMMUNOLOGY,,,,,,NOT DONE,INVALID RESULT,LABNAME,SERUM,METHODNAME,Y,4,10,FIRST TREATMENT,,,200
11,ABC,IS,ABC-1002,3,M0019LN,M0019LN Antibody,IMMUNOLOGY,<2,1/DIL,<2,,titer,,,LABNAME,SERUM,METHODNAME,Y,8,10,FIRST TREATMENT,2021,1,150
12,ABC,IS,ABC-1002,4,R0003MA,R0003MA Antibody,IMMUNOLOGY,48.9,1/DIL,48.9,48.9,titer,,,LABNAME,SERUM,METHODNAME,Y,4,10,FIRST TREATMENT,2021,1,120
13,ABC,IS,ABC-1002,5,J0033VN,J0033VN Antibody,IMMUNOLOGY,>100,1/DIL,>100,,titer,,,LABNAME,SERUM,METHODNAME,,2,30,SECOND TREATMENT,2021,61,100
14,ABC,IS,ABC-1002,6,I0019NT,I0019NT Antibody,IMMUNOLOGY,<2,1/DIL,<2,,titer,,,LABNAME,SERUM,METHODNAME,,4,30,SECOND TREATMENT,2021,61,200
15,ABC,IS,ABC-1002,7,M0019LN,M0019LN Antibody,IMMUNOLOGY,5,1/DIL,5,5,titer,,,LABNAME,SERUM,METHODNAME,,8,30,SECOND TREATMENT,2021,61,150
16,ABC,IS,ABC-1002,8,R0003MA,R0003MA Antibody,IMMUNOLOGY,228.1,1/DIL,228.1,228.1,titer,,,LABNAME,SERUM,METHODNAME,,4,30,SECOND TREATMENT,2021,61,120
