rownames,STUDYID,DOMAIN,USUBJID,LBSEQ,LBTESTCD,LBTEST,LBCAT,LBORRES,LBORRESU,LBORNRLO,LBORNRHI,LBSTRESC,LBSTRESN,LBSTRESU,LBSTNRLO,LBSTNRHI,LBNRIND,LBBLFL,LBFAST,VISITNUM,VISIT,VISITDY,LBDTC,LBDY
1,CDISCPILOT01,LB,01-701-1015,1,ALB,Albumin,CHEMISTRY,3.8,g/dL,3.3,4.9,38,38,g/L,33,49,NORMAL,Y,Y,1,SCREENING 1,-7,2013-12-26T14:45,-7
2,CDISCPILOT01,LB,01-701-1023,1,ALB,Albumin,CHEMISTRY,4.0,g/dL,3.3,4.9,40,40,g/L,33,49,NORMAL,Y,Y,1,SCREENING 1,-7,2012-07-22T12:13,-14
3,CDISCPILOT01,LB,01-701-1028,1,ALB,Albumin,CHEMISTRY,4.4,g/dL,3.5,4.6,44,44,g/L,35,46,NORMAL,Y,Y,1,SCREENING 1,-7,2013-07-11T12:02,-8
4,CDISCPILOT01,LB,01-701-1033,1,ALB,Albumin,CHEMISTRY,3.8,g/dL,3.5,4.6,38,38,g/L,35,46,NORMAL,Y,Y,1,SCREENING 1,-7,2014-03-10T12:31,-8
5,CDISCPILOT01,LB,01-701-1034,1,ALB,Albumin,CHEMISTRY,4.3,g/dL,3.5,4.6,43,43,g/L,35,46,NORMAL,Y,Y,1,SCREENING 1,-7,2014-06-24T15:30,-7
6,CDISCPILOT01,LB,01-701-1015,2,ALP,Alkaline Phosphatase,CHEMISTRY,34,U/L,35,115,34,34,U/L,35,115,LOW,Y,Y,1,SCREENING 1,-7,2013-12-26T14:45,-7
7,CDISCPILOT01,LB,01-701-1023,2,ALP,Alkaline Phosphatase,CHEMISTRY,98,U/L,35,115,98,98,U/L,35,115,NORMAL,Y,Y,1,SCREENING 1,-7,2012-07-22T12:13,-14
8,CDISCPILOT01,LB,01-701-1028,2,ALP,Alkaline Phosphatase,CHEMISTRY,44,U/L,35,115,44,44,U/L,35,115,NORMAL,Y,Y,1,SCREENING 1,-7,2013-07-11T12:02,-8
9,CDISCPILOT01,LB,01-701-1033,2,ALP,Alkaline Phosphatase,CHEMISTRY,67,U/L,35,115,67,67,U/L,35,115,NORMAL,Y,Y,1,SCREENING 1,-7,2014-03-10T12:31,-8
10,CDISCPILOT01,LB,01-701-1034,2,ALP,Alkaline Phosphatase,CHEMISTRY,41,U/L,35,115,41,41,U/L,35,115,NORMAL,Y,Y,1,SCREENING 1,-7,2014-06-24T15:30,-7
11,CDISCPILOT01,LB,01-701-1015,3,AST,Aspartate Aminotransferase,CHEMISTRY,40,U/L,9,34,40,40,U/L,9,34,HIGH,Y,Y,1,SCREENING 1,-7,2013-12-26T14:45,-7
12,CDISCPILOT01,LB,01-701-1023,3,AST,Aspartate Aminotransferase,CHEMISTRY,21,U/L,11,36,21,21,U/L,11,36,NORMAL,Y,Y,1,SCREENING 1,-7,2012-07-22T12:13,-14
13,CDISCPILOT01,LB,01-701-1028,3,AST,Aspartate Aminotransferase,CHEMISTRY,24,U/L,11,36,24,24,U/L,11,36,NORMAL,Y,Y,1,SCREENING 1,-7,2013-07-11T12:02,-8
14,CDISCPILOT01,LB,01-701-1033,3,AST,Aspartate Aminotransferase,CHEMISTRY,20,U/L,11,36,20,20,U/L,11,36,NORMAL,Y,Y,1,SCREENING 1,-7,2014-03-10T12:31,-8
15,CDISCPILOT01,LB,01-701-1034,3,AST,Aspartate Aminotransferase,CHEMISTRY,23,U/L,9,34,23,23,U/L,9,34,NORMAL,Y,Y,1,SCREENING 1,-7,2014-06-24T15:30,-7
16,CDISCPILOT01,LB,01-701-1015,4,CHOL,Cholesterol,CHEMISTRY,230,mg/dL,156,300,5.9478,5.9478,mmol/L,4.029999999999999,7.76,NORMAL,Y,Y,1,SCREENING 1,-7,2013-12-26T14:45,-7
17,CDISCPILOT01,LB,01-701-1023,4,CHOL,Cholesterol,CHEMISTRY,262,mg/dL,149,286,6.77532,6.77532,mmol/L,3.85,7.3999999999999995,NORMAL,Y,Y,1,SCREENING 1,-7,2012-07-22T12:13,-14
18,CDISCPILOT01,LB,01-701-1028,4,CHOL,Cholesterol,CHEMISTRY,186,mg/dL,149,286,4.80996,4.809959999999999,mmol/L,3.85,7.3999999999999995,NORMAL,Y,Y,1,SCREENING 1,-7,2013-07-11T12:02,-8
19,CDISCPILOT01,LB,01-701-1033,4,CHOL,Cholesterol,CHEMISTRY,191,mg/dL,149,286,4.93926,4.93926,mmol/L,3.85,7.3999999999999995,NORMAL,Y,Y,1,SCREENING 1,-7,2014-03-10T12:31,-8
20,CDISCPILOT01,LB,01-701-1034,4,CHOL,Cholesterol,CHEMISTRY,298,mg/dL,156,300,7.70628,7.70628,mmol/L,4.029999999999999,7.76,NORMAL,Y,Y,1,SCREENING 1,-7,2014-06-24T15:30,-7
21,CDISCPILOT01,LB,01-701-1015,5,GGT,Gamma Glutamyl Transferase,CHEMISTRY,15,U/L,5,50,15,15,U/L,5,50,NORMAL,Y,Y,1,SCREENING 1,-7,2013-12-26T14:45,-7
22,CDISCPILOT01,LB,01-701-1023,5,GGT,Gamma Glutamyl Transferase,CHEMISTRY,18,U/L,10,50,18,18,U/L,10,50,NORMAL,Y,Y,1,SCREENING 1,-7,2012-07-22T12:13,-14
23,CDISCPILOT01,LB,01-701-1028,5,GGT,Gamma Glutamyl Transferase,CHEMISTRY,24,U/L,10,50,24,24,U/L,10,50,NORMAL,Y,Y,1,SCREENING 1,-7,2013-07-11T12:02,-8
24,CDISCPILOT01,LB,01-701-1033,5,GGT,Gamma Glutamyl Transferase,CHEMISTRY,21,U/L,10,50,21,21,U/L,10,50,NORMAL,Y,Y,1,SCREENING 1,-7,2014-03-10T12:31,-8
25,CDISCPILOT01,LB,01-701-1034,5,GGT,Gamma Glutamyl Transferase,CHEMISTRY,20,U/L,5,50,20,20,U/L,5,50,NORMAL,Y,Y,1,SCREENING 1,-7,2014-06-24T15:30,-7
26,CDISCPILOT01,LB,01-701-1015,6,GLUC,Glucose,CHEMISTRY,85,mg/dL,50,250,4.71835,4.71835,mmol/L,2.8,13.899999999999999,NORMAL,Y,Y,1,SCREENING 1,-7,2013-12-26T14:45,-7
27,CDISCPILOT01,LB,01-701-1023,6,GLUC,Glucose,CHEMISTRY,96,mg/dL,50,250,5.32896,5.3289599999999995,mmol/L,2.8,13.899999999999999,NORMAL,Y,Y,1,SCREENING 1,-7,2012-07-22T12:13,-14
28,CDISCPILOT01,LB,01-701-1028,6,GLUC,Glucose,CHEMISTRY,86,mg/dL,50,250,4.77386,4.77386,mmol/L,2.8,13.899999999999999,NORMAL,Y,Y,1,SCREENING 1,-7,2013-07-11T12:02,-8
29,CDISCPILOT01,LB,01-701-1033,6,GLUC,Glucose,CHEMISTRY,90,mg/dL,50,250,4.9959,4.9959,mmol/L,2.8,13.899999999999999,NORMAL,Y,Y,1,SCREENING 1,-7,2014-03-10T12:31,-8
30,CDISCPILOT01,LB,01-701-1034,6,GLUC,Glucose,CHEMISTRY,81,mg/dL,50,250,4.49631,4.496309999999999,mmol/L,2.8,13.899999999999999,NORMAL,Y,Y,1,SCREENING 1,-7,2014-06-24T15:30,-7
31,CDISCPILOT01,LB,01-701-1015,7,HBA1CHGB,Hemoglobin A1C/Hemoglobin,CHEMISTRY,7.9,%,4.0,5.7,62.84175,62.841750000000005,mmol/mol,20.21865,38.79795000000001,HIGH,Y,Y,1,SCREENING 1,-7,2013-12-26T14:45,-7
32,CDISCPILOT01,LB,01-701-1023,7,HBA1CHGB,Hemoglobin A1C/Hemoglobin,CHEMISTRY,5.4,%,4.0,5.7,35.51925,35.51925000000001,mmol/mol,20.21865,38.79795000000001,NORMAL,Y,Y,1,SCREENING 1,-7,2012-07-22T12:13,-14
33,CDISCPILOT01,LB,01-701-1028,7,HBA1CHGB,Hemoglobin A1C/Hemoglobin,CHEMISTRY,5,%,4.0,5.7,31.14765,31.147650000000002,mmol/mol,20.21865,38.79795000000001,NORMAL,Y,Y,1,SCREENING 1,-7,2013-07-11T12:02,-8
34,CDISCPILOT01,LB,01-701-1033,7,HBA1CHGB,Hemoglobin A1C/Hemoglobin,CHEMISTRY,6.1,%,4.0,5.7,43.16955,43.16955,mmol/mol,20.21865,38.79795000000001,HIGH,Y,Y,1,SCREENING 1,-7,2014-03-10T12:31,-8
35,CDISCPILOT01,LB,01-701-1034,7,HBA1CHGB,Hemoglobin A1C/Hemoglobin,CHEMISTRY,4.7,%,4.0,5.7,27.86895,27.868950000000005,mmol/mol,20.21865,38.79795000000001,NORMAL,Y,Y,1,SCREENING 1,-7,2014-06-24T15:30,-7
36,CDISCPILOT01,LB,01-701-1015,8,INSULIN,Insulin,CHEMISTRY,14.4,mIU/L,2,25,86.4,86.4,pmol/L,12,150,NORMAL,Y,Y,1,SCREENING 1,-7,2013-12-26T14:45,-7
37,CDISCPILOT01,LB,01-701-1023,8,INSULIN,Insulin,CHEMISTRY,27.5,mIU/L,2,25,165,165,pmol/L,12,150,HIGH,Y,Y,1,SCREENING 1,-7,2012-07-22T12:13,-14
38,CDISCPILOT01,LB,01-701-1028,8,INSULIN,Insulin,CHEMISTRY,26.1,mIU/L,2,25,156.6,156.60000000000002,pmol/L,12,150,HIGH,Y,Y,1,SCREENING 1,-7,2013-07-11T12:02,-8
39,CDISCPILOT01,LB,01-701-1033,8,INSULIN,Insulin,CHEMISTRY,30.7,mIU/L,2,25,184.2,184.2,pmol/L,12,150,HIGH,Y,Y,1,SCREENING 1,-7,2014-03-10T12:31,-8
40,CDISCPILOT01,LB,01-701-1034,8,INSULIN,Insulin,CHEMISTRY,19.7,mIU/L,2,25,118.2,118.19999999999999,pmol/L,12,150,NORMAL,Y,Y,1,SCREENING 1,-7,2014-06-24T15:30,-7
41,CDISCPILOT01,LB,01-701-1015,9,TRIG,Triglycerides,CHEMISTRY,111.1,mg/dL,0,150,1.254319,1.254319,mmol/L,0,1.6935,NORMAL,Y,Y,1,SCREENING 1,-7,2013-12-26T14:45,-7
42,CDISCPILOT01,LB,01-701-1023,9,TRIG,Triglycerides,CHEMISTRY,49.6,mg/dL,0,150,0.559984,0.559984,mmol/L,0,1.6935,NORMAL,Y,Y,1,SCREENING 1,-7,2012-07-22T12:13,-14
43,CDISCPILOT01,LB,01-701-1028,9,TRIG,Triglycerides,CHEMISTRY,45,mg/dL,0,150,0.50805,0.50805,mmol/L,0,1.6935,NORMAL,Y,Y,1,SCREENING 1,-7,2013-07-11T12:02,-8
44,CDISCPILOT01,LB,01-701-1033,9,TRIG,Triglycerides,CHEMISTRY,200.2,mg/dL,0,150,2.260258,2.260258,mmol/L,0,1.6935,HIGH,Y,Y,1,SCREENING 1,-7,2014-03-10T12:31,-8
45,CDISCPILOT01,LB,01-701-1034,9,TRIG,Triglycerides,CHEMISTRY,234.8,mg/dL,0,150,2.650892,2.6508920000000002,mmol/L,0,1.6935,HIGH,Y,Y,1,SCREENING 1,-7,2014-06-24T15:30,-7
46,CDISCPILOT01,LB,01-701-1015,10,ALB,Albumin,CHEMISTRY,3.8,g/dL,3.3,4.9,38,38,g/L,33,49,NORMAL,,Y,9,WEEK 12,84,2014-03-26T15:15,84
47,CDISCPILOT01,LB,01-701-1028,10,ALB,Albumin,CHEMISTRY,4.4,g/dL,3.5,4.6,44,44,g/L,35,46,NORMAL,,Y,9,WEEK 12,84,2013-10-09T08:42,83
48,CDISCPILOT01,LB,01-701-1034,10,ALB,Albumin,CHEMISTRY,3.9,g/dL,3.5,4.6,39,39,g/L,35,46,NORMAL,,Y,9,WEEK 12,84,2014-09-25T15:40,87
49,CDISCPILOT01,LB,01-701-1015,11,ALP,Alkaline Phosphatase,CHEMISTRY,53,U/L,35,115,53,53,U/L,35,115,NORMAL,,Y,9,WEEK 12,84,2014-03-26T15:15,84
50,CDISCPILOT01,LB,01-701-1028,11,ALP,Alkaline Phosphatase,CHEMISTRY,41,U/L,35,115,41,41,U/L,35,115,NORMAL,,Y,9,WEEK 12,84,2013-10-09T08:42,83
51,CDISCPILOT01,LB,01-701-1034,11,ALP,Alkaline Phosphatase,CHEMISTRY,34,U/L,35,115,34,34,U/L,35,115,LOW,,Y,9,WEEK 12,84,2014-09-25T15:40,87
52,CDISCPILOT01,LB,01-701-1015,12,AST,Aspartate Aminotransferase,CHEMISTRY,22,U/L,9,34,22,22,U/L,9,34,NORMAL,,Y,9,WEEK 12,84,2014-03-26T15:15,84
53,CDISCPILOT01,LB,01-701-1028,12,AST,Aspartate Aminotransferase,CHEMISTRY,28,U/L,11,36,28,28,U/L,11,36,NORMAL,,Y,9,WEEK 12,84,2013-10-09T08:42,83
54,CDISCPILOT01,LB,01-701-1034,12,AST,Aspartate Aminotransferase,CHEMISTRY,23,U/L,9,34,23,23,U/L,9,34,NORMAL,,Y,9,WEEK 12,84,2014-09-25T15:40,87
55,CDISCPILOT01,LB,01-701-1015,13,CHOL,Cholesterol,CHEMISTRY,218,mg/dL,156,300,5.63748,5.63748,mmol/L,4.029999999999999,7.76,NORMAL,,Y,9,WEEK 12,84,2014-03-26T15:15,84
56,CDISCPILOT01,LB,01-701-1028,13,CHOL,Cholesterol,CHEMISTRY,196,mg/dL,149,286,5.06856,5.06856,mmol/L,3.85,7.3999999999999995,NORMAL,,Y,9,WEEK 12,84,2013-10-09T08:42,83
57,CDISCPILOT01,LB,01-701-1034,13,CHOL,Cholesterol,CHEMISTRY,261,mg/dL,156,300,6.74946,6.74946,mmol/L,4.029999999999999,7.76,NORMAL,,Y,9,WEEK 12,84,2014-09-25T15:40,87
58,CDISCPILOT01,LB,01-701-1015,14,GGT,Gamma Glutamyl Transferase,CHEMISTRY,23,U/L,5,50,23,23,U/L,5,50,NORMAL,,Y,9,WEEK 12,84,2014-03-26T15:15,84
59,CDISCPILOT01,LB,01-701-1028,14,GGT,Gamma Glutamyl Transferase,CHEMISTRY,23,U/L,10,50,23,23,U/L,10,50,NORMAL,,Y,9,WEEK 12,84,2013-10-09T08:42,83
60,CDISCPILOT01,LB,01-701-1034,14,GGT,Gamma Glutamyl Transferase,CHEMISTRY,14,U/L,5,50,14,14,U/L,5,50,NORMAL,,Y,9,WEEK 12,84,2014-09-25T15:40,87
61,CDISCPILOT01,LB,01-701-1015,15,GLUC,Glucose,CHEMISTRY,87,mg/dL,50,250,4.82937,4.82937,mmol/L,2.8,13.899999999999999,NORMAL,,Y,9,WEEK 12,84,2014-03-26T15:15,84
62,CDISCPILOT01,LB,01-701-1028,15,GLUC,Glucose,CHEMISTRY,87,mg/dL,50,250,4.82937,4.82937,mmol/L,2.8,13.899999999999999,NORMAL,,Y,9,WEEK 12,84,2013-10-09T08:42,83
63,CDISCPILOT01,LB,01-701-1034,15,GLUC,Glucose,CHEMISTRY,91,mg/dL,50,250,5.05141,5.05141,mmol/L,2.8,13.899999999999999,NORMAL,,Y,9,WEEK 12,84,2014-09-25T15:40,87
64,CDISCPILOT01,LB,01-701-1015,16,HBA1CHGB,Hemoglobin A1C/Hemoglobin,CHEMISTRY,6.9,%,4.0,5.7,51.91275,51.91275,mmol/mol,20.21865,38.79795000000001,HIGH,,Y,9,WEEK 12,84,2014-03-26T15:15,84
65,CDISCPILOT01,LB,01-701-1028,16,HBA1CHGB,Hemoglobin A1C/Hemoglobin,CHEMISTRY,8.1,%,4.0,5.7,65.02755,65.02754999999999,mmol/mol,20.21865,38.79795000000001,HIGH,,Y,9,WEEK 12,84,2013-10-09T08:42,83
66,CDISCPILOT01,LB,01-701-1034,16,HBA1CHGB,Hemoglobin A1C/Hemoglobin,CHEMISTRY,5.6,%,4.0,5.7,37.70505,37.70505,mmol/mol,20.21865,38.79795000000001,NORMAL,,Y,9,WEEK 12,84,2014-09-25T15:40,87
67,CDISCPILOT01,LB,01-701-1015,17,INSULIN,Insulin,CHEMISTRY,31.1,mIU/L,2,25,186.6,186.60000000000002,pmol/L,12,150,HIGH,,Y,9,WEEK 12,84,2014-03-26T15:15,84
68,CDISCPILOT01,LB,01-701-1028,17,INSULIN,Insulin,CHEMISTRY,36.8,mIU/L,2,25,220.8,220.79999999999998,pmol/L,12,150,HIGH,,Y,9,WEEK 12,84,2013-10-09T08:42,83
69,CDISCPILOT01,LB,01-701-1034,17,INSULIN,Insulin,CHEMISTRY,29.9,mIU/L,2,25,179.4,179.39999999999998,pmol/L,12,150,HIGH,,Y,9,WEEK 12,84,2014-09-25T15:40,87
70,CDISCPILOT01,LB,01-701-1015,18,TRIG,Triglycerides,CHEMISTRY,39.2,mg/dL,0,150,0.442568,0.442568,mmol/L,0,1.6935,NORMAL,,Y,9,WEEK 12,84,2014-03-26T15:15,84
71,CDISCPILOT01,LB,01-701-1028,18,TRIG,Triglycerides,CHEMISTRY,201.7,mg/dL,0,150,2.277193,2.277193,mmol/L,0,1.6935,HIGH,,Y,9,WEEK 12,84,2013-10-09T08:42,83
72,CDISCPILOT01,LB,01-701-1034,18,TRIG,Triglycerides,CHEMISTRY,87.3,mg/dL,0,150,0.985617,0.985617,mmol/L,0,1.6935,NORMAL,,Y,9,WEEK 12,84,2014-09-25T15:40,87
73,CDISCPILOT01,LB,01-701-1015,19,ALB,Albumin,CHEMISTRY,3.7,g/dL,3.3,4.9,37,37,g/L,33,49,NORMAL,,Y,10,WEEK 16,112,2014-05-07T11:21,126
74,CDISCPILOT01,LB,01-701-1028,19,ALB,Albumin,CHEMISTRY,3.7,g/dL,3.5,4.6,37,37,g/L,35,46,NORMAL,,Y,10,WEEK 16,112,2013-11-06T10:08,111
75,CDISCPILOT01,LB,01-701-1034,19,ALB,Albumin,CHEMISTRY,3.9,g/dL,3.5,4.6,39,39,g/L,35,46,NORMAL,,Y,10,WEEK 16,112,2014-10-21T09:52,113
76,CDISCPILOT01,LB,01-701-1015,20,ALP,Alkaline Phosphatase,CHEMISTRY,41,U/L,35,115,41,41,U/L,35,115,NORMAL,,Y,10,WEEK 16,112,2014-05-07T11:21,126
77,CDISCPILOT01,LB,01-701-1028,20,ALP,Alkaline Phosphatase,CHEMISTRY,36,U/L,35,115,36,36,U/L,35,115,NORMAL,,Y,10,WEEK 16,112,2013-11-06T10:08,111
78,CDISCPILOT01,LB,01-701-1034,20,ALP,Alkaline Phosphatase,CHEMISTRY,34,U/L,35,115,34,34,U/L,35,115,LOW,,Y,10,WEEK 16,112,2014-10-21T09:52,113
79,CDISCPILOT01,LB,01-701-1015,21,AST,Aspartate Aminotransferase,CHEMISTRY,23,U/L,9,34,23,23,U/L,9,34,NORMAL,,Y,10,WEEK 16,112,2014-05-07T11:21,126
80,CDISCPILOT01,LB,01-701-1028,21,AST,Aspartate Aminotransferase,CHEMISTRY,18,U/L,11,36,18,18,U/L,11,36,NORMAL,,Y,10,WEEK 16,112,2013-11-06T10:08,111
81,CDISCPILOT01,LB,01-701-1034,21,AST,Aspartate Aminotransferase,CHEMISTRY,21,U/L,9,34,21,21,U/L,9,34,NORMAL,,Y,10,WEEK 16,112,2014-10-21T09:52,113
82,CDISCPILOT01,LB,01-701-1015,22,CHOL,Cholesterol,CHEMISTRY,213,mg/dL,156,300,5.50818,5.508179999999999,mmol/L,4.029999999999999,7.76,NORMAL,,Y,10,WEEK 16,112,2014-05-07T11:21,126
83,CDISCPILOT01,LB,01-701-1028,22,CHOL,Cholesterol,CHEMISTRY,152,mg/dL,149,286,3.93072,3.93072,mmol/L,3.85,7.3999999999999995,NORMAL,,Y,10,WEEK 16,112,2013-11-06T10:08,111
84,CDISCPILOT01,LB,01-701-1034,22,CHOL,Cholesterol,CHEMISTRY,277,mg/dL,156,300,7.16322,7.16322,mmol/L,4.029999999999999,7.76,NORMAL,,Y,10,WEEK 16,112,2014-10-21T09:52,113
85,CDISCPILOT01,LB,01-701-1015,23,GGT,Gamma Glutamyl Transferase,CHEMISTRY,15,U/L,5,50,15,15,U/L,5,50,NORMAL,,Y,10,WEEK 16,112,2014-05-07T11:21,126
86,CDISCPILOT01,LB,01-701-1028,23,GGT,Gamma Glutamyl Transferase,CHEMISTRY,19,U/L,10,50,19,19,U/L,10,50,NORMAL,,Y,10,WEEK 16,112,2013-11-06T10:08,111
87,CDISCPILOT01,LB,01-701-1034,23,GGT,Gamma Glutamyl Transferase,CHEMISTRY,18,U/L,5,50,18,18,U/L,5,50,NORMAL,,Y,10,WEEK 16,112,2014-10-21T09:52,113
88,CDISCPILOT01,LB,01-701-1015,24,GLUC,Glucose,CHEMISTRY,86,mg/dL,50,250,4.77386,4.77386,mmol/L,2.8,13.899999999999999,NORMAL,,Y,10,WEEK 16,112,2014-05-07T11:21,126
89,CDISCPILOT01,LB,01-701-1028,24,GLUC,Glucose,CHEMISTRY,87,mg/dL,50,250,4.82937,4.82937,mmol/L,2.8,13.899999999999999,NORMAL,,Y,10,WEEK 16,112,2013-11-06T10:08,111
90,CDISCPILOT01,LB,01-701-1034,24,GLUC,Glucose,CHEMISTRY,92,mg/dL,50,250,5.10692,5.10692,mmol/L,2.8,13.899999999999999,NORMAL,,Y,10,WEEK 16,112,2014-10-21T09:52,113
91,CDISCPILOT01,LB,01-701-1015,25,HBA1CHGB,Hemoglobin A1C/Hemoglobin,CHEMISTRY,5.2,%,4.0,5.7,33.33345,33.333450000000006,mmol/mol,20.21865,38.79795000000001,NORMAL,,Y,10,WEEK 16,112,2014-05-07T11:21,126
92,CDISCPILOT01,LB,01-701-1028,25,HBA1CHGB,Hemoglobin A1C/Hemoglobin,CHEMISTRY,7.8,%,4.0,5.7,61.74885,61.748850000000004,mmol/mol,20.21865,38.79795000000001,HIGH,,Y,10,WEEK 16,112,2013-11-06T10:08,111
93,CDISCPILOT01,LB,01-701-1034,25,HBA1CHGB,Hemoglobin A1C/Hemoglobin,CHEMISTRY,5.8,%,4.0,5.7,39.89085,39.89085,mmol/mol,20.21865,38.79795000000001,HIGH,,Y,10,WEEK 16,112,2014-10-21T09:52,113
94,CDISCPILOT01,LB,01-701-1015,26,INSULIN,Insulin,CHEMISTRY,40.7,mIU/L,2,25,244.2,244.20000000000002,pmol/L,12,150,HIGH,,Y,10,WEEK 16,112,2014-05-07T11:21,126
95,CDISCPILOT01,LB,01-701-1028,26,INSULIN,Insulin,CHEMISTRY,20.9,mIU/L,2,25,125.4,125.39999999999999,pmol/L,12,150,NORMAL,,Y,10,WEEK 16,112,2013-11-06T10:08,111
96,CDISCPILOT01,LB,01-701-1034,26,INSULIN,Insulin,CHEMISTRY,11.5,mIU/L,2,25,69,69,pmol/L,12,150,NORMAL,,Y,10,WEEK 16,112,2014-10-21T09:52,113
97,CDISCPILOT01,LB,01-701-1015,27,TRIG,Triglycerides,CHEMISTRY,24.9,mg/dL,0,150,0.281121,0.28112099999999995,mmol/L,0,1.6935,NORMAL,,Y,10,WEEK 16,112,2014-05-07T11:21,126
98,CDISCPILOT01,LB,01-701-1028,27,TRIG,Triglycerides,CHEMISTRY,162.9,mg/dL,0,150,1.839141,1.839141,mmol/L,0,1.6935,HIGH,,Y,10,WEEK 16,112,2013-11-06T10:08,111
99,CDISCPILOT01,LB,01-701-1034,27,TRIG,Triglycerides,CHEMISTRY,246.3,mg/dL,0,150,2.780727,2.780727,mmol/L,0,1.6935,HIGH,,Y,10,WEEK 16,112,2014-10-21T09:52,113
100,CDISCPILOT01,LB,01-701-1015,28,ALB,Albumin,CHEMISTRY,3.9,g/dL,3.3,4.9,39,39,g/L,33,49,NORMAL,,Y,4,WEEK 2,14,2014-01-16T13:17,15
101,CDISCPILOT01,LB,01-701-1023,10,ALB,Albumin,CHEMISTRY,3.6,g/dL,3.3,4.9,36,36,g/L,33,49,NORMAL,,Y,4,WEEK 2,14,2012-08-27T15:47,23
102,CDISCPILOT01,LB,01-701-1028,28,ALB,Albumin,CHEMISTRY,4.2,g/dL,3.5,4.6,42,42,g/L,35,46,NORMAL,,Y,4,WEEK 2,14,2013-08-01T09:15,14
103,CDISCPILOT01,LB,01-701-1033,10,ALB,Albumin,CHEMISTRY,4.1,g/dL,3.5,4.6,41,41,g/L,35,46,NORMAL,,Y,4,WEEK 2,14,2014-04-01T08:55,15
104,CDISCPILOT01,LB,01-701-1034,28,ALB,Albumin,CHEMISTRY,4.2,g/dL,3.5,4.6,42,42,g/L,35,46,NORMAL,,Y,4,WEEK 2,14,2014-07-15T09:25,15
105,CDISCPILOT01,LB,01-701-1015,29,ALP,Alkaline Phosphatase,CHEMISTRY,50,U/L,35,115,50,50,U/L,35,115,NORMAL,,Y,4,WEEK 2,14,2014-01-16T13:17,15
106,CDISCPILOT01,LB,01-701-1023,11,ALP,Alkaline Phosphatase,CHEMISTRY,90,U/L,35,115,90,90,U/L,35,115,NORMAL,,Y,4,WEEK 2,14,2012-08-27T15:47,23
107,CDISCPILOT01,LB,01-701-1028,29,ALP,Alkaline Phosphatase,CHEMISTRY,46,U/L,35,115,46,46,U/L,35,115,NORMAL,,Y,4,WEEK 2,14,2013-08-01T09:15,14
108,CDISCPILOT01,LB,01-701-1033,11,ALP,Alkaline Phosphatase,CHEMISTRY,89,U/L,35,115,89,89,U/L,35,115,NORMAL,,Y,4,WEEK 2,14,2014-04-01T08:55,15
109,CDISCPILOT01,LB,01-701-1034,29,ALP,Alkaline Phosphatase,CHEMISTRY,34,U/L,35,115,34,34,U/L,35,115,LOW,,Y,4,WEEK 2,14,2014-07-15T09:25,15
110,CDISCPILOT01,LB,01-701-1015,30,AST,Aspartate Aminotransferase,CHEMISTRY,33,U/L,9,34,33,33,U/L,9,34,NORMAL,,Y,4,WEEK 2,14,2014-01-16T13:17,15
111,CDISCPILOT01,LB,01-701-1023,12,AST,Aspartate Aminotransferase,CHEMISTRY,25,U/L,11,36,25,25,U/L,11,36,NORMAL,,Y,4,WEEK 2,14,2012-08-27T15:47,23
112,CDISCPILOT01,LB,01-701-1028,30,AST,Aspartate Aminotransferase,CHEMISTRY,23,U/L,11,36,23,23,U/L,11,36,NORMAL,,Y,4,WEEK 2,14,2013-08-01T09:15,14
113,CDISCPILOT01,LB,01-701-1033,12,AST,Aspartate Aminotransferase,CHEMISTRY,26,U/L,11,36,26,26,U/L,11,36,NORMAL,,Y,4,WEEK 2,14,2014-04-01T08:55,15
114,CDISCPILOT01,LB,01-701-1034,30,AST,Aspartate Aminotransferase,CHEMISTRY,23,U/L,9,34,23,23,U/L,9,34,NORMAL,,Y,4,WEEK 2,14,2014-07-15T09:25,15
115,CDISCPILOT01,LB,01-701-1015,31,CHOL,Cholesterol,CHEMISTRY,212,mg/dL,156,300,5.48232,5.48232,mmol/L,4.029999999999999,7.76,NORMAL,,Y,4,WEEK 2,14,2014-01-16T13:17,15
116,CDISCPILOT01,LB,01-701-1023,13,CHOL,Cholesterol,CHEMISTRY,237,mg/dL,149,286,6.12882,6.128819999999999,mmol/L,3.85,7.3999999999999995,NORMAL,,Y,4,WEEK 2,14,2012-08-27T15:47,23
117,CDISCPILOT01,LB,01-701-1028,31,CHOL,Cholesterol,CHEMISTRY,182,mg/dL,149,286,4.70652,4.706519999999999,mmol/L,3.85,7.3999999999999995,NORMAL,,Y,4,WEEK 2,14,2013-08-01T09:15,14
118,CDISCPILOT01,LB,01-701-1033,13,CHOL,Cholesterol,CHEMISTRY,197,mg/dL,149,286,5.09442,5.0944199999999995,mmol/L,3.85,7.3999999999999995,NORMAL,,Y,4,WEEK 2,14,2014-04-01T08:55,15
119,CDISCPILOT01,LB,01-701-1034,31,CHOL,Cholesterol,CHEMISTRY,271,mg/dL,156,300,7.00806,7.0080599999999995,mmol/L,4.029999999999999,7.76,NORMAL,,Y,4,WEEK 2,14,2014-07-15T09:25,15
120,CDISCPILOT01,LB,01-701-1015,32,GGT,Gamma Glutamyl Transferase,CHEMISTRY,19,U/L,5,50,19,19,U/L,5,50,NORMAL,,Y,4,WEEK 2,14,2014-01-16T13:17,15
121,CDISCPILOT01,LB,01-701-1023,14,GGT,Gamma Glutamyl Transferase,CHEMISTRY,22,U/L,10,50,22,22,U/L,10,50,NORMAL,,Y,4,WEEK 2,14,2012-08-27T15:47,23
122,CDISCPILOT01,LB,01-701-1028,32,GGT,Gamma Glutamyl Transferase,CHEMISTRY,28,U/L,10,50,28,28,U/L,10,50,NORMAL,,Y,4,WEEK 2,14,2013-08-01T09:15,14
123,CDISCPILOT01,LB,01-701-1033,14,GGT,Gamma Glutamyl Transferase,CHEMISTRY,26,U/L,10,50,26,26,U/L,10,50,NORMAL,,Y,4,WEEK 2,14,2014-04-01T08:55,15
124,CDISCPILOT01,LB,01-701-1034,32,GGT,Gamma Glutamyl Transferase,CHEMISTRY,19,U/L,5,50,19,19,U/L,5,50,NORMAL,,Y,4,WEEK 2,14,2014-07-15T09:25,15
125,CDISCPILOT01,LB,01-701-1015,33,GLUC,Glucose,CHEMISTRY,84,mg/dL,50,250,4.66284,4.66284,mmol/L,2.8,13.899999999999999,NORMAL,,Y,4,WEEK 2,14,2014-01-16T13:17,15
126,CDISCPILOT01,LB,01-701-1023,15,GLUC,Glucose,CHEMISTRY,104,mg/dL,50,250,5.77304,5.77304,mmol/L,2.8,13.899999999999999,NORMAL,,Y,4,WEEK 2,14,2012-08-27T15:47,23
127,CDISCPILOT01,LB,01-701-1028,33,GLUC,Glucose,CHEMISTRY,75,mg/dL,50,250,4.16325,4.16325,mmol/L,2.8,13.899999999999999,NORMAL,,Y,4,WEEK 2,14,2013-08-01T09:15,14
128,CDISCPILOT01,LB,01-701-1033,15,GLUC,Glucose,CHEMISTRY,103,mg/dL,50,250,5.71753,5.71753,mmol/L,2.8,13.899999999999999,NORMAL,,Y,4,WEEK 2,14,2014-04-01T08:55,15
129,CDISCPILOT01,LB,01-701-1034,33,GLUC,Glucose,CHEMISTRY,85,mg/dL,50,250,4.71835,4.71835,mmol/L,2.8,13.899999999999999,NORMAL,,Y,4,WEEK 2,14,2014-07-15T09:25,15
130,CDISCPILOT01,LB,01-701-1015,34,HBA1CHGB,Hemoglobin A1C/Hemoglobin,CHEMISTRY,8.7,%,4.0,5.7,71.58495,71.58494999999999,mmol/mol,20.21865,38.79795000000001,HIGH,,Y,4,WEEK 2,14,2014-01-16T13:17,15
131,CDISCPILOT01,LB,01-701-1023,16,HBA1CHGB,Hemoglobin A1C/Hemoglobin,CHEMISTRY,8.5,%,4.0,5.7,69.39915,69.39914999999999,mmol/mol,20.21865,38.79795000000001,HIGH,,Y,4,WEEK 2,14,2012-08-27T15:47,23
132,CDISCPILOT01,LB,01-701-1028,34,HBA1CHGB,Hemoglobin A1C/Hemoglobin,CHEMISTRY,8.5,%,4.0,5.7,69.39915,69.39914999999999,mmol/mol,20.21865,38.79795000000001,HIGH,,Y,4,WEEK 2,14,2013-08-01T09:15,14
133,CDISCPILOT01,LB,01-701-1033,16,HBA1CHGB,Hemoglobin A1C/Hemoglobin,CHEMISTRY,6.2,%,4.0,5.7,44.26245,44.26245000000001,mmol/mol,20.21865,38.79795000000001,HIGH,,Y,4,WEEK 2,14,2014-04-01T08:55,15
134,CDISCPILOT01,LB,01-701-1034,34,HBA1CHGB,Hemoglobin A1C/Hemoglobin,CHEMISTRY,4.3,%,4.0,5.7,23.49735,23.49735,mmol/mol,20.21865,38.79795000000001,NORMAL,,Y,4,WEEK 2,14,2014-07-15T09:25,15
135,CDISCPILOT01,LB,01-701-1015,35,INSULIN,Insulin,CHEMISTRY,40,mIU/L,2,25,240,240,pmol/L,12,150,HIGH,,Y,4,WEEK 2,14,2014-01-16T13:17,15
136,CDISCPILOT01,LB,01-701-1023,17,INSULIN,Insulin,CHEMISTRY,43.4,mIU/L,2,25,260.4,260.4,pmol/L,12,150,HIGH,,Y,4,WEEK 2,14,2012-08-27T15:47,23
137,CDISCPILOT01,LB,01-701-1028,35,INSULIN,Insulin,CHEMISTRY,34.4,mIU/L,2,25,206.4,206.39999999999998,pmol/L,12,150,HIGH,,Y,4,WEEK 2,14,2013-08-01T09:15,14
138,CDISCPILOT01,LB,01-701-1033,17,INSULIN,Insulin,CHEMISTRY,6.4,mIU/L,2,25,38.4,38.400000000000006,pmol/L,12,150,NORMAL,,Y,4,WEEK 2,14,2014-04-01T08:55,15
139,CDISCPILOT01,LB,01-701-1034,35,INSULIN,Insulin,CHEMISTRY,15,mIU/L,2,25,90,90,pmol/L,12,150,NORMAL,,Y,4,WEEK 2,14,2014-07-15T09:25,15
140,CDISCPILOT01,LB,01-701-1015,36,TRIG,Triglycerides,CHEMISTRY,25.7,mg/dL,0,150,0.290153,0.290153,mmol/L,0,1.6935,NORMAL,,Y,4,WEEK 2,14,2014-01-16T13:17,15
141,CDISCPILOT01,LB,01-701-1023,18,TRIG,Triglycerides,CHEMISTRY,177.3,mg/dL,0,150,2.001717,2.001717,mmol/L,0,1.6935,HIGH,,Y,4,WEEK 2,14,2012-08-27T15:47,23
142,CDISCPILOT01,LB,01-701-1028,36,TRIG,Triglycerides,CHEMISTRY,103,mg/dL,0,150,1.16287,1.16287,mmol/L,0,1.6935,NORMAL,,Y,4,WEEK 2,14,2013-08-01T09:15,14
143,CDISCPILOT01,LB,01-701-1033,18,TRIG,Triglycerides,CHEMISTRY,246.5,mg/dL,0,150,2.782985,2.782985,mmol/L,0,1.6935,HIGH,,Y,4,WEEK 2,14,2014-04-01T08:55,15
144,CDISCPILOT01,LB,01-701-1034,36,TRIG,Triglycerides,CHEMISTRY,237.7,mg/dL,0,150,2.683633,2.683633,mmol/L,0,1.6935,HIGH,,Y,4,WEEK 2,14,2014-07-15T09:25,15
145,CDISCPILOT01,LB,01-701-1015,37,ALB,Albumin,CHEMISTRY,3.7,g/dL,3.3,4.9,37,37,g/L,33,49,NORMAL,,Y,11,WEEK 20,140,2014-05-21T10:58,140
146,CDISCPILOT01,LB,01-701-1028,37,ALB,Albumin,CHEMISTRY,4.0,g/dL,3.5,4.6,40,40,g/L,35,46,NORMAL,,Y,11,WEEK 20,140,2013-12-04T15:10,139
147,CDISCPILOT01,LB,01-701-1034,37,ALB,Albumin,CHEMISTRY,3.9,g/dL,3.5,4.6,39,39,g/L,35,46,NORMAL,,Y,11,WEEK 20,140,2014-11-18T12:23,141
148,CDISCPILOT01,LB,01-701-1015,38,ALP,Alkaline Phosphatase,CHEMISTRY,45,U/L,35,115,45,45,U/L,35,115,NORMAL,,Y,11,WEEK 20,140,2014-05-21T10:58,140
149,CDISCPILOT01,LB,01-701-1028,38,ALP,Alkaline Phosphatase,CHEMISTRY,43,U/L,35,115,43,43,U/L,35,115,NORMAL,,Y,11,WEEK 20,140,2013-12-04T15:10,139
150,CDISCPILOT01,LB,01-701-1034,38,ALP,Alkaline Phosphatase,CHEMISTRY,31,U/L,35,115,31,31,U/L,35,115,LOW,,Y,11,WEEK 20,140,2014-11-18T12:23,141
151,CDISCPILOT01,LB,01-701-1015,39,AST,Aspartate Aminotransferase,CHEMISTRY,19,U/L,9,34,19,19,U/L,9,34,NORMAL,,Y,11,WEEK 20,140,2014-05-21T10:58,140
152,CDISCPILOT01,LB,01-701-1028,39,AST,Aspartate Aminotransferase,CHEMISTRY,21,U/L,11,36,21,21,U/L,11,36,NORMAL,,Y,11,WEEK 20,140,2013-12-04T15:10,139
153,CDISCPILOT01,LB,01-701-1034,39,AST,Aspartate Aminotransferase,CHEMISTRY,22,U/L,9,34,22,22,U/L,9,34,NORMAL,,Y,11,WEEK 20,140,2014-11-18T12:23,141
154,CDISCPILOT01,LB,01-701-1015,40,CHOL,Cholesterol,CHEMISTRY,207,mg/dL,156,300,5.35302,5.35302,mmol/L,4.029999999999999,7.76,NORMAL,,Y,11,WEEK 20,140,2014-05-21T10:58,140
155,CDISCPILOT01,LB,01-701-1028,40,CHOL,Cholesterol,CHEMISTRY,170,mg/dL,149,286,4.3962,4.396199999999999,mmol/L,3.85,7.3999999999999995,NORMAL,,Y,11,WEEK 20,140,2013-12-04T15:10,139
156,CDISCPILOT01,LB,01-701-1034,40,CHOL,Cholesterol,CHEMISTRY,236,mg/dL,156,300,6.10296,6.1029599999999995,mmol/L,4.029999999999999,7.76,NORMAL,,Y,11,WEEK 20,140,2014-11-18T12:23,141
157,CDISCPILOT01,LB,01-701-1015,41,GGT,Gamma Glutamyl Transferase,CHEMISTRY,17,U/L,5,50,17,17,U/L,5,50,NORMAL,,Y,11,WEEK 20,140,2014-05-21T10:58,140
158,CDISCPILOT01,LB,01-701-1028,41,GGT,Gamma Glutamyl Transferase,CHEMISTRY,20,U/L,10,50,20,20,U/L,10,50,NORMAL,,Y,11,WEEK 20,140,2013-12-04T15:10,139
159,CDISCPILOT01,LB,01-701-1034,41,GGT,Gamma Glutamyl Transferase,CHEMISTRY,21,U/L,5,50,21,21,U/L,5,50,NORMAL,,Y,11,WEEK 20,140,2014-11-18T12:23,141
160,CDISCPILOT01,LB,01-701-1015,42,GLUC,Glucose,CHEMISTRY,88,mg/dL,50,250,4.88488,4.88488,mmol/L,2.8,13.899999999999999,NORMAL,,Y,11,WEEK 20,140,2014-05-21T10:58,140
161,CDISCPILOT01,LB,01-701-1028,42,GLUC,Glucose,CHEMISTRY,82,mg/dL,50,250,4.55182,4.551819999999999,mmol/L,2.8,13.899999999999999,NORMAL,,Y,11,WEEK 20,140,2013-12-04T15:10,139
162,CDISCPILOT01,LB,01-701-1034,42,GLUC,Glucose,CHEMISTRY,87,mg/dL,50,250,4.82937,4.82937,mmol/L,2.8,13.899999999999999,NORMAL,,Y,11,WEEK 20,140,2014-11-18T12:23,141
163,CDISCPILOT01,LB,01-701-1015,43,HBA1CHGB,Hemoglobin A1C/Hemoglobin,CHEMISTRY,8.8,%,4.0,5.7,72.67785,72.67785,mmol/mol,20.21865,38.79795000000001,HIGH,,Y,11,WEEK 20,140,2014-05-21T10:58,140
164,CDISCPILOT01,LB,01-701-1028,43,HBA1CHGB,Hemoglobin A1C/Hemoglobin,CHEMISTRY,4,%,4.0,5.7,20.21865,20.21865,mmol/mol,20.21865,38.79795000000001,NORMAL,,Y,11,WEEK 20,140,2013-12-04T15:10,139
165,CDISCPILOT01,LB,01-701-1034,43,HBA1CHGB,Hemoglobin A1C/Hemoglobin,CHEMISTRY,4.5,%,4.0,5.7,25.68315,25.68315,mmol/mol,20.21865,38.79795000000001,NORMAL,,Y,11,WEEK 20,140,2014-11-18T12:23,141
166,CDISCPILOT01,LB,01-701-1015,44,INSULIN,Insulin,CHEMISTRY,16.1,mIU/L,2,25,96.6,96.60000000000001,pmol/L,12,150,NORMAL,,Y,11,WEEK 20,140,2014-05-21T10:58,140
167,CDISCPILOT01,LB,01-701-1028,44,INSULIN,Insulin,CHEMISTRY,32.5,mIU/L,2,25,195,195,pmol/L,12,150,HIGH,,Y,11,WEEK 20,140,2013-12-04T15:10,139
168,CDISCPILOT01,LB,01-701-1034,44,INSULIN,Insulin,CHEMISTRY,8.6,mIU/L,2,25,51.6,51.599999999999994,pmol/L,12,150,NORMAL,,Y,11,WEEK 20,140,2014-11-18T12:23,141
169,CDISCPILOT01,LB,01-701-1015,45,TRIG,Triglycerides,CHEMISTRY,224,mg/dL,0,150,2.52896,2.52896,mmol/L,0,1.6935,HIGH,,Y,11,WEEK 20,140,2014-05-21T10:58,140
170,CDISCPILOT01,LB,01-701-1028,45,TRIG,Triglycerides,CHEMISTRY,126.7,mg/dL,0,150,1.430443,1.430443,mmol/L,0,1.6935,NORMAL,,Y,11,WEEK 20,140,2013-12-04T15:10,139
171,CDISCPILOT01,LB,01-701-1034,45,TRIG,Triglycerides,CHEMISTRY,48.3,mg/dL,0,150,0.545307,0.545307,mmol/L,0,1.6935,NORMAL,,Y,11,WEEK 20,140,2014-11-18T12:23,141
172,CDISCPILOT01,LB,01-701-1015,46,ALB,Albumin,CHEMISTRY,3.8,g/dL,3.3,4.9,38,38,g/L,33,49,NORMAL,,Y,12,WEEK 24,168,2014-06-18T13:00,168
173,CDISCPILOT01,LB,01-701-1028,46,ALB,Albumin,CHEMISTRY,4.2,g/dL,3.5,4.6,42,42,g/L,35,46,NORMAL,,Y,12,WEEK 24,168,2014-01-06T10:00,172
174,CDISCPILOT01,LB,01-701-1034,46,ALB,Albumin,CHEMISTRY,4.0,g/dL,3.5,4.6,40,40,g/L,35,46,NORMAL,,Y,12,WEEK 24,168,2014-12-17T14:27,170
175,CDISCPILOT01,LB,01-701-1015,47,ALP,Alkaline Phosphatase,CHEMISTRY,46,U/L,35,115,46,46,U/L,35,115,NORMAL,,Y,12,WEEK 24,168,2014-06-18T13:00,168
176,CDISCPILOT01,LB,01-701-1028,47,ALP,Alkaline Phosphatase,CHEMISTRY,47,U/L,35,115,47,47,U/L,35,115,NORMAL,,Y,12,WEEK 24,168,2014-01-06T10:00,172
177,CDISCPILOT01,LB,01-701-1034,47,ALP,Alkaline Phosphatase,CHEMISTRY,40,U/L,35,115,40,40,U/L,35,115,NORMAL,,Y,12,WEEK 24,168,2014-12-17T14:27,170
178,CDISCPILOT01,LB,01-701-1015,48,AST,Aspartate Aminotransferase,CHEMISTRY,23,U/L,9,34,23,23,U/L,9,34,NORMAL,,Y,12,WEEK 24,168,2014-06-18T13:00,168
179,CDISCPILOT01,LB,01-701-1028,48,AST,Aspartate Aminotransferase,CHEMISTRY,23,U/L,11,36,23,23,U/L,11,36,NORMAL,,Y,12,WEEK 24,168,2014-01-06T10:00,172
180,CDISCPILOT01,LB,01-701-1034,48,AST,Aspartate Aminotransferase,CHEMISTRY,17,U/L,9,34,17,17,U/L,9,34,NORMAL,,Y,12,WEEK 24,168,2014-12-17T14:27,170
181,CDISCPILOT01,LB,01-701-1015,49,CHOL,Cholesterol,CHEMISTRY,201,mg/dL,156,300,5.19786,5.1978599999999995,mmol/L,4.029999999999999,7.76,NORMAL,,Y,12,WEEK 24,168,2014-06-18T13:00,168
182,CDISCPILOT01,LB,01-701-1028,49,CHOL,Cholesterol,CHEMISTRY,164,mg/dL,149,286,4.24104,4.24104,mmol/L,3.85,7.3999999999999995,NORMAL,,Y,12,WEEK 24,168,2014-01-06T10:00,172
183,CDISCPILOT01,LB,01-701-1034,49,CHOL,Cholesterol,CHEMISTRY,236,mg/dL,156,300,6.10296,6.1029599999999995,mmol/L,4.029999999999999,7.76,NORMAL,,Y,12,WEEK 24,168,2014-12-17T14:27,170
184,CDISCPILOT01,LB,01-701-1015,50,GGT,Gamma Glutamyl Transferase,CHEMISTRY,20,U/L,5,50,20,20,U/L,5,50,NORMAL,,Y,12,WEEK 24,168,2014-06-18T13:00,168
185,CDISCPILOT01,LB,01-701-1028,50,GGT,Gamma Glutamyl Transferase,CHEMISTRY,23,U/L,10,50,23,23,U/L,10,50,NORMAL,,Y,12,WEEK 24,168,2014-01-06T10:00,172
186,CDISCPILOT01,LB,01-701-1034,50,GGT,Gamma Glutamyl Transferase,CHEMISTRY,17,U/L,5,50,17,17,U/L,5,50,NORMAL,,Y,12,WEEK 24,168,2014-12-17T14:27,170
187,CDISCPILOT01,LB,01-701-1015,51,GLUC,Glucose,CHEMISTRY,81,mg/dL,50,250,4.49631,4.496309999999999,mmol/L,2.8,13.899999999999999,NORMAL,,Y,12,WEEK 24,168,2014-06-18T13:00,168
188,CDISCPILOT01,LB,01-701-1028,51,GLUC,Glucose,CHEMISTRY,98,mg/dL,50,250,5.43998,5.439979999999999,mmol/L,2.8,13.899999999999999,NORMAL,,Y,12,WEEK 24,168,2014-01-06T10:00,172
189,CDISCPILOT01,LB,01-701-1034,51,GLUC,Glucose,CHEMISTRY,92,mg/dL,50,250,5.10692,5.10692,mmol/L,2.8,13.899999999999999,NORMAL,,Y,12,WEEK 24,168,2014-12-17T14:27,170
190,CDISCPILOT01,LB,01-701-1015,52,HBA1CHGB,Hemoglobin A1C/Hemoglobin,CHEMISTRY,7.2,%,4.0,5.7,55.19145,55.19145000000001,mmol/mol,20.21865,38.79795000000001,HIGH,,Y,12,WEEK 24,168,2014-06-18T13:00,168
191,CDISCPILOT01,LB,01-701-1028,52,HBA1CHGB,Hemoglobin A1C/Hemoglobin,CHEMISTRY,5.9,%,4.0,5.7,40.98375,40.98375000000001,mmol/mol,20.21865,38.79795000000001,HIGH,,Y,12,WEEK 24,168,2014-01-06T10:00,172
192,CDISCPILOT01,LB,01-701-1034,52,HBA1CHGB,Hemoglobin A1C/Hemoglobin,CHEMISTRY,7.1,%,4.0,5.7,54.09855,54.098549999999996,mmol/mol,20.21865,38.79795000000001,HIGH,,Y,12,WEEK 24,168,2014-12-17T14:27,170
193,CDISCPILOT01,LB,01-701-1015,53,INSULIN,Insulin,CHEMISTRY,31.8,mIU/L,2,25,190.8,190.8,pmol/L,12,150,HIGH,,Y,12,WEEK 24,168,2014-06-18T13:00,168
194,CDISCPILOT01,LB,01-701-1028,53,INSULIN,Insulin,CHEMISTRY,11.5,mIU/L,2,25,69,69,pmol/L,12,150,NORMAL,,Y,12,WEEK 24,168,2014-01-06T10:00,172
195,CDISCPILOT01,LB,01-701-1034,53,INSULIN,Insulin,CHEMISTRY,31.7,mIU/L,2,25,190.2,190.2,pmol/L,12,150,HIGH,,Y,12,WEEK 24,168,2014-12-17T14:27,170
196,CDISCPILOT01,LB,01-701-1015,54,TRIG,Triglycerides,CHEMISTRY,248.7,mg/dL,0,150,2.807823,2.807823,mmol/L,0,1.6935,HIGH,,Y,12,WEEK 24,168,2014-06-18T13:00,168
197,CDISCPILOT01,LB,01-701-1028,54,TRIG,Triglycerides,CHEMISTRY,159,mg/dL,0,150,1.79511,1.79511,mmol/L,0,1.6935,HIGH,,Y,12,WEEK 24,168,2014-01-06T10:00,172
198,CDISCPILOT01,LB,01-701-1034,54,TRIG,Triglycerides,CHEMISTRY,224.5,mg/dL,0,150,2.534605,2.534605,mmol/L,0,1.6935,HIGH,,Y,12,WEEK 24,168,2014-12-17T14:27,170
199,CDISCPILOT01,LB,01-701-1015,55,ALB,Albumin,CHEMISTRY,3.8,g/dL,3.3,4.9,38,38,g/L,33,49,NORMAL,,Y,13,WEEK 26,182,2014-07-02T11:45,182
200,CDISCPILOT01,LB,01-701-1028,55,ALB,Albumin,CHEMISTRY,4.5,g/dL,3.5,4.6,45,45,g/L,35,46,NORMAL,,Y,13,WEEK 26,182,2014-01-14T11:10,180
201,CDISCPILOT01,LB,01-701-1034,55,ALB,Albumin,CHEMISTRY,4.1,g/dL,3.5,4.6,41,41,g/L,35,46,NORMAL,,Y,13,WEEK 26,182,2014-12-30T09:50,183
202,CDISCPILOT01,LB,01-701-1015,56,ALP,Alkaline Phosphatase,CHEMISTRY,44,U/L,35,115,44,44,U/L,35,115,NORMAL,,Y,13,WEEK 26,182,2014-07-02T11:45,182
203,CDISCPILOT01,LB,01-701-1028,56,ALP,Alkaline Phosphatase,CHEMISTRY,40,U/L,35,115,40,40,U/L,35,115,NORMAL,,Y,13,WEEK 26,182,2014-01-14T11:10,180
204,CDISCPILOT01,LB,01-701-1034,56,ALP,Alkaline Phosphatase,CHEMISTRY,27,U/L,35,115,27,27,U/L,35,115,LOW,,Y,13,WEEK 26,182,2014-12-30T09:50,183
205,CDISCPILOT01,LB,01-701-1015,57,AST,Aspartate Aminotransferase,CHEMISTRY,19,U/L,9,34,19,19,U/L,9,34,NORMAL,,Y,13,WEEK 26,182,2014-07-02T11:45,182
206,CDISCPILOT01,LB,01-701-1028,57,AST,Aspartate Aminotransferase,CHEMISTRY,24,U/L,11,36,24,24,U/L,11,36,NORMAL,,Y,13,WEEK 26,182,2014-01-14T11:10,180
207,CDISCPILOT01,LB,01-701-1034,57,AST,Aspartate Aminotransferase,CHEMISTRY,21,U/L,9,34,21,21,U/L,9,34,NORMAL,,Y,13,WEEK 26,182,2014-12-30T09:50,183
208,CDISCPILOT01,LB,01-701-1015,58,CHOL,Cholesterol,CHEMISTRY,214,mg/dL,156,300,5.53404,5.53404,mmol/L,4.029999999999999,7.76,NORMAL,,Y,13,WEEK 26,182,2014-07-02T11:45,182
209,CDISCPILOT01,LB,01-701-1028,58,CHOL,Cholesterol,CHEMISTRY,181,mg/dL,149,286,4.68066,4.68066,mmol/L,3.85,7.3999999999999995,NORMAL,,Y,13,WEEK 26,182,2014-01-14T11:10,180
210,CDISCPILOT01,LB,01-701-1034,58,CHOL,Cholesterol,CHEMISTRY,208,mg/dL,156,300,5.37888,5.37888,mmol/L,4.029999999999999,7.76,NORMAL,,Y,13,WEEK 26,182,2014-12-30T09:50,183
211,CDISCPILOT01,LB,01-701-1015,59,GGT,Gamma Glutamyl Transferase,CHEMISTRY,16,U/L,5,50,16,16,U/L,5,50,NORMAL,,Y,13,WEEK 26,182,2014-07-02T11:45,182
212,CDISCPILOT01,LB,01-701-1028,59,GGT,Gamma Glutamyl Transferase,CHEMISTRY,23,U/L,10,50,23,23,U/L,10,50,NORMAL,,Y,13,WEEK 26,182,2014-01-14T11:10,180
213,CDISCPILOT01,LB,01-701-1034,59,GGT,Gamma Glutamyl Transferase,CHEMISTRY,15,U/L,5,50,15,15,U/L,5,50,NORMAL,,Y,13,WEEK 26,182,2014-12-30T09:50,183
214,CDISCPILOT01,LB,01-701-1015,60,GLUC,Glucose,CHEMISTRY,92,mg/dL,50,250,5.10692,5.10692,mmol/L,2.8,13.899999999999999,NORMAL,,Y,13,WEEK 26,182,2014-07-02T11:45,182
215,CDISCPILOT01,LB,01-701-1028,60,GLUC,Glucose,CHEMISTRY,88,mg/dL,50,250,4.88488,4.88488,mmol/L,2.8,13.899999999999999,NORMAL,,Y,13,WEEK 26,182,2014-01-14T11:10,180
216,CDISCPILOT01,LB,01-701-1034,60,GLUC,Glucose,CHEMISTRY,86,mg/dL,50,250,4.77386,4.77386,mmol/L,2.8,13.899999999999999,NORMAL,,Y,13,WEEK 26,182,2014-12-30T09:50,183
217,CDISCPILOT01,LB,01-701-1015,61,HBA1CHGB,Hemoglobin A1C/Hemoglobin,CHEMISTRY,7.5,%,4.0,5.7,58.47015,58.47015,mmol/mol,20.21865,38.79795000000001,HIGH,,Y,13,WEEK 26,182,2014-07-02T11:45,182
218,CDISCPILOT01,LB,01-701-1028,61,HBA1CHGB,Hemoglobin A1C/Hemoglobin,CHEMISTRY,4.6,%,4.0,5.7,26.77605,26.776049999999998,mmol/mol,20.21865,38.79795000000001,NORMAL,,Y,13,WEEK 26,182,2014-01-14T11:10,180
219,CDISCPILOT01,LB,01-701-1034,61,HBA1CHGB,Hemoglobin A1C/Hemoglobin,CHEMISTRY,7.7,%,4.0,5.7,60.65595,60.65595000000001,mmol/mol,20.21865,38.79795000000001,HIGH,,Y,13,WEEK 26,182,2014-12-30T09:50,183
220,CDISCPILOT01,LB,01-701-1015,62,INSULIN,Insulin,CHEMISTRY,30.2,mIU/L,2,25,181.2,181.2,pmol/L,12,150,HIGH,,Y,13,WEEK 26,182,2014-07-02T11:45,182
221,CDISCPILOT01,LB,01-701-1028,62,INSULIN,Insulin,CHEMISTRY,17.1,mIU/L,2,25,102.6,102.60000000000001,pmol/L,12,150,NORMAL,,Y,13,WEEK 26,182,2014-01-14T11:10,180
222,CDISCPILOT01,LB,01-701-1034,62,INSULIN,Insulin,CHEMISTRY,30.9,mIU/L,2,25,185.4,185.39999999999998,pmol/L,12,150,HIGH,,Y,13,WEEK 26,182,2014-12-30T09:50,183
223,CDISCPILOT01,LB,01-701-1015,63,TRIG,Triglycerides,CHEMISTRY,142.9,mg/dL,0,150,1.613341,1.613341,mmol/L,0,1.6935,NORMAL,,Y,13,WEEK 26,182,2014-07-02T11:45,182
224,CDISCPILOT01,LB,01-701-1028,63,TRIG,Triglycerides,CHEMISTRY,72.3,mg/dL,0,150,0.816267,0.816267,mmol/L,0,1.6935,NORMAL,,Y,13,WEEK 26,182,2014-01-14T11:10,180
225,CDISCPILOT01,LB,01-701-1034,63,TRIG,Triglycerides,CHEMISTRY,137.5,mg/dL,0,150,1.552375,1.552375,mmol/L,0,1.6935,NORMAL,,Y,13,WEEK 26,182,2014-12-30T09:50,183
226,CDISCPILOT01,LB,01-701-1015,64,ALB,Albumin,CHEMISTRY,3.8,g/dL,3.3,4.9,38,38,g/L,33,49,NORMAL,,Y,5,WEEK 4,28,2014-01-30T08:50,29
227,CDISCPILOT01,LB,01-701-1023,19,ALB,Albumin,CHEMISTRY,3.5,g/dL,3.3,4.9,35,35,g/L,33,49,NORMAL,,Y,5,WEEK 4,28,2012-09-02T10:15,29
228,CDISCPILOT01,LB,01-701-1028,64,ALB,Albumin,CHEMISTRY,4.1,g/dL,3.5,4.6,41,41,g/L,35,46,NORMAL,,Y,5,WEEK 4,28,2013-08-14T13:24,27
229,CDISCPILOT01,LB,01-701-1033,19,ALB,Albumin,CHEMISTRY,4.0,g/dL,3.5,4.6,40,40,g/L,35,46,NORMAL,,Y,5,WEEK 4,28,2014-04-14T10:38,28
230,CDISCPILOT01,LB,01-701-1034,64,ALB,Albumin,CHEMISTRY,4.1,g/dL,3.5,4.6,41,41,g/L,35,46,NORMAL,,Y,5,WEEK 4,28,2014-07-29T08:40,29
231,CDISCPILOT01,LB,01-701-1015,65,ALP,Alkaline Phosphatase,CHEMISTRY,41,U/L,35,115,41,41,U/L,35,115,NORMAL,,Y,5,WEEK 4,28,2014-01-30T08:50,29
232,CDISCPILOT01,LB,01-701-1023,20,ALP,Alkaline Phosphatase,CHEMISTRY,99,U/L,35,115,99,99,U/L,35,115,NORMAL,,Y,5,WEEK 4,28,2012-09-02T10:15,29
233,CDISCPILOT01,LB,01-701-1028,65,ALP,Alkaline Phosphatase,CHEMISTRY,38,U/L,35,115,38,38,U/L,35,115,NORMAL,,Y,5,WEEK 4,28,2013-08-14T13:24,27
234,CDISCPILOT01,LB,01-701-1033,20,ALP,Alkaline Phosphatase,CHEMISTRY,76,U/L,35,115,76,76,U/L,35,115,NORMAL,,Y,5,WEEK 4,28,2014-04-14T10:38,28
235,CDISCPILOT01,LB,01-701-1034,65,ALP,Alkaline Phosphatase,CHEMISTRY,36,U/L,35,115,36,36,U/L,35,115,NORMAL,,Y,5,WEEK 4,28,2014-07-29T08:40,29
236,CDISCPILOT01,LB,01-701-1015,66,AST,Aspartate Aminotransferase,CHEMISTRY,21,U/L,9,34,21,21,U/L,9,34,NORMAL,,Y,5,WEEK 4,28,2014-01-30T08:50,29
237,CDISCPILOT01,LB,01-701-1023,21,AST,Aspartate Aminotransferase,CHEMISTRY,30,U/L,11,36,30,30,U/L,11,36,NORMAL,,Y,5,WEEK 4,28,2012-09-02T10:15,29
238,CDISCPILOT01,LB,01-701-1028,66,AST,Aspartate Aminotransferase,CHEMISTRY,24,U/L,11,36,24,24,U/L,11,36,NORMAL,,Y,5,WEEK 4,28,2013-08-14T13:24,27
239,CDISCPILOT01,LB,01-701-1033,21,AST,Aspartate Aminotransferase,CHEMISTRY,20,U/L,11,36,20,20,U/L,11,36,NORMAL,,Y,5,WEEK 4,28,2014-04-14T10:38,28
240,CDISCPILOT01,LB,01-701-1034,66,AST,Aspartate Aminotransferase,CHEMISTRY,25,U/L,9,34,25,25,U/L,9,34,NORMAL,,Y,5,WEEK 4,28,2014-07-29T08:40,29
241,CDISCPILOT01,LB,01-701-1015,67,CHOL,Cholesterol,CHEMISTRY,193,mg/dL,156,300,4.99098,4.9909799999999995,mmol/L,4.029999999999999,7.76,NORMAL,,Y,5,WEEK 4,28,2014-01-30T08:50,29
242,CDISCPILOT01,LB,01-701-1023,22,CHOL,Cholesterol,CHEMISTRY,235,mg/dL,149,286,6.0771,6.0771,mmol/L,3.85,7.3999999999999995,NORMAL,,Y,5,WEEK 4,28,2012-09-02T10:15,29
243,CDISCPILOT01,LB,01-701-1028,67,CHOL,Cholesterol,CHEMISTRY,169,mg/dL,149,286,4.37034,4.37034,mmol/L,3.85,7.3999999999999995,NORMAL,,Y,5,WEEK 4,28,2013-08-14T13:24,27
244,CDISCPILOT01,LB,01-701-1033,22,CHOL,Cholesterol,CHEMISTRY,197,mg/dL,149,286,5.09442,5.0944199999999995,mmol/L,3.85,7.3999999999999995,NORMAL,,Y,5,WEEK 4,28,2014-04-14T10:38,28
245,CDISCPILOT01,LB,01-701-1034,67,CHOL,Cholesterol,CHEMISTRY,284,mg/dL,156,300,7.34424,7.34424,mmol/L,4.029999999999999,7.76,NORMAL,,Y,5,WEEK 4,28,2014-07-29T08:40,29
246,CDISCPILOT01,LB,01-701-1015,68,GGT,Gamma Glutamyl Transferase,CHEMISTRY,15,U/L,5,50,15,15,U/L,5,50,NORMAL,,Y,5,WEEK 4,28,2014-01-30T08:50,29
247,CDISCPILOT01,LB,01-701-1023,23,GGT,Gamma Glutamyl Transferase,CHEMISTRY,22,U/L,10,50,22,22,U/L,10,50,NORMAL,,Y,5,WEEK 4,28,2012-09-02T10:15,29
248,CDISCPILOT01,LB,01-701-1028,68,GGT,Gamma Glutamyl Transferase,CHEMISTRY,23,U/L,10,50,23,23,U/L,10,50,NORMAL,,Y,5,WEEK 4,28,2013-08-14T13:24,27
249,CDISCPILOT01,LB,01-701-1033,23,GGT,Gamma Glutamyl Transferase,CHEMISTRY,21,U/L,10,50,21,21,U/L,10,50,NORMAL,,Y,5,WEEK 4,28,2014-04-14T10:38,28
250,CDISCPILOT01,LB,01-701-1034,68,GGT,Gamma Glutamyl Transferase,CHEMISTRY,21,U/L,5,50,21,21,U/L,5,50,NORMAL,,Y,5,WEEK 4,28,2014-07-29T08:40,29
251,CDISCPILOT01,LB,01-701-1015,69,GLUC,Glucose,CHEMISTRY,79,mg/dL,50,250,4.38529,4.3852899999999995,mmol/L,2.8,13.899999999999999,NORMAL,,Y,5,WEEK 4,28,2014-01-30T08:50,29
252,CDISCPILOT01,LB,01-701-1023,24,GLUC,Glucose,CHEMISTRY,98,mg/dL,50,250,5.43998,5.439979999999999,mmol/L,2.8,13.899999999999999,NORMAL,,Y,5,WEEK 4,28,2012-09-02T10:15,29
253,CDISCPILOT01,LB,01-701-1028,69,GLUC,Glucose,CHEMISTRY,80,mg/dL,50,250,4.4408,4.440799999999999,mmol/L,2.8,13.899999999999999,NORMAL,,Y,5,WEEK 4,28,2013-08-14T13:24,27
254,CDISCPILOT01,LB,01-701-1033,24,GLUC,Glucose,CHEMISTRY,98,mg/dL,50,250,5.43998,5.439979999999999,mmol/L,2.8,13.899999999999999,NORMAL,,Y,5,WEEK 4,28,2014-04-14T10:38,28
255,CDISCPILOT01,LB,01-701-1034,69,GLUC,Glucose,CHEMISTRY,83,mg/dL,50,250,4.60733,4.607329999999999,mmol/L,2.8,13.899999999999999,NORMAL,,Y,5,WEEK 4,28,2014-07-29T08:40,29
256,CDISCPILOT01,LB,01-701-1015,70,ALB,Albumin,CHEMISTRY,3.7,g/dL,3.3,4.9,37,37,g/L,33,49,NORMAL,,Y,7,WEEK 6,42,2014-02-12T12:56,42
257,CDISCPILOT01,LB,01-701-1028,70,ALB,Albumin,CHEMISTRY,4.0,g/dL,3.5,4.6,40,40,g/L,35,46,NORMAL,,Y,7,WEEK 6,42,2013-08-29T11:54,42
258,CDISCPILOT01,LB,01-701-1034,70,ALB,Albumin,CHEMISTRY,3.8,g/dL,3.5,4.6,38,38,g/L,35,46,NORMAL,,Y,7,WEEK 6,42,2014-08-11T13:15,42
259,CDISCPILOT01,LB,01-701-1015,71,ALP,Alkaline Phosphatase,CHEMISTRY,43,U/L,35,115,43,43,U/L,35,115,NORMAL,,Y,7,WEEK 6,42,2014-02-12T12:56,42
260,CDISCPILOT01,LB,01-701-1028,71,ALP,Alkaline Phosphatase,CHEMISTRY,40,U/L,35,115,40,40,U/L,35,115,NORMAL,,Y,7,WEEK 6,42,2013-08-29T11:54,42
261,CDISCPILOT01,LB,01-701-1034,71,ALP,Alkaline Phosphatase,CHEMISTRY,33,U/L,35,115,33,33,U/L,35,115,LOW,,Y,7,WEEK 6,42,2014-08-11T13:15,42
262,CDISCPILOT01,LB,01-701-1015,72,AST,Aspartate Aminotransferase,CHEMISTRY,26,U/L,9,34,26,26,U/L,9,34,NORMAL,,Y,7,WEEK 6,42,2014-02-12T12:56,42
263,CDISCPILOT01,LB,01-701-1028,72,AST,Aspartate Aminotransferase,CHEMISTRY,26,U/L,11,36,26,26,U/L,11,36,NORMAL,,Y,7,WEEK 6,42,2013-08-29T11:54,42
264,CDISCPILOT01,LB,01-701-1034,72,AST,Aspartate Aminotransferase,CHEMISTRY,19,U/L,9,34,19,19,U/L,9,34,NORMAL,,Y,7,WEEK 6,42,2014-08-11T13:15,42
265,CDISCPILOT01,LB,01-701-1015,73,CHOL,Cholesterol,CHEMISTRY,218,mg/dL,156,300,5.63748,5.63748,mmol/L,4.029999999999999,7.76,NORMAL,,Y,7,WEEK 6,42,2014-02-12T12:56,42
266,CDISCPILOT01,LB,01-701-1028,73,CHOL,Cholesterol,CHEMISTRY,165,mg/dL,149,286,4.2669,4.2669,mmol/L,3.85,7.3999999999999995,NORMAL,,Y,7,WEEK 6,42,2013-08-29T11:54,42
267,CDISCPILOT01,LB,01-701-1034,73,CHOL,Cholesterol,CHEMISTRY,223,mg/dL,156,300,5.76678,5.76678,mmol/L,4.029999999999999,7.76,NORMAL,,Y,7,WEEK 6,42,2014-08-11T13:15,42
268,CDISCPILOT01,LB,01-701-1015,74,GGT,Gamma Glutamyl Transferase,CHEMISTRY,14,U/L,5,50,14,14,U/L,5,50,NORMAL,,Y,7,WEEK 6,42,2014-02-12T12:56,42
269,CDISCPILOT01,LB,01-701-1028,74,GGT,Gamma Glutamyl Transferase,CHEMISTRY,24,U/L,10,50,24,24,U/L,10,50,NORMAL,,Y,7,WEEK 6,42,2013-08-29T11:54,42
270,CDISCPILOT01,LB,01-701-1034,74,GGT,Gamma Glutamyl Transferase,CHEMISTRY,15,U/L,5,50,15,15,U/L,5,50,NORMAL,,Y,7,WEEK 6,42,2014-08-11T13:15,42
271,CDISCPILOT01,LB,01-701-1015,75,GLUC,Glucose,CHEMISTRY,92,mg/dL,50,250,5.10692,5.10692,mmol/L,2.8,13.899999999999999,NORMAL,,Y,7,WEEK 6,42,2014-02-12T12:56,42
272,CDISCPILOT01,LB,01-701-1028,75,GLUC,Glucose,CHEMISTRY,76,mg/dL,50,250,4.21876,4.21876,mmol/L,2.8,13.899999999999999,NORMAL,,Y,7,WEEK 6,42,2013-08-29T11:54,42
273,CDISCPILOT01,LB,01-701-1034,75,GLUC,Glucose,CHEMISTRY,98,mg/dL,50,250,5.43998,5.439979999999999,mmol/L,2.8,13.899999999999999,NORMAL,,Y,7,WEEK 6,42,2014-08-11T13:15,42
274,CDISCPILOT01,LB,01-701-1015,76,HBA1CHGB,Hemoglobin A1C/Hemoglobin,CHEMISTRY,8.5,%,4.0,5.7,69.39915,69.39914999999999,mmol/mol,20.21865,38.79795000000001,HIGH,,Y,7,WEEK 6,42,2014-02-12T12:56,42
275,CDISCPILOT01,LB,01-701-1028,76,HBA1CHGB,Hemoglobin A1C/Hemoglobin,CHEMISTRY,4.5,%,4.0,5.7,25.68315,25.68315,mmol/mol,20.21865,38.79795000000001,NORMAL,,Y,7,WEEK 6,42,2013-08-29T11:54,42
276,CDISCPILOT01,LB,01-701-1034,76,HBA1CHGB,Hemoglobin A1C/Hemoglobin,CHEMISTRY,4.7,%,4.0,5.7,27.86895,27.868950000000005,mmol/mol,20.21865,38.79795000000001,NORMAL,,Y,7,WEEK 6,42,2014-08-11T13:15,42
277,CDISCPILOT01,LB,01-701-1015,77,INSULIN,Insulin,CHEMISTRY,24.7,mIU/L,2,25,148.2,148.2,pmol/L,12,150,NORMAL,,Y,7,WEEK 6,42,2014-02-12T12:56,42
278,CDISCPILOT01,LB,01-701-1028,77,INSULIN,Insulin,CHEMISTRY,30.6,mIU/L,2,25,183.6,183.60000000000002,pmol/L,12,150,HIGH,,Y,7,WEEK 6,42,2013-08-29T11:54,42
279,CDISCPILOT01,LB,01-701-1034,77,INSULIN,Insulin,CHEMISTRY,33,mIU/L,2,25,198,198,pmol/L,12,150,HIGH,,Y,7,WEEK 6,42,2014-08-11T13:15,42
280,CDISCPILOT01,LB,01-701-1015,78,TRIG,Triglycerides,CHEMISTRY,144.6,mg/dL,0,150,1.632534,1.632534,mmol/L,0,1.6935,NORMAL,,Y,7,WEEK 6,42,2014-02-12T12:56,42
281,CDISCPILOT01,LB,01-701-1028,78,TRIG,Triglycerides,CHEMISTRY,105.2,mg/dL,0,150,1.187708,1.187708,mmol/L,0,1.6935,NORMAL,,Y,7,WEEK 6,42,2013-08-29T11:54,42
282,CDISCPILOT01,LB,01-701-1034,78,TRIG,Triglycerides,CHEMISTRY,144.1,mg/dL,0,150,1.626889,1.6268889999999998,mmol/L,0,1.6935,NORMAL,,Y,7,WEEK 6,42,2014-08-11T13:15,42
283,CDISCPILOT01,LB,01-701-1015,79,ALB,Albumin,CHEMISTRY,3.8,g/dL,3.3,4.9,38,38,g/L,33,49,NORMAL,,Y,8,WEEK 8,56,2014-03-05T12:25,63
284,CDISCPILOT01,LB,01-701-1028,79,ALB,Albumin,CHEMISTRY,3.9,g/dL,3.5,4.6,39,39,g/L,35,46,NORMAL,,Y,8,WEEK 8,56,2013-09-10T09:13,54
285,CDISCPILOT01,LB,01-701-1034,79,ALB,Albumin,CHEMISTRY,4.1,g/dL,3.5,4.6,41,41,g/L,35,46,NORMAL,,Y,8,WEEK 8,56,2014-08-26T09:57,57
286,CDISCPILOT01,LB,01-701-1015,80,ALP,Alkaline Phosphatase,CHEMISTRY,47,U/L,35,115,47,47,U/L,35,115,NORMAL,,Y,8,WEEK 8,56,2014-03-05T12:25,63
287,CDISCPILOT01,LB,01-701-1028,80,ALP,Alkaline Phosphatase,CHEMISTRY,40,U/L,35,115,40,40,U/L,35,115,NORMAL,,Y,8,WEEK 8,56,2013-09-10T09:13,54
288,CDISCPILOT01,LB,01-701-1034,80,ALP,Alkaline Phosphatase,CHEMISTRY,29,U/L,35,115,29,29,U/L,35,115,LOW,,Y,8,WEEK 8,56,2014-08-26T09:57,57
289,CDISCPILOT01,LB,01-701-1015,81,AST,Aspartate Aminotransferase,CHEMISTRY,21,U/L,9,34,21,21,U/L,9,34,NORMAL,,Y,8,WEEK 8,56,2014-03-05T12:25,63
290,CDISCPILOT01,LB,01-701-1028,81,AST,Aspartate Aminotransferase,CHEMISTRY,28,U/L,11,36,28,28,U/L,11,36,NORMAL,,Y,8,WEEK 8,56,2013-09-10T09:13,54
291,CDISCPILOT01,LB,01-701-1034,81,AST,Aspartate Aminotransferase,CHEMISTRY,26,U/L,9,34,26,26,U/L,9,34,NORMAL,,Y,8,WEEK 8,56,2014-08-26T09:57,57
292,CDISCPILOT01,LB,01-701-1015,82,CHOL,Cholesterol,CHEMISTRY,214,mg/dL,156,300,5.53404,5.53404,mmol/L,4.029999999999999,7.76,NORMAL,,Y,8,WEEK 8,56,2014-03-05T12:25,63
293,CDISCPILOT01,LB,01-701-1028,82,CHOL,Cholesterol,CHEMISTRY,171,mg/dL,149,286,4.42206,4.42206,mmol/L,3.85,7.3999999999999995,NORMAL,,Y,8,WEEK 8,56,2013-09-10T09:13,54
294,CDISCPILOT01,LB,01-701-1034,82,CHOL,Cholesterol,CHEMISTRY,291,mg/dL,156,300,7.52526,7.525259999999999,mmol/L,4.029999999999999,7.76,NORMAL,,Y,8,WEEK 8,56,2014-08-26T09:57,57
295,CDISCPILOT01,LB,01-701-1015,83,GGT,Gamma Glutamyl Transferase,CHEMISTRY,14,U/L,5,50,14,14,U/L,5,50,NORMAL,,Y,8,WEEK 8,56,2014-03-05T12:25,63
296,CDISCPILOT01,LB,01-701-1028,83,GGT,Gamma Glutamyl Transferase,CHEMISTRY,24,U/L,10,50,24,24,U/L,10,50,NORMAL,,Y,8,WEEK 8,56,2013-09-10T09:13,54
297,CDISCPILOT01,LB,01-701-1034,83,GGT,Gamma Glutamyl Transferase,CHEMISTRY,17,U/L,5,50,17,17,U/L,5,50,NORMAL,,Y,8,WEEK 8,56,2014-08-26T09:57,57
298,CDISCPILOT01,LB,01-701-1015,84,GLUC,Glucose,CHEMISTRY,82,mg/dL,50,250,4.55182,4.551819999999999,mmol/L,2.8,13.899999999999999,NORMAL,,Y,8,WEEK 8,56,2014-03-05T12:25,63
299,CDISCPILOT01,LB,01-701-1028,84,GLUC,Glucose,CHEMISTRY,92,mg/dL,50,250,5.10692,5.10692,mmol/L,2.8,13.899999999999999,NORMAL,,Y,8,WEEK 8,56,2013-09-10T09:13,54
300,CDISCPILOT01,LB,01-701-1034,84,GLUC,Glucose,CHEMISTRY,86,mg/dL,50,250,4.77386,4.77386,mmol/L,2.8,13.899999999999999,NORMAL,,Y,8,WEEK 8,56,2014-08-26T09:57,57
301,CDISCPILOT01,LB,01-701-1015,85,HBA1CHGB,Hemoglobin A1C/Hemoglobin,CHEMISTRY,8.8,%,4.0,5.7,72.67785,72.67785,mmol/mol,20.21865,38.79795000000001,HIGH,,Y,8,WEEK 8,56,2014-03-05T12:25,63
302,CDISCPILOT01,LB,01-701-1028,85,HBA1CHGB,Hemoglobin A1C/Hemoglobin,CHEMISTRY,8.1,%,4.0,5.7,65.02755,65.02754999999999,mmol/mol,20.21865,38.79795000000001,HIGH,,Y,8,WEEK 8,56,2013-09-10T09:13,54
303,CDISCPILOT01,LB,01-701-1034,85,HBA1CHGB,Hemoglobin A1C/Hemoglobin,CHEMISTRY,6.9,%,4.0,5.7,51.91275,51.91275,mmol/mol,20.21865,38.79795000000001,HIGH,,Y,8,WEEK 8,56,2014-08-26T09:57,57
304,CDISCPILOT01,LB,01-701-1015,86,INSULIN,Insulin,CHEMISTRY,21.6,mIU/L,2,25,129.6,129.60000000000002,pmol/L,12,150,NORMAL,,Y,8,WEEK 8,56,2014-03-05T12:25,63
305,CDISCPILOT01,LB,01-701-1028,86,INSULIN,Insulin,CHEMISTRY,13.8,mIU/L,2,25,82.8,82.80000000000001,pmol/L,12,150,NORMAL,,Y,8,WEEK 8,56,2013-09-10T09:13,54
306,CDISCPILOT01,LB,01-701-1034,86,INSULIN,Insulin,CHEMISTRY,43,mIU/L,2,25,258,258,pmol/L,12,150,HIGH,,Y,8,WEEK 8,56,2014-08-26T09:57,57
307,CDISCPILOT01,LB,01-701-1015,87,TRIG,Triglycerides,CHEMISTRY,121.5,mg/dL,0,150,1.371735,1.371735,mmol/L,0,1.6935,NORMAL,,Y,8,WEEK 8,56,2014-03-05T12:25,63
308,CDISCPILOT01,LB,01-701-1028,87,TRIG,Triglycerides,CHEMISTRY,120.4,mg/dL,0,150,1.359316,1.359316,mmol/L,0,1.6935,NORMAL,,Y,8,WEEK 8,56,2013-09-10T09:13,54
309,CDISCPILOT01,LB,01-701-1034,87,TRIG,Triglycerides,CHEMISTRY,110.1,mg/dL,0,150,1.243029,1.243029,mmol/L,0,1.6935,NORMAL,,Y,8,WEEK 8,56,2014-08-26T09:57,57
