rownames,STUDYID,DOMAIN,USUBJID,LBSEQ,LBTESTCD,LBTEST,LBCAT,LBORRES,LBORRESU,LBSTRESC,LBSTRESN,LBSTRESU,LBBLFL,VISITNUM,VISIT,VISITDY,LBDTC,LBDY
1,CDISCPILOT01,LB,01-701-1015,1,PSA,Prostate Specific Antigen,CHEMISTRY,120,ng/mL,120,120,ng/mL,Y,1,SCREENING 1,-7,2013-12-26T14:45,-7
2,CDISCPILOT01,LB,01-701-1015,2,PSA,Prostate Specific Antigen,CHEMISTRY,55,ng/mL,55,55,ng/mL,,8,WEEK 8,56,2014-03-05T12:25,63
3,CDISCPILOT01,LB,01-701-1015,3,PSA,Prostate Specific Antigen,CHEMISTRY,45,ng/mL,45,45,ng/mL,,10,WEEK 16,112,2014-05-07T11:21,126
4,CDISCPILOT01,LB,01-701-1015,4,PSA,Prostate Specific Antigen,CHEMISTRY,50,ng/mL,50,50,ng/mL,,12,WEEK 24,168,2014-06-18T13:00,168
5,CDISCPILOT01,LB,01-701-1028,1,PSA,Prostate Specific Antigen,CHEMISTRY,200,ng/mL,200,200,ng/mL,Y,1,SCREENING 1,-7,2013-07-11T12:02,-8
6,CDISCPILOT01,LB,01-701-1028,2,PSA,Prostate Specific Antigen,CHEMISTRY,90,ng/mL,90,90,ng/mL,,8,WEEK 8,56,2013-09-10T09:13,54
7,CDISCPILOT01,LB,01-701-1028,3,PSA,Prostate Specific Antigen,CHEMISTRY,85,ng/mL,85,85,ng/mL,,10,WEEK 16,112,2013-11-06T10:08,111
8,CDISCPILOT01,LB,01-701-1028,4,PSA,Prostate Specific Antigen,CHEMISTRY,130,ng/mL,130,130,ng/mL,,12,WEEK 24,168,2014-01-06T10:00,172
9,CDISCPILOT01,LB,01-701-1034,1,PSA,Prostate Specific Antigen,CHEMISTRY,150,ng/mL,150,150,ng/mL,Y,1,SCREENING 1,-7,2014-06-24T15:30,-7
10,CDISCPILOT01,LB,01-701-1034,2,PSA,Prostate Specific Antigen,CHEMISTRY,195,ng/mL,195,195,ng/mL,,8,WEEK 8,56,2014-08-26T09:57,57
11,CDISCPILOT01,LB,01-701-1034,3,PSA,Prostate Specific Antigen,CHEMISTRY,190,ng/mL,190,190,ng/mL,,10,WEEK 16,112,2014-10-21T09:52,113
12,CDISCPILOT01,LB,01-701-1034,4,PSA,Prostate Specific Antigen,CHEMISTRY,195,ng/mL,195,195,ng/mL,,12,WEEK 24,168,2014-12-17T14:27,170
13,CDISCPILOT01,LB,01-701-1097,1,PSA,Prostate Specific Antigen,CHEMISTRY,180,ng/mL,180,180,ng/mL,Y,1,SCREENING 1,-7,2013-12-23T12:30,-9
14,CDISCPILOT01,LB,01-701-1097,2,PSA,Prostate Specific Antigen,CHEMISTRY,80,ng/mL,80,80,ng/mL,,8,WEEK 8,56,2014-02-26T11:10,57
15,CDISCPILOT01,LB,01-701-1097,3,PSA,Prostate Specific Antigen,CHEMISTRY,85,ng/mL,85,85,ng/mL,,10,WEEK 16,112,2014-04-23T11:14,113
16,CDISCPILOT01,LB,01-701-1097,4,PSA,Prostate Specific Antigen,CHEMISTRY,90,ng/mL,90,90,ng/mL,,12,WEEK 24,168,2014-06-18T10:41,169
17,CDISCPILOT01,LB,01-701-1115,1,PSA,Prostate Specific Antigen,CHEMISTRY,90,ng/mL,90,90,ng/mL,Y,1,SCREENING 1,-7,2012-11-23T11:20,-7
18,CDISCPILOT01,LB,01-701-1115,2,PSA,Prostate Specific Antigen,CHEMISTRY,40,ng/mL,40,40,ng/mL,,8,WEEK 8,56,2013-01-23T12:13,55
19,CDISCPILOT01,LB,01-701-1118,1,PSA,Prostate Specific Antigen,CHEMISTRY,110,ng/mL,110,110,ng/mL,Y,1,SCREENING 1,-7,2014-02-27T10:32,-13
20,CDISCPILOT01,LB,01-701-1118,2,PSA,Prostate Specific Antigen,CHEMISTRY,1,ng/mL,1,1,ng/mL,,8,WEEK 8,56,2014-05-08T09:30,58
21,CDISCPILOT01,LB,01-701-1118,3,PSA,Prostate Specific Antigen,CHEMISTRY,1,ng/mL,1,1,ng/mL,,10,WEEK 16,112,2014-07-02T10:12,113
22,CDISCPILOT01,LB,01-701-1118,4,PSA,Prostate Specific Antigen,CHEMISTRY,1,ng/mL,1,1,ng/mL,,12,WEEK 24,168,2014-08-27T11:27,169
23,CDISCPILOT01,LB,01-701-1130,1,PSA,Prostate Specific Antigen,CHEMISTRY,160,ng/mL,160,160,ng/mL,Y,1,SCREENING 1,-7,2014-02-09T12:01,-6
24,CDISCPILOT01,LB,01-701-1130,2,PSA,Prostate Specific Antigen,CHEMISTRY,85,ng/mL,85,85,ng/mL,,8,WEEK 8,56,2014-04-12T12:35,57
25,CDISCPILOT01,LB,01-701-1130,3,PSA,Prostate Specific Antigen,CHEMISTRY,83,ng/mL,83,83,ng/mL,,10,WEEK 16,112,2014-06-07T13:20,113
26,CDISCPILOT01,LB,01-701-1130,4,PSA,Prostate Specific Antigen,CHEMISTRY,83,ng/mL,83,83,ng/mL,,12,WEEK 24,168,2014-08-02T13:50,169
27,CDISCPILOT01,LB,01-701-1133,1,PSA,Prostate Specific Antigen,CHEMISTRY,165,ng/mL,165,165,ng/mL,Y,1,SCREENING 1,-7,2012-10-23T10:57,-5
28,CDISCPILOT01,LB,01-701-1133,2,PSA,Prostate Specific Antigen,CHEMISTRY,80,ng/mL,80,80,ng/mL,,8,WEEK 8,56,2012-12-24T10:54,58
29,CDISCPILOT01,LB,01-701-1133,3,PSA,Prostate Specific Antigen,CHEMISTRY,80,ng/mL,80,80,ng/mL,,10,WEEK 16,112,2013-02-18T11:37,114
30,CDISCPILOT01,LB,01-701-1133,4,PSA,Prostate Specific Antigen,CHEMISTRY,75,ng/mL,75,75,ng/mL,,12,WEEK 24,168,2013-04-18T15:30,173
31,CDISCPILOT01,LB,01-701-1148,1,PSA,Prostate Specific Antigen,CHEMISTRY,100,ng/mL,100,100,ng/mL,Y,1,SCREENING 1,-7,2013-08-14T13:04,-9
32,CDISCPILOT01,LB,01-701-1148,2,PSA,Prostate Specific Antigen,CHEMISTRY,40,ng/mL,40,40,ng/mL,,8,WEEK 8,56,2013-10-18T15:46,57
33,CDISCPILOT01,LB,01-701-1148,3,PSA,Prostate Specific Antigen,CHEMISTRY,38,ng/mL,38,38,ng/mL,,10,WEEK 16,112,2013-12-13T15:57,113
34,CDISCPILOT01,LB,01-701-1148,4,PSA,Prostate Specific Antigen,CHEMISTRY,35,ng/mL,35,35,ng/mL,,12,WEEK 24,168,2014-02-08T14:40,170
35,CDISCPILOT01,LB,01-701-1153,1,PSA,Prostate Specific Antigen,CHEMISTRY,70,ng/mL,70,70,ng/mL,Y,1,SCREENING 1,-7,2013-09-06T14:50,-17
36,CDISCPILOT01,LB,01-701-1153,2,PSA,Prostate Specific Antigen,CHEMISTRY,72,ng/mL,72,72,ng/mL,,8,WEEK 8,56,2013-11-18T12:39,57
37,CDISCPILOT01,LB,01-701-1153,3,PSA,Prostate Specific Antigen,CHEMISTRY,68,ng/mL,68,68,ng/mL,,10,WEEK 16,112,2014-01-08T12:35,108
38,CDISCPILOT01,LB,01-701-1153,4,PSA,Prostate Specific Antigen,CHEMISTRY,70,ng/mL,70,70,ng/mL,,12,WEEK 24,168,2014-03-11T11:58,170
39,CDISCPILOT01,LB,01-701-1275,1,PSA,Prostate Specific Antigen,CHEMISTRY,210,ng/mL,210,210,ng/mL,Y,1,SCREENING 1,-7,2014-01-25T09:26,-13
40,CDISCPILOT01,LB,01-701-1275,2,PSA,Prostate Specific Antigen,CHEMISTRY,1,ng/mL,1,1,ng/mL,,8,WEEK 8,56,2014-04-05T08:12,58
41,CDISCPILOT01,LB,01-701-1275,3,PSA,Prostate Specific Antigen,CHEMISTRY,1,ng/mL,1,1,ng/mL,,10,WEEK 16,112,2014-06-14T12:35,128
