rownames,STUDYID,DOMAIN,USUBJID,MBSEQ,MBGRPID,MBREFID,MBLNKGRP,MBTESTCD,MBTEST,MBTSTDTL,MBORRES,MBORRESU,MBRSLSCL,MBSTRESC,MBSTRESN,MBSTRESU,MBSPEC,MBLOC,MBMETHOD,VISITNUM,MBDTC
1,CDISCPILOT01,MB,01-701-1015,1,1,ALIQ1.1.2,ALIQ1.1.2-C,GMNCOC,Gram Negative Cocci,DETECTION,PRESENT,,Ord,PRESENT,,,SKIN TISSUE,SKIN OF THE AXILLA,GRAM STAIN,1,2025-06-14T08:00
2,CDISCPILOT01,MB,01-701-1015,2,1,ALIQ1.1.2,ALIQ1.1.2-C,GMNCOC,Gram Negative Cocci,QUANTIFICATION,2+,,Ord,2+,2,,SKIN TISSUE,SKIN OF THE AXILLA,GRAM STAIN,1,2025-06-14T08:00
3,CDISCPILOT01,MB,01-701-1015,3,2,ALIQ1.1.2,ALIQ1.1.2-C,MCCOLCNT,Colony Count,QUANTIFICATION,100,CFU/mL,Quant,100,CFU/mL,CFU/mL,SKIN TISSUE,SKIN OF THE AXILLA,COLONY COUNT,1,2025-06-14T08:00
4,CDISCPILOT01,MB,01-701-1015,4,3,ALIQ1.1.3,ALIQ1.1.3-C,GNROD,Gram Negative Rods,DETECTION,PRESENT,,Ord,PRESENT,,,SKIN TISSUE,SKIN OF THE AXILLA,GRAM STAIN,1,2025-06-14T08:00
5,CDISCPILOT01,MB,01-701-1015,5,3,ALIQ1.1.3,ALIQ1.1.3-C,GNROD,Gram Negative Rods,QUANTIFICATION,1+,,Ord,1+,1,,SKIN TISSUE,SKIN OF THE AXILLA,GRAM STAIN,1,2025-06-14T08:00
6,CDISCPILOT01,MB,01-701-1015,6,4,ALIQ1.1.3,ALIQ1.1.3-C,MCCOLCNT,Colony Count,QUANTIFICATION,50,CFU/mL,Quant,50,CFU/mL,CFU/mL,SKIN TISSUE,SKIN OF THE AXILLA,COLONY COUNT,1,2025-06-14T08:00
7,CDISCPILOT01,MB,01-701-1015,7,5,ALIQ1.2.1,ALIQ1.2.1-C,GNROD,Gram Negative Rods,DETECTION,PRESENT,,Ord,PRESENT,,,SKIN TISSUE,SKIN OF THE AXILLA,GRAM STAIN,2,2025-06-21T08:00
8,CDISCPILOT01,MB,01-701-1015,8,5,ALIQ1.2.1,ALIQ1.2.1-C,GNROD,Gram Negative Rods,QUANTIFICATION,3+,,Ord,3+,3,,SKIN TISSUE,SKIN OF THE AXILLA,GRAM STAIN,2,2025-06-21T08:00
9,CDISCPILOT01,MB,01-701-1015,9,6,ALIQ1.2.1,ALIQ1.2.1-C,MCCOLCNT,Colony Count,QUANTIFICATION,500,CFU/mL,Quant,500,CFU/mL,CFU/mL,SKIN TISSUE,SKIN OF THE AXILLA,COLONY COUNT,2,2025-06-21T08:00
10,CDISCPILOT01,MB,01-701-1023,1,1,ALIQ2.1.2,ALIQ2.1.2-C,GPRCOC,Gram Positive Cocci,DETECTION,PRESENT,,Ord,PRESENT,,,URINE,URINARY SYSTEM,GRAM STAIN,1,2025-07-15T08:00
11,CDISCPILOT01,MB,01-701-1023,2,1,ALIQ2.1.2,ALIQ2.1.2-C,GPRCOC,Gram Positive Cocci,QUANTIFICATION,4+,,Ord,4+,4,,URINE,URINARY SYSTEM,GRAM STAIN,1,2025-07-15T08:00
12,CDISCPILOT01,MB,01-701-1023,3,2,ALIQ2.1.2,ALIQ2.1.2-C,MCCOLCNT,Colony Count,QUANTIFICATION,300,CFU/mL,Quant,300,CFU/mL,CFU/mL,URINE,URINARY SYSTEM,COLONY COUNT,1,2025-07-15T08:00
13,CDISCPILOT01,MB,01-701-1033,1,1,ALIQ4.1.1,ALIQ4.1.1-C,GPRCOC,Gram Positive Cocci,DETECTION,PRESENT,,Ord,PRESENT,,,SPUTUM,LUNG,GRAM STAIN,1,2025-09-10T08:00
14,CDISCPILOT01,MB,01-701-1033,2,1,ALIQ4.1.1,ALIQ4.1.1-C,GPRCOC,Gram Positive Cocci,QUANTIFICATION,2+,,Ord,2+,2,,SPUTUM,LUNG,GRAM STAIN,1,2025-09-10T08:00
15,CDISCPILOT01,MB,01-701-1033,3,2,ALIQ4.1.1,ALIQ4.1.1-C,MCCOLCNT,Colony Count,QUANTIFICATION,150,CFU/mL,Quant,150,CFU/mL,CFU/mL,SPUTUM,LUNG,COLONY COUNT,1,2025-09-10T08:00
16,CDISCPILOT01,MB,01-701-1047,1,1,ALIQ6.1.1,ALIQ6.1.1-C,MCORGIDN,Microbial Organism Identification,RESULT,NO GROWTH,,Nom,NO GROWTH,,,SPUTUM,LUNG,"MICROBIAL CULTURE, SOLID",1,2025-11-01T08:00
17,CDISCPILOT01,MB,01-701-1047,2,2,ALIQ6.1.2,ALIQ6.1.2-C,MCORGIDN,Microbial Organism Identification,RESULT,NO GROWTH,,Nom,NO GROWTH,,,SPUTUM,LUNG,"MICROBIAL CULTURE, SOLID",1,2025-11-01T08:00
18,CDISCPILOT01,MB,01-701-1057,1,1,ALIQ7.1.1,ALIQ7.1.1-C,MTBCMPLX,Mycobacterium tuberculosis complex,DETECTION,PRESENT,,Ord,PRESENT,,,LAVAGE FLUID,STOMACH,NUCLEIC ACID AMPLIFICATION TEST,1,2025-12-01T08:00
