rownames,STUDYID,DOMAIN,USUBJID,OESEQ,OECAT,OESCAT,OEDTC,VISIT,VISITNUM,VISITDY,OESTRESN,OESTRESC,OEORRES,OETEST,OETESTCD,OETSTDTL,OELAT,OELOC,OEDY,OEMETHOD,OEORRESU,OESTRESU,OESTAT,OETPT,OETPTNUM
1,CDISCPILOT01,OE,01-701-1015,1,OPHTHALMIC ASSESSMENTS,SD-OCT CST SINGLE FORM,2013-12-26,SCREENING 1,1,-7,220,220,220,Center Subfield Thickness,CSUBTH,CENTER SUBFIELD THICKNESS,LEFT,RETINA,-7,SD-OCT,um,um,,PRE-DOSE,-0.5
2,CDISCPILOT01,OE,01-701-1015,2,OPHTHALMIC ASSESSMENTS,SD-OCT CST SINGLE FORM,2013-12-26,SCREENING 1,1,-7,211,211,211,Center Subfield Thickness,CSUBTH,CENTER SUBFIELD THICKNESS,RIGHT,RETINA,-7,SD-OCT,um,um,,PRE-DOSE,-0.5
3,CDISCPILOT01,OE,01-701-1015,3,OPHTHALMIC ASSESSMENTS,FORM FOR CFP EVALUATION FOR 7M/4W,2013-12-26,SCREENING 1,1,-7,4,4,4,Diabetic Retinopathy Sev Recode Value,DRSSR,DIABETIC RETINOPATHY SEVERITY LEVEL RECODE VALUE (ETDRS SCALE),LEFT,RETINA,-7,COLOR FUNDUS PHOTOGRAPH,,,,PRE-DOSE,-0.5
4,CDISCPILOT01,OE,01-701-1015,4,OPHTHALMIC ASSESSMENTS,FORM FOR CFP EVALUATION FOR 7M/4W,2013-12-26,SCREENING 1,1,-7,8,8,8,Diabetic Retinopathy Sev Recode Value,DRSSR,DIABETIC RETINOPATHY SEVERITY LEVEL RECODE VALUE (ETDRS SCALE),RIGHT,RETINA,-7,COLOR FUNDUS PHOTOGRAPH,,,,PRE-DOSE,-0.5
5,CDISCPILOT01,OE,01-701-1015,5,INTRAOCULAR PRESSURE,,2013-12-26,SCREENING 1,1,-7,20,20,20,Intraocular Pressure,IOP,,LEFT,EYE,-7,APPLANATION TONOMETRY,mmHg,mmHg,,PRE-DOSE,-0.5
6,CDISCPILOT01,OE,01-701-1015,6,INTRAOCULAR PRESSURE,,2013-12-26,SCREENING 1,1,-7,20,20,20,Intraocular Pressure,IOP,,RIGHT,EYE,-7,APPLANATION TONOMETRY,mmHg,mmHg,,PRE-DOSE,-0.5
7,CDISCPILOT01,OE,01-701-1015,7,BEST CORRECTED VISUAL ACUITY,OVERALL EVALUATION,2013-12-26,SCREENING 1,1,-7,82,82,82,Visual Acuity Score,VACSCORE,,LEFT,EYE,-7,ETDRS EYE CHART,,,,PRE-DOSE,-0.5
8,CDISCPILOT01,OE,01-701-1015,8,BEST CORRECTED VISUAL ACUITY,OVERALL EVALUATION,2013-12-26,SCREENING 1,1,-7,97,97,97,Visual Acuity Score,VACSCORE,,RIGHT,EYE,-7,ETDRS EYE CHART,,,,PRE-DOSE,-0.5
9,CDISCPILOT01,OE,01-701-1015,9,OPHTHALMIC ASSESSMENTS,SD-OCT CST SINGLE FORM,2014-01-02,BASELINE,3,1,107,107,107,Center Subfield Thickness,CSUBTH,CENTER SUBFIELD THICKNESS,LEFT,RETINA,1,SD-OCT,um,um,,PRE-DOSE,-0.5
10,CDISCPILOT01,OE,01-701-1015,10,OPHTHALMIC ASSESSMENTS,SD-OCT CST SINGLE FORM,2014-01-02,BASELINE,3,1,71,71,71,Center Subfield Thickness,CSUBTH,CENTER SUBFIELD THICKNESS,RIGHT,RETINA,1,SD-OCT,um,um,,PRE-DOSE,-0.5
11,CDISCPILOT01,OE,01-701-1015,11,OPHTHALMIC ASSESSMENTS,FORM FOR CFP EVALUATION FOR 7M/4W,2014-01-02,BASELINE,3,1,7,7,7,Diabetic Retinopathy Sev Recode Value,DRSSR,DIABETIC RETINOPATHY SEVERITY LEVEL RECODE VALUE (ETDRS SCALE),LEFT,RETINA,1,COLOR FUNDUS PHOTOGRAPH,,,,PRE-DOSE,-0.5
12,CDISCPILOT01,OE,01-701-1015,12,OPHTHALMIC ASSESSMENTS,FORM FOR CFP EVALUATION FOR 7M/4W,2014-01-02,BASELINE,3,1,6,6,6,Diabetic Retinopathy Sev Recode Value,DRSSR,DIABETIC RETINOPATHY SEVERITY LEVEL RECODE VALUE (ETDRS SCALE),RIGHT,RETINA,1,COLOR FUNDUS PHOTOGRAPH,,,,PRE-DOSE,-0.5
13,CDISCPILOT01,OE,01-701-1015,13,INTRAOCULAR PRESSURE,,2014-01-02,BASELINE,3,1,8,8,8,Intraocular Pressure,IOP,,LEFT,EYE,1,APPLANATION TONOMETRY,mmHg,mmHg,,PRE-DOSE,-0.5
14,CDISCPILOT01,OE,01-701-1015,14,INTRAOCULAR PRESSURE,,2014-01-02,BASELINE,3,1,,,,Intraocular Pressure,IOP,,RIGHT,EYE,1,APPLANATION TONOMETRY,,,NOT DONE,PRE-DOSE,-0.5
15,CDISCPILOT01,OE,01-701-1015,15,BEST CORRECTED VISUAL ACUITY,OVERALL EVALUATION,2014-01-02,BASELINE,3,1,77,77,77,Visual Acuity Score,VACSCORE,,LEFT,EYE,1,ETDRS EYE CHART,,,,PRE-DOSE,-0.5
16,CDISCPILOT01,OE,01-701-1015,16,BEST CORRECTED VISUAL ACUITY,OVERALL EVALUATION,2014-01-02,BASELINE,3,1,35,35,35,Visual Acuity Score,VACSCORE,,RIGHT,EYE,1,ETDRS EYE CHART,,,,PRE-DOSE,-0.5
17,CDISCPILOT01,OE,01-701-1015,17,OPHTHALMIC ASSESSMENTS,SD-OCT CST SINGLE FORM,2014-01-30,WEEK 4,5,28,124,124,124,Center Subfield Thickness,CSUBTH,CENTER SUBFIELD THICKNESS,LEFT,RETINA,29,SD-OCT,um,um,,PRE-DOSE,-0.5
18,CDISCPILOT01,OE,01-701-1015,18,OPHTHALMIC ASSESSMENTS,SD-OCT CST SINGLE FORM,2014-01-30,WEEK 4,5,28,304,304,304,Center Subfield Thickness,CSUBTH,CENTER SUBFIELD THICKNESS,RIGHT,RETINA,29,SD-OCT,um,um,,PRE-DOSE,-0.5
19,CDISCPILOT01,OE,01-701-1015,19,OPHTHALMIC ASSESSMENTS,FORM FOR CFP EVALUATION FOR 7M/4W,2014-01-30,WEEK 4,5,28,12,12,12,Diabetic Retinopathy Sev Recode Value,DRSSR,DIABETIC RETINOPATHY SEVERITY LEVEL RECODE VALUE (ETDRS SCALE),LEFT,RETINA,29,COLOR FUNDUS PHOTOGRAPH,,,,PRE-DOSE,-0.5
20,CDISCPILOT01,OE,01-701-1015,20,OPHTHALMIC ASSESSMENTS,FORM FOR CFP EVALUATION FOR 7M/4W,2014-01-30,WEEK 4,5,28,2,2,2,Diabetic Retinopathy Sev Recode Value,DRSSR,DIABETIC RETINOPATHY SEVERITY LEVEL RECODE VALUE (ETDRS SCALE),RIGHT,RETINA,29,COLOR FUNDUS PHOTOGRAPH,,,,PRE-DOSE,-0.5
21,CDISCPILOT01,OE,01-701-1015,21,INTRAOCULAR PRESSURE,,2014-01-30,WEEK 4,5,28,22,22,22,Intraocular Pressure,IOP,,LEFT,EYE,29,APPLANATION TONOMETRY,mmHg,mmHg,,PRE-DOSE,-0.5
22,CDISCPILOT01,OE,01-701-1015,22,INTRAOCULAR PRESSURE,,2014-01-30,WEEK 4,5,28,13,13,13,Intraocular Pressure,IOP,,RIGHT,EYE,29,APPLANATION TONOMETRY,mmHg,mmHg,,PRE-DOSE,-0.5
23,CDISCPILOT01,OE,01-701-1015,23,BEST CORRECTED VISUAL ACUITY,OVERALL EVALUATION,2014-01-30,WEEK 4,5,28,77,77,77,Visual Acuity Score,VACSCORE,,LEFT,EYE,29,ETDRS EYE CHART,,,,PRE-DOSE,-0.5
24,CDISCPILOT01,OE,01-701-1015,24,BEST CORRECTED VISUAL ACUITY,OVERALL EVALUATION,2014-01-30,WEEK 4,5,28,24,24,24,Visual Acuity Score,VACSCORE,,RIGHT,EYE,29,ETDRS EYE CHART,,,,PRE-DOSE,-0.5
25,CDISCPILOT01,OE,01-701-1015,25,OPHTHALMIC ASSESSMENTS,SD-OCT CST SINGLE FORM,2014-02-12,WEEK 6,7,42,325,325,325,Center Subfield Thickness,CSUBTH,CENTER SUBFIELD THICKNESS,LEFT,RETINA,42,SD-OCT,um,um,,PRE-DOSE,-0.5
26,CDISCPILOT01,OE,01-701-1015,26,OPHTHALMIC ASSESSMENTS,SD-OCT CST SINGLE FORM,2014-02-12,WEEK 6,7,42,357,357,357,Center Subfield Thickness,CSUBTH,CENTER SUBFIELD THICKNESS,RIGHT,RETINA,42,SD-OCT,um,um,,PRE-DOSE,-0.5
27,CDISCPILOT01,OE,01-701-1015,27,OPHTHALMIC ASSESSMENTS,FORM FOR CFP EVALUATION FOR 7M/4W,2014-02-12,WEEK 6,7,42,8,8,8,Diabetic Retinopathy Sev Recode Value,DRSSR,DIABETIC RETINOPATHY SEVERITY LEVEL RECODE VALUE (ETDRS SCALE),LEFT,RETINA,42,COLOR FUNDUS PHOTOGRAPH,,,,PRE-DOSE,-0.5
28,CDISCPILOT01,OE,01-701-1015,28,OPHTHALMIC ASSESSMENTS,FORM FOR CFP EVALUATION FOR 7M/4W,2014-02-12,WEEK 6,7,42,2,2,2,Diabetic Retinopathy Sev Recode Value,DRSSR,DIABETIC RETINOPATHY SEVERITY LEVEL RECODE VALUE (ETDRS SCALE),RIGHT,RETINA,42,COLOR FUNDUS PHOTOGRAPH,,,,PRE-DOSE,-0.5
29,CDISCPILOT01,OE,01-701-1015,29,INTRAOCULAR PRESSURE,,2014-02-12,WEEK 6,7,42,5,5,5,Intraocular Pressure,IOP,,LEFT,EYE,42,APPLANATION TONOMETRY,mmHg,mmHg,,PRE-DOSE,-0.5
30,CDISCPILOT01,OE,01-701-1015,30,INTRAOCULAR PRESSURE,,2014-02-12,WEEK 6,7,42,13,13,13,Intraocular Pressure,IOP,,RIGHT,EYE,42,APPLANATION TONOMETRY,mmHg,mmHg,,PRE-DOSE,-0.5
31,CDISCPILOT01,OE,01-701-1015,31,BEST CORRECTED VISUAL ACUITY,OVERALL EVALUATION,2014-02-12,WEEK 6,7,42,64,64,64,Visual Acuity Score,VACSCORE,,LEFT,EYE,42,ETDRS EYE CHART,,,,PRE-DOSE,-0.5
32,CDISCPILOT01,OE,01-701-1015,32,BEST CORRECTED VISUAL ACUITY,OVERALL EVALUATION,2014-02-12,WEEK 6,7,42,62,62,62,Visual Acuity Score,VACSCORE,,RIGHT,EYE,42,ETDRS EYE CHART,,,,PRE-DOSE,-0.5
33,CDISCPILOT01,OE,01-701-1015,33,OPHTHALMIC ASSESSMENTS,SD-OCT CST SINGLE FORM,2014-03-05,WEEK 8,8,56,86,86,86,Center Subfield Thickness,CSUBTH,CENTER SUBFIELD THICKNESS,LEFT,RETINA,63,SD-OCT,um,um,,PRE-DOSE,-0.5
34,CDISCPILOT01,OE,01-701-1015,34,OPHTHALMIC ASSESSMENTS,SD-OCT CST SINGLE FORM,2014-03-05,WEEK 8,8,56,164,164,164,Center Subfield Thickness,CSUBTH,CENTER SUBFIELD THICKNESS,RIGHT,RETINA,63,SD-OCT,um,um,,PRE-DOSE,-0.5
35,CDISCPILOT01,OE,01-701-1015,35,OPHTHALMIC ASSESSMENTS,FORM FOR CFP EVALUATION FOR 7M/4W,2014-03-05,WEEK 8,8,56,6,6,6,Diabetic Retinopathy Sev Recode Value,DRSSR,DIABETIC RETINOPATHY SEVERITY LEVEL RECODE VALUE (ETDRS SCALE),LEFT,RETINA,63,COLOR FUNDUS PHOTOGRAPH,,,,PRE-DOSE,-0.5
36,CDISCPILOT01,OE,01-701-1015,36,OPHTHALMIC ASSESSMENTS,FORM FOR CFP EVALUATION FOR 7M/4W,2014-03-05,WEEK 8,8,56,7,7,7,Diabetic Retinopathy Sev Recode Value,DRSSR,DIABETIC RETINOPATHY SEVERITY LEVEL RECODE VALUE (ETDRS SCALE),RIGHT,RETINA,63,COLOR FUNDUS PHOTOGRAPH,,,,PRE-DOSE,-0.5
37,CDISCPILOT01,OE,01-701-1015,37,INTRAOCULAR PRESSURE,,2014-03-05,WEEK 8,8,56,13,13,13,Intraocular Pressure,IOP,,LEFT,EYE,63,APPLANATION TONOMETRY,mmHg,mmHg,,PRE-DOSE,-0.5
38,CDISCPILOT01,OE,01-701-1015,38,INTRAOCULAR PRESSURE,,2014-03-05,WEEK 8,8,56,23,23,23,Intraocular Pressure,IOP,,RIGHT,EYE,63,APPLANATION TONOMETRY,mmHg,mmHg,,PRE-DOSE,-0.5
39,CDISCPILOT01,OE,01-701-1015,39,BEST CORRECTED VISUAL ACUITY,OVERALL EVALUATION,2014-03-05,WEEK 8,8,56,92,92,92,Visual Acuity Score,VACSCORE,,LEFT,EYE,63,ETDRS EYE CHART,,,,PRE-DOSE,-0.5
40,CDISCPILOT01,OE,01-701-1015,40,BEST CORRECTED VISUAL ACUITY,OVERALL EVALUATION,2014-03-05,WEEK 8,8,56,31,31,31,Visual Acuity Score,VACSCORE,,RIGHT,EYE,63,ETDRS EYE CHART,,,,PRE-DOSE,-0.5
41,CDISCPILOT01,OE,01-701-1015,41,OPHTHALMIC ASSESSMENTS,SD-OCT CST SINGLE FORM,2014-03-26,WEEK 12,9,84,136,136,136,Center Subfield Thickness,CSUBTH,CENTER SUBFIELD THICKNESS,LEFT,RETINA,84,SD-OCT,um,um,,PRE-DOSE,-0.5
42,CDISCPILOT01,OE,01-701-1015,42,OPHTHALMIC ASSESSMENTS,SD-OCT CST SINGLE FORM,2014-03-26,WEEK 12,9,84,398,398,398,Center Subfield Thickness,CSUBTH,CENTER SUBFIELD THICKNESS,RIGHT,RETINA,84,SD-OCT,um,um,,PRE-DOSE,-0.5
43,CDISCPILOT01,OE,01-701-1015,43,OPHTHALMIC ASSESSMENTS,FORM FOR CFP EVALUATION FOR 7M/4W,2014-03-26,WEEK 12,9,84,7,7,7,Diabetic Retinopathy Sev Recode Value,DRSSR,DIABETIC RETINOPATHY SEVERITY LEVEL RECODE VALUE (ETDRS SCALE),LEFT,RETINA,84,COLOR FUNDUS PHOTOGRAPH,,,,PRE-DOSE,-0.5
44,CDISCPILOT01,OE,01-701-1015,44,OPHTHALMIC ASSESSMENTS,FORM FOR CFP EVALUATION FOR 7M/4W,2014-03-26,WEEK 12,9,84,1,1,1,Diabetic Retinopathy Sev Recode Value,DRSSR,DIABETIC RETINOPATHY SEVERITY LEVEL RECODE VALUE (ETDRS SCALE),RIGHT,RETINA,84,COLOR FUNDUS PHOTOGRAPH,,,,PRE-DOSE,-0.5
45,CDISCPILOT01,OE,01-701-1015,45,INTRAOCULAR PRESSURE,,2014-03-26,WEEK 12,9,84,28,28,28,Intraocular Pressure,IOP,,LEFT,EYE,84,APPLANATION TONOMETRY,mmHg,mmHg,,PRE-DOSE,-0.5
46,CDISCPILOT01,OE,01-701-1015,46,INTRAOCULAR PRESSURE,,2014-03-26,WEEK 12,9,84,6,6,6,Intraocular Pressure,IOP,,RIGHT,EYE,84,APPLANATION TONOMETRY,mmHg,mmHg,,PRE-DOSE,-0.5
47,CDISCPILOT01,OE,01-701-1015,47,BEST CORRECTED VISUAL ACUITY,OVERALL EVALUATION,2014-03-26,WEEK 12,9,84,41,41,41,Visual Acuity Score,VACSCORE,,LEFT,EYE,84,ETDRS EYE CHART,,,,PRE-DOSE,-0.5
48,CDISCPILOT01,OE,01-701-1015,48,BEST CORRECTED VISUAL ACUITY,OVERALL EVALUATION,2014-03-26,WEEK 12,9,84,84,84,84,Visual Acuity Score,VACSCORE,,RIGHT,EYE,84,ETDRS EYE CHART,,,,PRE-DOSE,-0.5
49,CDISCPILOT01,OE,01-701-1015,49,OPHTHALMIC ASSESSMENTS,SD-OCT CST SINGLE FORM,2014-05-07,WEEK 16,10,112,207,207,207,Center Subfield Thickness,CSUBTH,CENTER SUBFIELD THICKNESS,LEFT,RETINA,126,SD-OCT,um,um,,PRE-DOSE,-0.5
50,CDISCPILOT01,OE,01-701-1015,50,OPHTHALMIC ASSESSMENTS,SD-OCT CST SINGLE FORM,2014-05-07,WEEK 16,10,112,325,325,325,Center Subfield Thickness,CSUBTH,CENTER SUBFIELD THICKNESS,RIGHT,RETINA,126,SD-OCT,um,um,,PRE-DOSE,-0.5
51,CDISCPILOT01,OE,01-701-1015,51,OPHTHALMIC ASSESSMENTS,FORM FOR CFP EVALUATION FOR 7M/4W,2014-05-07,WEEK 16,10,112,5,5,5,Diabetic Retinopathy Sev Recode Value,DRSSR,DIABETIC RETINOPATHY SEVERITY LEVEL RECODE VALUE (ETDRS SCALE),LEFT,RETINA,126,COLOR FUNDUS PHOTOGRAPH,,,,PRE-DOSE,-0.5
52,CDISCPILOT01,OE,01-701-1015,52,OPHTHALMIC ASSESSMENTS,FORM FOR CFP EVALUATION FOR 7M/4W,2014-05-07,WEEK 16,10,112,5,5,5,Diabetic Retinopathy Sev Recode Value,DRSSR,DIABETIC RETINOPATHY SEVERITY LEVEL RECODE VALUE (ETDRS SCALE),RIGHT,RETINA,126,COLOR FUNDUS PHOTOGRAPH,,,,PRE-DOSE,-0.5
53,CDISCPILOT01,OE,01-701-1015,53,INTRAOCULAR PRESSURE,,2014-05-07,WEEK 16,10,112,27,27,27,Intraocular Pressure,IOP,,LEFT,EYE,126,APPLANATION TONOMETRY,mmHg,mmHg,,PRE-DOSE,-0.5
54,CDISCPILOT01,OE,01-701-1015,54,INTRAOCULAR PRESSURE,,2014-05-07,WEEK 16,10,112,26,26,26,Intraocular Pressure,IOP,,RIGHT,EYE,126,APPLANATION TONOMETRY,mmHg,mmHg,,PRE-DOSE,-0.5
55,CDISCPILOT01,OE,01-701-1015,55,BEST CORRECTED VISUAL ACUITY,OVERALL EVALUATION,2014-05-07,WEEK 16,10,112,52,52,52,Visual Acuity Score,VACSCORE,,LEFT,EYE,126,ETDRS EYE CHART,,,,PRE-DOSE,-0.5
56,CDISCPILOT01,OE,01-701-1015,56,BEST CORRECTED VISUAL ACUITY,OVERALL EVALUATION,2014-05-07,WEEK 16,10,112,35,35,35,Visual Acuity Score,VACSCORE,,RIGHT,EYE,126,ETDRS EYE CHART,,,,PRE-DOSE,-0.5
57,CDISCPILOT01,OE,01-701-1015,57,OPHTHALMIC ASSESSMENTS,SD-OCT CST SINGLE FORM,2014-05-21,WEEK 20,11,140,139,139,139,Center Subfield Thickness,CSUBTH,CENTER SUBFIELD THICKNESS,LEFT,RETINA,140,SD-OCT,um,um,,PRE-DOSE,-0.5
58,CDISCPILOT01,OE,01-701-1015,58,OPHTHALMIC ASSESSMENTS,SD-OCT CST SINGLE FORM,2014-05-21,WEEK 20,11,140,175,175,175,Center Subfield Thickness,CSUBTH,CENTER SUBFIELD THICKNESS,RIGHT,RETINA,140,SD-OCT,um,um,,PRE-DOSE,-0.5
59,CDISCPILOT01,OE,01-701-1015,59,OPHTHALMIC ASSESSMENTS,FORM FOR CFP EVALUATION FOR 7M/4W,2014-05-21,WEEK 20,11,140,11,11,11,Diabetic Retinopathy Sev Recode Value,DRSSR,DIABETIC RETINOPATHY SEVERITY LEVEL RECODE VALUE (ETDRS SCALE),LEFT,RETINA,140,COLOR FUNDUS PHOTOGRAPH,,,,PRE-DOSE,-0.5
60,CDISCPILOT01,OE,01-701-1015,60,OPHTHALMIC ASSESSMENTS,FORM FOR CFP EVALUATION FOR 7M/4W,2014-05-21,WEEK 20,11,140,6,6,6,Diabetic Retinopathy Sev Recode Value,DRSSR,DIABETIC RETINOPATHY SEVERITY LEVEL RECODE VALUE (ETDRS SCALE),RIGHT,RETINA,140,COLOR FUNDUS PHOTOGRAPH,,,,PRE-DOSE,-0.5
61,CDISCPILOT01,OE,01-701-1015,61,INTRAOCULAR PRESSURE,,2014-05-21,WEEK 20,11,140,22,22,22,Intraocular Pressure,IOP,,LEFT,EYE,140,APPLANATION TONOMETRY,mmHg,mmHg,,PRE-DOSE,-0.5
62,CDISCPILOT01,OE,01-701-1015,62,INTRAOCULAR PRESSURE,,2014-05-21,WEEK 20,11,140,6,6,6,Intraocular Pressure,IOP,,RIGHT,EYE,140,APPLANATION TONOMETRY,mmHg,mmHg,,PRE-DOSE,-0.5
63,CDISCPILOT01,OE,01-701-1015,63,BEST CORRECTED VISUAL ACUITY,OVERALL EVALUATION,2014-05-21,WEEK 20,11,140,2,2,2,Visual Acuity Score,VACSCORE,,LEFT,EYE,140,ETDRS EYE CHART,,,,PRE-DOSE,-0.5
64,CDISCPILOT01,OE,01-701-1015,64,BEST CORRECTED VISUAL ACUITY,OVERALL EVALUATION,2014-05-21,WEEK 20,11,140,69,69,69,Visual Acuity Score,VACSCORE,,RIGHT,EYE,140,ETDRS EYE CHART,,,,PRE-DOSE,-0.5
65,CDISCPILOT01,OE,01-701-1015,65,OPHTHALMIC ASSESSMENTS,SD-OCT CST SINGLE FORM,2014-06-18,WEEK 24,12,168,413,413,413,Center Subfield Thickness,CSUBTH,CENTER SUBFIELD THICKNESS,LEFT,RETINA,168,SD-OCT,um,um,,PRE-DOSE,-0.5
66,CDISCPILOT01,OE,01-701-1015,66,OPHTHALMIC ASSESSMENTS,SD-OCT CST SINGLE FORM,2014-06-18,WEEK 24,12,168,25,25,25,Center Subfield Thickness,CSUBTH,CENTER SUBFIELD THICKNESS,RIGHT,RETINA,168,SD-OCT,um,um,,PRE-DOSE,-0.5
67,CDISCPILOT01,OE,01-701-1015,67,OPHTHALMIC ASSESSMENTS,FORM FOR CFP EVALUATION FOR 7M/4W,2014-06-18,WEEK 24,12,168,11,11,11,Diabetic Retinopathy Sev Recode Value,DRSSR,DIABETIC RETINOPATHY SEVERITY LEVEL RECODE VALUE (ETDRS SCALE),LEFT,RETINA,168,COLOR FUNDUS PHOTOGRAPH,,,,PRE-DOSE,-0.5
68,CDISCPILOT01,OE,01-701-1015,68,OPHTHALMIC ASSESSMENTS,FORM FOR CFP EVALUATION FOR 7M/4W,2014-06-18,WEEK 24,12,168,7,7,7,Diabetic Retinopathy Sev Recode Value,DRSSR,DIABETIC RETINOPATHY SEVERITY LEVEL RECODE VALUE (ETDRS SCALE),RIGHT,RETINA,168,COLOR FUNDUS PHOTOGRAPH,,,,PRE-DOSE,-0.5
69,CDISCPILOT01,OE,01-701-1015,69,INTRAOCULAR PRESSURE,,2014-06-18,WEEK 24,12,168,26,26,26,Intraocular Pressure,IOP,,LEFT,EYE,168,APPLANATION TONOMETRY,mmHg,mmHg,,PRE-DOSE,-0.5
70,CDISCPILOT01,OE,01-701-1015,70,INTRAOCULAR PRESSURE,,2014-06-18,WEEK 24,12,168,14,14,14,Intraocular Pressure,IOP,,RIGHT,EYE,168,APPLANATION TONOMETRY,mmHg,mmHg,,PRE-DOSE,-0.5
71,CDISCPILOT01,OE,01-701-1015,71,BEST CORRECTED VISUAL ACUITY,OVERALL EVALUATION,2014-06-18,WEEK 24,12,168,44,44,44,Visual Acuity Score,VACSCORE,,LEFT,EYE,168,ETDRS EYE CHART,,,,PRE-DOSE,-0.5
72,CDISCPILOT01,OE,01-701-1015,72,BEST CORRECTED VISUAL ACUITY,OVERALL EVALUATION,2014-06-18,WEEK 24,12,168,88,88,88,Visual Acuity Score,VACSCORE,,RIGHT,EYE,168,ETDRS EYE CHART,,,,PRE-DOSE,-0.5
73,CDISCPILOT01,OE,01-701-1023,1,OPHTHALMIC ASSESSMENTS,SD-OCT CST SINGLE FORM,2012-07-22,SCREENING 1,1,-7,151,151,151,Center Subfield Thickness,CSUBTH,CENTER SUBFIELD THICKNESS,LEFT,RETINA,-14,SD-OCT,um,um,,PRE-DOSE,-0.5
74,CDISCPILOT01,OE,01-701-1023,2,OPHTHALMIC ASSESSMENTS,SD-OCT CST SINGLE FORM,2012-07-22,SCREENING 1,1,-7,204,204,204,Center Subfield Thickness,CSUBTH,CENTER SUBFIELD THICKNESS,RIGHT,RETINA,-14,SD-OCT,um,um,,PRE-DOSE,-0.5
75,CDISCPILOT01,OE,01-701-1023,3,OPHTHALMIC ASSESSMENTS,FORM FOR CFP EVALUATION FOR 7M/4W,2012-07-22,SCREENING 1,1,-7,8,8,8,Diabetic Retinopathy Sev Recode Value,DRSSR,DIABETIC RETINOPATHY SEVERITY LEVEL RECODE VALUE (ETDRS SCALE),LEFT,RETINA,-14,COLOR FUNDUS PHOTOGRAPH,,,,PRE-DOSE,-0.5
76,CDISCPILOT01,OE,01-701-1023,4,OPHTHALMIC ASSESSMENTS,FORM FOR CFP EVALUATION FOR 7M/4W,2012-07-22,SCREENING 1,1,-7,10,10,10,Diabetic Retinopathy Sev Recode Value,DRSSR,DIABETIC RETINOPATHY SEVERITY LEVEL RECODE VALUE (ETDRS SCALE),RIGHT,RETINA,-14,COLOR FUNDUS PHOTOGRAPH,,,,PRE-DOSE,-0.5
77,CDISCPILOT01,OE,01-701-1023,5,INTRAOCULAR PRESSURE,,2012-07-22,SCREENING 1,1,-7,27,27,27,Intraocular Pressure,IOP,,LEFT,EYE,-14,APPLANATION TONOMETRY,mmHg,mmHg,,PRE-DOSE,-0.5
78,CDISCPILOT01,OE,01-701-1023,6,INTRAOCULAR PRESSURE,,2012-07-22,SCREENING 1,1,-7,12,12,12,Intraocular Pressure,IOP,,RIGHT,EYE,-14,APPLANATION TONOMETRY,mmHg,mmHg,,PRE-DOSE,-0.5
79,CDISCPILOT01,OE,01-701-1023,7,BEST CORRECTED VISUAL ACUITY,OVERALL EVALUATION,2012-07-22,SCREENING 1,1,-7,5,5,5,Visual Acuity Score,VACSCORE,,LEFT,EYE,-14,ETDRS EYE CHART,,,,PRE-DOSE,-0.5
80,CDISCPILOT01,OE,01-701-1023,8,BEST CORRECTED VISUAL ACUITY,OVERALL EVALUATION,2012-07-22,SCREENING 1,1,-7,71,71,71,Visual Acuity Score,VACSCORE,,RIGHT,EYE,-14,ETDRS EYE CHART,,,,PRE-DOSE,-0.5
81,CDISCPILOT01,OE,01-701-1023,9,OPHTHALMIC ASSESSMENTS,SD-OCT CST SINGLE FORM,2012-08-05,BASELINE,3,1,257,257,257,Center Subfield Thickness,CSUBTH,CENTER SUBFIELD THICKNESS,LEFT,RETINA,1,SD-OCT,um,um,,PRE-DOSE,-0.5
82,CDISCPILOT01,OE,01-701-1023,10,OPHTHALMIC ASSESSMENTS,SD-OCT CST SINGLE FORM,2012-08-05,BASELINE,3,1,476,476,476,Center Subfield Thickness,CSUBTH,CENTER SUBFIELD THICKNESS,RIGHT,RETINA,1,SD-OCT,um,um,,PRE-DOSE,-0.5
83,CDISCPILOT01,OE,01-701-1023,11,OPHTHALMIC ASSESSMENTS,FORM FOR CFP EVALUATION FOR 7M/4W,2012-08-05,BASELINE,3,1,9,9,9,Diabetic Retinopathy Sev Recode Value,DRSSR,DIABETIC RETINOPATHY SEVERITY LEVEL RECODE VALUE (ETDRS SCALE),LEFT,RETINA,1,COLOR FUNDUS PHOTOGRAPH,,,,PRE-DOSE,-0.5
84,CDISCPILOT01,OE,01-701-1023,12,OPHTHALMIC ASSESSMENTS,FORM FOR CFP EVALUATION FOR 7M/4W,2012-08-05,BASELINE,3,1,7,7,7,Diabetic Retinopathy Sev Recode Value,DRSSR,DIABETIC RETINOPATHY SEVERITY LEVEL RECODE VALUE (ETDRS SCALE),RIGHT,RETINA,1,COLOR FUNDUS PHOTOGRAPH,,,,PRE-DOSE,-0.5
85,CDISCPILOT01,OE,01-701-1023,13,INTRAOCULAR PRESSURE,,2012-08-05,BASELINE,3,1,26,26,26,Intraocular Pressure,IOP,,LEFT,EYE,1,APPLANATION TONOMETRY,mmHg,mmHg,,PRE-DOSE,-0.5
86,CDISCPILOT01,OE,01-701-1023,14,INTRAOCULAR PRESSURE,,2012-08-05,BASELINE,3,1,10,10,10,Intraocular Pressure,IOP,,RIGHT,EYE,1,APPLANATION TONOMETRY,mmHg,mmHg,,PRE-DOSE,-0.5
87,CDISCPILOT01,OE,01-701-1023,15,BEST CORRECTED VISUAL ACUITY,OVERALL EVALUATION,2012-08-05,BASELINE,3,1,38,38,38,Visual Acuity Score,VACSCORE,,LEFT,EYE,1,ETDRS EYE CHART,,,,PRE-DOSE,-0.5
88,CDISCPILOT01,OE,01-701-1023,16,BEST CORRECTED VISUAL ACUITY,OVERALL EVALUATION,2012-08-05,BASELINE,3,1,57,57,57,Visual Acuity Score,VACSCORE,,RIGHT,EYE,1,ETDRS EYE CHART,,,,PRE-DOSE,-0.5
89,CDISCPILOT01,OE,01-701-1023,17,OPHTHALMIC ASSESSMENTS,SD-OCT CST SINGLE FORM,2012-09-02,WEEK 4,5,28,126,126,126,Center Subfield Thickness,CSUBTH,CENTER SUBFIELD THICKNESS,LEFT,RETINA,29,SD-OCT,um,um,,PRE-DOSE,-0.5
90,CDISCPILOT01,OE,01-701-1023,18,OPHTHALMIC ASSESSMENTS,SD-OCT CST SINGLE FORM,2012-09-02,WEEK 4,5,28,334,334,334,Center Subfield Thickness,CSUBTH,CENTER SUBFIELD THICKNESS,RIGHT,RETINA,29,SD-OCT,um,um,,PRE-DOSE,-0.5
91,CDISCPILOT01,OE,01-701-1023,19,OPHTHALMIC ASSESSMENTS,FORM FOR CFP EVALUATION FOR 7M/4W,2012-09-02,WEEK 4,5,28,2,2,2,Diabetic Retinopathy Sev Recode Value,DRSSR,DIABETIC RETINOPATHY SEVERITY LEVEL RECODE VALUE (ETDRS SCALE),LEFT,RETINA,29,COLOR FUNDUS PHOTOGRAPH,,,,PRE-DOSE,-0.5
92,CDISCPILOT01,OE,01-701-1023,20,OPHTHALMIC ASSESSMENTS,FORM FOR CFP EVALUATION FOR 7M/4W,2012-09-02,WEEK 4,5,28,3,3,3,Diabetic Retinopathy Sev Recode Value,DRSSR,DIABETIC RETINOPATHY SEVERITY LEVEL RECODE VALUE (ETDRS SCALE),RIGHT,RETINA,29,COLOR FUNDUS PHOTOGRAPH,,,,PRE-DOSE,-0.5
93,CDISCPILOT01,OE,01-701-1023,21,INTRAOCULAR PRESSURE,,2012-09-02,WEEK 4,5,28,15,15,15,Intraocular Pressure,IOP,,LEFT,EYE,29,APPLANATION TONOMETRY,mmHg,mmHg,,PRE-DOSE,-0.5
94,CDISCPILOT01,OE,01-701-1023,22,INTRAOCULAR PRESSURE,,2012-09-02,WEEK 4,5,28,11,11,11,Intraocular Pressure,IOP,,RIGHT,EYE,29,APPLANATION TONOMETRY,mmHg,mmHg,,PRE-DOSE,-0.5
95,CDISCPILOT01,OE,01-701-1023,23,BEST CORRECTED VISUAL ACUITY,OVERALL EVALUATION,2012-09-02,WEEK 4,5,28,1,1,1,Visual Acuity Score,VACSCORE,,LEFT,EYE,29,ETDRS EYE CHART,,,,PRE-DOSE,-0.5
96,CDISCPILOT01,OE,01-701-1023,24,BEST CORRECTED VISUAL ACUITY,OVERALL EVALUATION,2012-09-02,WEEK 4,5,28,64,64,64,Visual Acuity Score,VACSCORE,,RIGHT,EYE,29,ETDRS EYE CHART,,,,PRE-DOSE,-0.5
97,CDISCPILOT01,OE,01-701-1028,1,OPHTHALMIC ASSESSMENTS,SD-OCT CST SINGLE FORM,2013-07-11,SCREENING 1,1,-7,429,429,429,Center Subfield Thickness,CSUBTH,CENTER SUBFIELD THICKNESS,LEFT,RETINA,-8,SD-OCT,um,um,,PRE-DOSE,-0.5
98,CDISCPILOT01,OE,01-701-1028,2,OPHTHALMIC ASSESSMENTS,SD-OCT CST SINGLE FORM,2013-07-11,SCREENING 1,1,-7,163,163,163,Center Subfield Thickness,CSUBTH,CENTER SUBFIELD THICKNESS,RIGHT,RETINA,-8,SD-OCT,um,um,,PRE-DOSE,-0.5
99,CDISCPILOT01,OE,01-701-1028,3,OPHTHALMIC ASSESSMENTS,FORM FOR CFP EVALUATION FOR 7M/4W,2013-07-11,SCREENING 1,1,-7,8,8,8,Diabetic Retinopathy Sev Recode Value,DRSSR,DIABETIC RETINOPATHY SEVERITY LEVEL RECODE VALUE (ETDRS SCALE),LEFT,RETINA,-8,COLOR FUNDUS PHOTOGRAPH,,,,PRE-DOSE,-0.5
100,CDISCPILOT01,OE,01-701-1028,4,OPHTHALMIC ASSESSMENTS,FORM FOR CFP EVALUATION FOR 7M/4W,2013-07-11,SCREENING 1,1,-7,5,5,5,Diabetic Retinopathy Sev Recode Value,DRSSR,DIABETIC RETINOPATHY SEVERITY LEVEL RECODE VALUE (ETDRS SCALE),RIGHT,RETINA,-8,COLOR FUNDUS PHOTOGRAPH,,,,PRE-DOSE,-0.5
101,CDISCPILOT01,OE,01-701-1028,5,INTRAOCULAR PRESSURE,,2013-07-11,SCREENING 1,1,-7,28,28,28,Intraocular Pressure,IOP,,LEFT,EYE,-8,APPLANATION TONOMETRY,mmHg,mmHg,,PRE-DOSE,-0.5
102,CDISCPILOT01,OE,01-701-1028,6,INTRAOCULAR PRESSURE,,2013-07-11,SCREENING 1,1,-7,14,14,14,Intraocular Pressure,IOP,,RIGHT,EYE,-8,APPLANATION TONOMETRY,mmHg,mmHg,,PRE-DOSE,-0.5
103,CDISCPILOT01,OE,01-701-1028,7,BEST CORRECTED VISUAL ACUITY,OVERALL EVALUATION,2013-07-11,SCREENING 1,1,-7,66,66,66,Visual Acuity Score,VACSCORE,,LEFT,EYE,-8,ETDRS EYE CHART,,,,PRE-DOSE,-0.5
104,CDISCPILOT01,OE,01-701-1028,8,BEST CORRECTED VISUAL ACUITY,OVERALL EVALUATION,2013-07-11,SCREENING 1,1,-7,91,91,91,Visual Acuity Score,VACSCORE,,RIGHT,EYE,-8,ETDRS EYE CHART,,,,PRE-DOSE,-0.5
105,CDISCPILOT01,OE,01-701-1028,9,OPHTHALMIC ASSESSMENTS,SD-OCT CST SINGLE FORM,2013-07-19,BASELINE,3,1,49,49,49,Center Subfield Thickness,CSUBTH,CENTER SUBFIELD THICKNESS,LEFT,RETINA,1,SD-OCT,um,um,,PRE-DOSE,-0.5
106,CDISCPILOT01,OE,01-701-1028,10,OPHTHALMIC ASSESSMENTS,SD-OCT CST SINGLE FORM,2013-07-19,BASELINE,3,1,337,337,337,Center Subfield Thickness,CSUBTH,CENTER SUBFIELD THICKNESS,RIGHT,RETINA,1,SD-OCT,um,um,,PRE-DOSE,-0.5
107,CDISCPILOT01,OE,01-701-1028,11,OPHTHALMIC ASSESSMENTS,FORM FOR CFP EVALUATION FOR 7M/4W,2013-07-19,BASELINE,3,1,6,6,6,Diabetic Retinopathy Sev Recode Value,DRSSR,DIABETIC RETINOPATHY SEVERITY LEVEL RECODE VALUE (ETDRS SCALE),LEFT,RETINA,1,COLOR FUNDUS PHOTOGRAPH,,,,PRE-DOSE,-0.5
108,CDISCPILOT01,OE,01-701-1028,12,OPHTHALMIC ASSESSMENTS,FORM FOR CFP EVALUATION FOR 7M/4W,2013-07-19,BASELINE,3,1,9,9,9,Diabetic Retinopathy Sev Recode Value,DRSSR,DIABETIC RETINOPATHY SEVERITY LEVEL RECODE VALUE (ETDRS SCALE),RIGHT,RETINA,1,COLOR FUNDUS PHOTOGRAPH,,,,PRE-DOSE,-0.5
109,CDISCPILOT01,OE,01-701-1028,13,INTRAOCULAR PRESSURE,,2013-07-19,BASELINE,3,1,25,25,25,Intraocular Pressure,IOP,,LEFT,EYE,1,APPLANATION TONOMETRY,mmHg,mmHg,,PRE-DOSE,-0.5
110,CDISCPILOT01,OE,01-701-1028,14,INTRAOCULAR PRESSURE,,2013-07-19,BASELINE,3,1,19,19,19,Intraocular Pressure,IOP,,RIGHT,EYE,1,APPLANATION TONOMETRY,mmHg,mmHg,,PRE-DOSE,-0.5
111,CDISCPILOT01,OE,01-701-1028,15,BEST CORRECTED VISUAL ACUITY,OVERALL EVALUATION,2013-07-19,BASELINE,3,1,44,44,44,Visual Acuity Score,VACSCORE,,LEFT,EYE,1,ETDRS EYE CHART,,,,PRE-DOSE,-0.5
112,CDISCPILOT01,OE,01-701-1028,16,BEST CORRECTED VISUAL ACUITY,OVERALL EVALUATION,2013-07-19,BASELINE,3,1,63,63,63,Visual Acuity Score,VACSCORE,,RIGHT,EYE,1,ETDRS EYE CHART,,,,PRE-DOSE,-0.5
113,CDISCPILOT01,OE,01-701-1028,17,OPHTHALMIC ASSESSMENTS,SD-OCT CST SINGLE FORM,2013-08-14,WEEK 4,5,28,435,435,435,Center Subfield Thickness,CSUBTH,CENTER SUBFIELD THICKNESS,LEFT,RETINA,27,SD-OCT,um,um,,PRE-DOSE,-0.5
114,CDISCPILOT01,OE,01-701-1028,18,OPHTHALMIC ASSESSMENTS,SD-OCT CST SINGLE FORM,2013-08-14,WEEK 4,5,28,453,453,453,Center Subfield Thickness,CSUBTH,CENTER SUBFIELD THICKNESS,RIGHT,RETINA,27,SD-OCT,um,um,,PRE-DOSE,-0.5
115,CDISCPILOT01,OE,01-701-1028,19,OPHTHALMIC ASSESSMENTS,FORM FOR CFP EVALUATION FOR 7M/4W,2013-08-14,WEEK 4,5,28,10,10,10,Diabetic Retinopathy Sev Recode Value,DRSSR,DIABETIC RETINOPATHY SEVERITY LEVEL RECODE VALUE (ETDRS SCALE),LEFT,RETINA,27,COLOR FUNDUS PHOTOGRAPH,,,,PRE-DOSE,-0.5
116,CDISCPILOT01,OE,01-701-1028,20,OPHTHALMIC ASSESSMENTS,FORM FOR CFP EVALUATION FOR 7M/4W,2013-08-14,WEEK 4,5,28,1,1,1,Diabetic Retinopathy Sev Recode Value,DRSSR,DIABETIC RETINOPATHY SEVERITY LEVEL RECODE VALUE (ETDRS SCALE),RIGHT,RETINA,27,COLOR FUNDUS PHOTOGRAPH,,,,PRE-DOSE,-0.5
117,CDISCPILOT01,OE,01-701-1028,21,INTRAOCULAR PRESSURE,,2013-08-14,WEEK 4,5,28,10,10,10,Intraocular Pressure,IOP,,LEFT,EYE,27,APPLANATION TONOMETRY,mmHg,mmHg,,PRE-DOSE,-0.5
118,CDISCPILOT01,OE,01-701-1028,22,INTRAOCULAR PRESSURE,,2013-08-14,WEEK 4,5,28,19,19,19,Intraocular Pressure,IOP,,RIGHT,EYE,27,APPLANATION TONOMETRY,mmHg,mmHg,,PRE-DOSE,-0.5
119,CDISCPILOT01,OE,01-701-1028,23,BEST CORRECTED VISUAL ACUITY,OVERALL EVALUATION,2013-08-14,WEEK 4,5,28,76,76,76,Visual Acuity Score,VACSCORE,,LEFT,EYE,27,ETDRS EYE CHART,,,,PRE-DOSE,-0.5
120,CDISCPILOT01,OE,01-701-1028,24,BEST CORRECTED VISUAL ACUITY,OVERALL EVALUATION,2013-08-14,WEEK 4,5,28,34,34,34,Visual Acuity Score,VACSCORE,,RIGHT,EYE,27,ETDRS EYE CHART,,,,PRE-DOSE,-0.5
121,CDISCPILOT01,OE,01-701-1028,25,OPHTHALMIC ASSESSMENTS,SD-OCT CST SINGLE FORM,2013-08-29,WEEK 6,7,42,177,177,177,Center Subfield Thickness,CSUBTH,CENTER SUBFIELD THICKNESS,LEFT,RETINA,42,SD-OCT,um,um,,PRE-DOSE,-0.5
122,CDISCPILOT01,OE,01-701-1028,26,OPHTHALMIC ASSESSMENTS,SD-OCT CST SINGLE FORM,2013-08-29,WEEK 6,7,42,295,295,295,Center Subfield Thickness,CSUBTH,CENTER SUBFIELD THICKNESS,RIGHT,RETINA,42,SD-OCT,um,um,,PRE-DOSE,-0.5
123,CDISCPILOT01,OE,01-701-1028,27,OPHTHALMIC ASSESSMENTS,FORM FOR CFP EVALUATION FOR 7M/4W,2013-08-29,WEEK 6,7,42,10,10,10,Diabetic Retinopathy Sev Recode Value,DRSSR,DIABETIC RETINOPATHY SEVERITY LEVEL RECODE VALUE (ETDRS SCALE),LEFT,RETINA,42,COLOR FUNDUS PHOTOGRAPH,,,,PRE-DOSE,-0.5
124,CDISCPILOT01,OE,01-701-1028,28,OPHTHALMIC ASSESSMENTS,FORM FOR CFP EVALUATION FOR 7M/4W,2013-08-29,WEEK 6,7,42,9,9,9,Diabetic Retinopathy Sev Recode Value,DRSSR,DIABETIC RETINOPATHY SEVERITY LEVEL RECODE VALUE (ETDRS SCALE),RIGHT,RETINA,42,COLOR FUNDUS PHOTOGRAPH,,,,PRE-DOSE,-0.5
125,CDISCPILOT01,OE,01-701-1028,29,INTRAOCULAR PRESSURE,,2013-08-29,WEEK 6,7,42,13,13,13,Intraocular Pressure,IOP,,LEFT,EYE,42,APPLANATION TONOMETRY,mmHg,mmHg,,PRE-DOSE,-0.5
126,CDISCPILOT01,OE,01-701-1028,30,INTRAOCULAR PRESSURE,,2013-08-29,WEEK 6,7,42,27,27,27,Intraocular Pressure,IOP,,RIGHT,EYE,42,APPLANATION TONOMETRY,mmHg,mmHg,,PRE-DOSE,-0.5
127,CDISCPILOT01,OE,01-701-1028,31,BEST CORRECTED VISUAL ACUITY,OVERALL EVALUATION,2013-08-29,WEEK 6,7,42,49,49,49,Visual Acuity Score,VACSCORE,,LEFT,EYE,42,ETDRS EYE CHART,,,,PRE-DOSE,-0.5
128,CDISCPILOT01,OE,01-701-1028,32,BEST CORRECTED VISUAL ACUITY,OVERALL EVALUATION,2013-08-29,WEEK 6,7,42,66,66,66,Visual Acuity Score,VACSCORE,,RIGHT,EYE,42,ETDRS EYE CHART,,,,PRE-DOSE,-0.5
129,CDISCPILOT01,OE,01-701-1028,33,OPHTHALMIC ASSESSMENTS,SD-OCT CST SINGLE FORM,2013-09-10,WEEK 8,8,56,105,105,105,Center Subfield Thickness,CSUBTH,CENTER SUBFIELD THICKNESS,LEFT,RETINA,54,SD-OCT,um,um,,PRE-DOSE,-0.5
130,CDISCPILOT01,OE,01-701-1028,34,OPHTHALMIC ASSESSMENTS,SD-OCT CST SINGLE FORM,2013-09-10,WEEK 8,8,56,252,252,252,Center Subfield Thickness,CSUBTH,CENTER SUBFIELD THICKNESS,RIGHT,RETINA,54,SD-OCT,um,um,,PRE-DOSE,-0.5
131,CDISCPILOT01,OE,01-701-1028,35,OPHTHALMIC ASSESSMENTS,FORM FOR CFP EVALUATION FOR 7M/4W,2013-09-10,WEEK 8,8,56,10,10,10,Diabetic Retinopathy Sev Recode Value,DRSSR,DIABETIC RETINOPATHY SEVERITY LEVEL RECODE VALUE (ETDRS SCALE),LEFT,RETINA,54,COLOR FUNDUS PHOTOGRAPH,,,,PRE-DOSE,-0.5
132,CDISCPILOT01,OE,01-701-1028,36,OPHTHALMIC ASSESSMENTS,FORM FOR CFP EVALUATION FOR 7M/4W,2013-09-10,WEEK 8,8,56,5,5,5,Diabetic Retinopathy Sev Recode Value,DRSSR,DIABETIC RETINOPATHY SEVERITY LEVEL RECODE VALUE (ETDRS SCALE),RIGHT,RETINA,54,COLOR FUNDUS PHOTOGRAPH,,,,PRE-DOSE,-0.5
133,CDISCPILOT01,OE,01-701-1028,37,INTRAOCULAR PRESSURE,,2013-09-10,WEEK 8,8,56,28,28,28,Intraocular Pressure,IOP,,LEFT,EYE,54,APPLANATION TONOMETRY,mmHg,mmHg,,PRE-DOSE,-0.5
134,CDISCPILOT01,OE,01-701-1028,38,INTRAOCULAR PRESSURE,,2013-09-10,WEEK 8,8,56,21,21,21,Intraocular Pressure,IOP,,RIGHT,EYE,54,APPLANATION TONOMETRY,mmHg,mmHg,,PRE-DOSE,-0.5
135,CDISCPILOT01,OE,01-701-1028,39,BEST CORRECTED VISUAL ACUITY,OVERALL EVALUATION,2013-09-10,WEEK 8,8,56,13,13,13,Visual Acuity Score,VACSCORE,,LEFT,EYE,54,ETDRS EYE CHART,,,,PRE-DOSE,-0.5
136,CDISCPILOT01,OE,01-701-1028,40,BEST CORRECTED VISUAL ACUITY,OVERALL EVALUATION,2013-09-10,WEEK 8,8,56,54,54,54,Visual Acuity Score,VACSCORE,,RIGHT,EYE,54,ETDRS EYE CHART,,,,PRE-DOSE,-0.5
137,CDISCPILOT01,OE,01-701-1028,41,OPHTHALMIC ASSESSMENTS,SD-OCT CST SINGLE FORM,2013-09-24,WEEK 10 (T),8.1,70,267,267,267,Center Subfield Thickness,CSUBTH,CENTER SUBFIELD THICKNESS,LEFT,RETINA,68,SD-OCT,um,um,,PRE-DOSE,-0.5
138,CDISCPILOT01,OE,01-701-1028,42,OPHTHALMIC ASSESSMENTS,SD-OCT CST SINGLE FORM,2013-09-24,WEEK 10 (T),8.1,70,71,71,71,Center Subfield Thickness,CSUBTH,CENTER SUBFIELD THICKNESS,RIGHT,RETINA,68,SD-OCT,um,um,,PRE-DOSE,-0.5
139,CDISCPILOT01,OE,01-701-1028,43,OPHTHALMIC ASSESSMENTS,FORM FOR CFP EVALUATION FOR 7M/4W,2013-09-24,WEEK 10 (T),8.1,70,8,8,8,Diabetic Retinopathy Sev Recode Value,DRSSR,DIABETIC RETINOPATHY SEVERITY LEVEL RECODE VALUE (ETDRS SCALE),LEFT,RETINA,68,COLOR FUNDUS PHOTOGRAPH,,,,PRE-DOSE,-0.5
140,CDISCPILOT01,OE,01-701-1028,44,OPHTHALMIC ASSESSMENTS,FORM FOR CFP EVALUATION FOR 7M/4W,2013-09-24,WEEK 10 (T),8.1,70,8,8,8,Diabetic Retinopathy Sev Recode Value,DRSSR,DIABETIC RETINOPATHY SEVERITY LEVEL RECODE VALUE (ETDRS SCALE),RIGHT,RETINA,68,COLOR FUNDUS PHOTOGRAPH,,,,PRE-DOSE,-0.5
141,CDISCPILOT01,OE,01-701-1028,45,INTRAOCULAR PRESSURE,,2013-09-24,WEEK 10 (T),8.1,70,27,27,27,Intraocular Pressure,IOP,,LEFT,EYE,68,APPLANATION TONOMETRY,mmHg,mmHg,,PRE-DOSE,-0.5
142,CDISCPILOT01,OE,01-701-1028,46,INTRAOCULAR PRESSURE,,2013-09-24,WEEK 10 (T),8.1,70,9,9,9,Intraocular Pressure,IOP,,RIGHT,EYE,68,APPLANATION TONOMETRY,mmHg,mmHg,,PRE-DOSE,-0.5
143,CDISCPILOT01,OE,01-701-1028,47,BEST CORRECTED VISUAL ACUITY,OVERALL EVALUATION,2013-09-24,WEEK 10 (T),8.1,70,46,46,46,Visual Acuity Score,VACSCORE,,LEFT,EYE,68,ETDRS EYE CHART,,,,PRE-DOSE,-0.5
144,CDISCPILOT01,OE,01-701-1028,48,BEST CORRECTED VISUAL ACUITY,OVERALL EVALUATION,2013-09-24,WEEK 10 (T),8.1,70,87,87,87,Visual Acuity Score,VACSCORE,,RIGHT,EYE,68,ETDRS EYE CHART,,,,PRE-DOSE,-0.5
145,CDISCPILOT01,OE,01-701-1028,49,OPHTHALMIC ASSESSMENTS,SD-OCT CST SINGLE FORM,2013-10-09,WEEK 12,9,84,112,112,112,Center Subfield Thickness,CSUBTH,CENTER SUBFIELD THICKNESS,LEFT,RETINA,83,SD-OCT,um,um,,PRE-DOSE,-0.5
146,CDISCPILOT01,OE,01-701-1028,50,OPHTHALMIC ASSESSMENTS,SD-OCT CST SINGLE FORM,2013-10-09,WEEK 12,9,84,356,356,356,Center Subfield Thickness,CSUBTH,CENTER SUBFIELD THICKNESS,RIGHT,RETINA,83,SD-OCT,um,um,,PRE-DOSE,-0.5
147,CDISCPILOT01,OE,01-701-1028,51,OPHTHALMIC ASSESSMENTS,FORM FOR CFP EVALUATION FOR 7M/4W,2013-10-09,WEEK 12,9,84,4,4,4,Diabetic Retinopathy Sev Recode Value,DRSSR,DIABETIC RETINOPATHY SEVERITY LEVEL RECODE VALUE (ETDRS SCALE),LEFT,RETINA,83,COLOR FUNDUS PHOTOGRAPH,,,,PRE-DOSE,-0.5
148,CDISCPILOT01,OE,01-701-1028,52,OPHTHALMIC ASSESSMENTS,FORM FOR CFP EVALUATION FOR 7M/4W,2013-10-09,WEEK 12,9,84,1,1,1,Diabetic Retinopathy Sev Recode Value,DRSSR,DIABETIC RETINOPATHY SEVERITY LEVEL RECODE VALUE (ETDRS SCALE),RIGHT,RETINA,83,COLOR FUNDUS PHOTOGRAPH,,,,PRE-DOSE,-0.5
149,CDISCPILOT01,OE,01-701-1028,53,INTRAOCULAR PRESSURE,,2013-10-09,WEEK 12,9,84,22,22,22,Intraocular Pressure,IOP,,LEFT,EYE,83,APPLANATION TONOMETRY,mmHg,mmHg,,PRE-DOSE,-0.5
150,CDISCPILOT01,OE,01-701-1028,54,INTRAOCULAR PRESSURE,,2013-10-09,WEEK 12,9,84,25,25,25,Intraocular Pressure,IOP,,RIGHT,EYE,83,APPLANATION TONOMETRY,mmHg,mmHg,,PRE-DOSE,-0.5
151,CDISCPILOT01,OE,01-701-1028,55,BEST CORRECTED VISUAL ACUITY,OVERALL EVALUATION,2013-10-09,WEEK 12,9,84,61,61,61,Visual Acuity Score,VACSCORE,,LEFT,EYE,83,ETDRS EYE CHART,,,,PRE-DOSE,-0.5
152,CDISCPILOT01,OE,01-701-1028,56,BEST CORRECTED VISUAL ACUITY,OVERALL EVALUATION,2013-10-09,WEEK 12,9,84,58,58,58,Visual Acuity Score,VACSCORE,,RIGHT,EYE,83,ETDRS EYE CHART,,,,PRE-DOSE,-0.5
153,CDISCPILOT01,OE,01-701-1028,57,OPHTHALMIC ASSESSMENTS,SD-OCT CST SINGLE FORM,2013-11-06,WEEK 16,10,112,319,319,319,Center Subfield Thickness,CSUBTH,CENTER SUBFIELD THICKNESS,LEFT,RETINA,111,SD-OCT,um,um,,PRE-DOSE,-0.5
154,CDISCPILOT01,OE,01-701-1028,58,OPHTHALMIC ASSESSMENTS,SD-OCT CST SINGLE FORM,2013-11-06,WEEK 16,10,112,241,241,241,Center Subfield Thickness,CSUBTH,CENTER SUBFIELD THICKNESS,RIGHT,RETINA,111,SD-OCT,um,um,,PRE-DOSE,-0.5
155,CDISCPILOT01,OE,01-701-1028,59,OPHTHALMIC ASSESSMENTS,FORM FOR CFP EVALUATION FOR 7M/4W,2013-11-06,WEEK 16,10,112,6,6,6,Diabetic Retinopathy Sev Recode Value,DRSSR,DIABETIC RETINOPATHY SEVERITY LEVEL RECODE VALUE (ETDRS SCALE),LEFT,RETINA,111,COLOR FUNDUS PHOTOGRAPH,,,,PRE-DOSE,-0.5
156,CDISCPILOT01,OE,01-701-1028,60,OPHTHALMIC ASSESSMENTS,FORM FOR CFP EVALUATION FOR 7M/4W,2013-11-06,WEEK 16,10,112,8,8,8,Diabetic Retinopathy Sev Recode Value,DRSSR,DIABETIC RETINOPATHY SEVERITY LEVEL RECODE VALUE (ETDRS SCALE),RIGHT,RETINA,111,COLOR FUNDUS PHOTOGRAPH,,,,PRE-DOSE,-0.5
157,CDISCPILOT01,OE,01-701-1028,61,INTRAOCULAR PRESSURE,,2013-11-06,WEEK 16,10,112,18,18,18,Intraocular Pressure,IOP,,LEFT,EYE,111,APPLANATION TONOMETRY,mmHg,mmHg,,PRE-DOSE,-0.5
158,CDISCPILOT01,OE,01-701-1028,62,INTRAOCULAR PRESSURE,,2013-11-06,WEEK 16,10,112,18,18,18,Intraocular Pressure,IOP,,RIGHT,EYE,111,APPLANATION TONOMETRY,mmHg,mmHg,,PRE-DOSE,-0.5
159,CDISCPILOT01,OE,01-701-1028,63,BEST CORRECTED VISUAL ACUITY,OVERALL EVALUATION,2013-11-06,WEEK 16,10,112,75,75,75,Visual Acuity Score,VACSCORE,,LEFT,EYE,111,ETDRS EYE CHART,,,,PRE-DOSE,-0.5
160,CDISCPILOT01,OE,01-701-1028,64,BEST CORRECTED VISUAL ACUITY,OVERALL EVALUATION,2013-11-06,WEEK 16,10,112,24,24,24,Visual Acuity Score,VACSCORE,,RIGHT,EYE,111,ETDRS EYE CHART,,,,PRE-DOSE,-0.5
161,CDISCPILOT01,OE,01-701-1028,65,OPHTHALMIC ASSESSMENTS,SD-OCT CST SINGLE FORM,2013-12-04,WEEK 20,11,140,475,475,475,Center Subfield Thickness,CSUBTH,CENTER SUBFIELD THICKNESS,LEFT,RETINA,139,SD-OCT,um,um,,PRE-DOSE,-0.5
162,CDISCPILOT01,OE,01-701-1028,66,OPHTHALMIC ASSESSMENTS,SD-OCT CST SINGLE FORM,2013-12-04,WEEK 20,11,140,418,418,418,Center Subfield Thickness,CSUBTH,CENTER SUBFIELD THICKNESS,RIGHT,RETINA,139,SD-OCT,um,um,,PRE-DOSE,-0.5
163,CDISCPILOT01,OE,01-701-1028,67,OPHTHALMIC ASSESSMENTS,FORM FOR CFP EVALUATION FOR 7M/4W,2013-12-04,WEEK 20,11,140,9,9,9,Diabetic Retinopathy Sev Recode Value,DRSSR,DIABETIC RETINOPATHY SEVERITY LEVEL RECODE VALUE (ETDRS SCALE),LEFT,RETINA,139,COLOR FUNDUS PHOTOGRAPH,,,,PRE-DOSE,-0.5
164,CDISCPILOT01,OE,01-701-1028,68,OPHTHALMIC ASSESSMENTS,FORM FOR CFP EVALUATION FOR 7M/4W,2013-12-04,WEEK 20,11,140,5,5,5,Diabetic Retinopathy Sev Recode Value,DRSSR,DIABETIC RETINOPATHY SEVERITY LEVEL RECODE VALUE (ETDRS SCALE),RIGHT,RETINA,139,COLOR FUNDUS PHOTOGRAPH,,,,PRE-DOSE,-0.5
165,CDISCPILOT01,OE,01-701-1028,69,INTRAOCULAR PRESSURE,,2013-12-04,WEEK 20,11,140,7,7,7,Intraocular Pressure,IOP,,LEFT,EYE,139,APPLANATION TONOMETRY,mmHg,mmHg,,PRE-DOSE,-0.5
166,CDISCPILOT01,OE,01-701-1028,70,INTRAOCULAR PRESSURE,,2013-12-04,WEEK 20,11,140,22,22,22,Intraocular Pressure,IOP,,RIGHT,EYE,139,APPLANATION TONOMETRY,mmHg,mmHg,,PRE-DOSE,-0.5
167,CDISCPILOT01,OE,01-701-1028,71,BEST CORRECTED VISUAL ACUITY,OVERALL EVALUATION,2013-12-04,WEEK 20,11,140,40,40,40,Visual Acuity Score,VACSCORE,,LEFT,EYE,139,ETDRS EYE CHART,,,,PRE-DOSE,-0.5
168,CDISCPILOT01,OE,01-701-1028,72,BEST CORRECTED VISUAL ACUITY,OVERALL EVALUATION,2013-12-04,WEEK 20,11,140,29,29,29,Visual Acuity Score,VACSCORE,,RIGHT,EYE,139,ETDRS EYE CHART,,,,PRE-DOSE,-0.5
169,CDISCPILOT01,OE,01-701-1028,73,OPHTHALMIC ASSESSMENTS,SD-OCT CST SINGLE FORM,2014-01-06,WEEK 24,12,168,365,365,365,Center Subfield Thickness,CSUBTH,CENTER SUBFIELD THICKNESS,LEFT,RETINA,172,SD-OCT,um,um,,PRE-DOSE,-0.5
170,CDISCPILOT01,OE,01-701-1028,74,OPHTHALMIC ASSESSMENTS,SD-OCT CST SINGLE FORM,2014-01-06,WEEK 24,12,168,333,333,333,Center Subfield Thickness,CSUBTH,CENTER SUBFIELD THICKNESS,RIGHT,RETINA,172,SD-OCT,um,um,,PRE-DOSE,-0.5
171,CDISCPILOT01,OE,01-701-1028,75,OPHTHALMIC ASSESSMENTS,FORM FOR CFP EVALUATION FOR 7M/4W,2014-01-06,WEEK 24,12,168,12,12,12,Diabetic Retinopathy Sev Recode Value,DRSSR,DIABETIC RETINOPATHY SEVERITY LEVEL RECODE VALUE (ETDRS SCALE),LEFT,RETINA,172,COLOR FUNDUS PHOTOGRAPH,,,,PRE-DOSE,-0.5
172,CDISCPILOT01,OE,01-701-1028,76,OPHTHALMIC ASSESSMENTS,FORM FOR CFP EVALUATION FOR 7M/4W,2014-01-06,WEEK 24,12,168,10,10,10,Diabetic Retinopathy Sev Recode Value,DRSSR,DIABETIC RETINOPATHY SEVERITY LEVEL RECODE VALUE (ETDRS SCALE),RIGHT,RETINA,172,COLOR FUNDUS PHOTOGRAPH,,,,PRE-DOSE,-0.5
173,CDISCPILOT01,OE,01-701-1028,77,INTRAOCULAR PRESSURE,,2014-01-06,WEEK 24,12,168,29,29,29,Intraocular Pressure,IOP,,LEFT,EYE,172,APPLANATION TONOMETRY,mmHg,mmHg,,PRE-DOSE,-0.5
174,CDISCPILOT01,OE,01-701-1028,78,INTRAOCULAR PRESSURE,,2014-01-06,WEEK 24,12,168,23,23,23,Intraocular Pressure,IOP,,RIGHT,EYE,172,APPLANATION TONOMETRY,mmHg,mmHg,,PRE-DOSE,-0.5
175,CDISCPILOT01,OE,01-701-1028,79,BEST CORRECTED VISUAL ACUITY,OVERALL EVALUATION,2014-01-06,WEEK 24,12,168,47,47,47,Visual Acuity Score,VACSCORE,,LEFT,EYE,172,ETDRS EYE CHART,,,,PRE-DOSE,-0.5
176,CDISCPILOT01,OE,01-701-1028,80,BEST CORRECTED VISUAL ACUITY,OVERALL EVALUATION,2014-01-06,WEEK 24,12,168,2,2,2,Visual Acuity Score,VACSCORE,,RIGHT,EYE,172,ETDRS EYE CHART,,,,PRE-DOSE,-0.5
177,CDISCPILOT01,OE,01-701-1033,1,OPHTHALMIC ASSESSMENTS,SD-OCT CST SINGLE FORM,2014-03-10,SCREENING 1,1,-7,357,357,357,Center Subfield Thickness,CSUBTH,CENTER SUBFIELD THICKNESS,LEFT,RETINA,-8,SD-OCT,um,um,,PRE-DOSE,-0.5
178,CDISCPILOT01,OE,01-701-1033,2,OPHTHALMIC ASSESSMENTS,SD-OCT CST SINGLE FORM,2014-03-10,SCREENING 1,1,-7,61,61,61,Center Subfield Thickness,CSUBTH,CENTER SUBFIELD THICKNESS,RIGHT,RETINA,-8,SD-OCT,um,um,,PRE-DOSE,-0.5
179,CDISCPILOT01,OE,01-701-1033,3,OPHTHALMIC ASSESSMENTS,FORM FOR CFP EVALUATION FOR 7M/4W,2014-03-10,SCREENING 1,1,-7,11,11,11,Diabetic Retinopathy Sev Recode Value,DRSSR,DIABETIC RETINOPATHY SEVERITY LEVEL RECODE VALUE (ETDRS SCALE),LEFT,RETINA,-8,COLOR FUNDUS PHOTOGRAPH,,,,PRE-DOSE,-0.5
180,CDISCPILOT01,OE,01-701-1033,4,OPHTHALMIC ASSESSMENTS,FORM FOR CFP EVALUATION FOR 7M/4W,2014-03-10,SCREENING 1,1,-7,7,7,7,Diabetic Retinopathy Sev Recode Value,DRSSR,DIABETIC RETINOPATHY SEVERITY LEVEL RECODE VALUE (ETDRS SCALE),RIGHT,RETINA,-8,COLOR FUNDUS PHOTOGRAPH,,,,PRE-DOSE,-0.5
181,CDISCPILOT01,OE,01-701-1033,5,INTRAOCULAR PRESSURE,,2014-03-10,SCREENING 1,1,-7,23,23,23,Intraocular Pressure,IOP,,LEFT,EYE,-8,APPLANATION TONOMETRY,mmHg,mmHg,,PRE-DOSE,-0.5
182,CDISCPILOT01,OE,01-701-1033,6,INTRAOCULAR PRESSURE,,2014-03-10,SCREENING 1,1,-7,11,11,11,Intraocular Pressure,IOP,,RIGHT,EYE,-8,APPLANATION TONOMETRY,mmHg,mmHg,,PRE-DOSE,-0.5
183,CDISCPILOT01,OE,01-701-1033,7,BEST CORRECTED VISUAL ACUITY,OVERALL EVALUATION,2014-03-10,SCREENING 1,1,-7,81,81,81,Visual Acuity Score,VACSCORE,,LEFT,EYE,-8,ETDRS EYE CHART,,,,PRE-DOSE,-0.5
184,CDISCPILOT01,OE,01-701-1033,8,BEST CORRECTED VISUAL ACUITY,OVERALL EVALUATION,2014-03-10,SCREENING 1,1,-7,92,92,92,Visual Acuity Score,VACSCORE,,RIGHT,EYE,-8,ETDRS EYE CHART,,,,PRE-DOSE,-0.5
185,CDISCPILOT01,OE,01-701-1033,9,OPHTHALMIC ASSESSMENTS,SD-OCT CST SINGLE FORM,2014-03-18,BASELINE,3,1,107,107,107,Center Subfield Thickness,CSUBTH,CENTER SUBFIELD THICKNESS,LEFT,RETINA,1,SD-OCT,um,um,,PRE-DOSE,-0.5
186,CDISCPILOT01,OE,01-701-1033,10,OPHTHALMIC ASSESSMENTS,SD-OCT CST SINGLE FORM,2014-03-18,BASELINE,3,1,126,126,126,Center Subfield Thickness,CSUBTH,CENTER SUBFIELD THICKNESS,RIGHT,RETINA,1,SD-OCT,um,um,,PRE-DOSE,-0.5
187,CDISCPILOT01,OE,01-701-1033,11,OPHTHALMIC ASSESSMENTS,FORM FOR CFP EVALUATION FOR 7M/4W,2014-03-18,BASELINE,3,1,10,10,10,Diabetic Retinopathy Sev Recode Value,DRSSR,DIABETIC RETINOPATHY SEVERITY LEVEL RECODE VALUE (ETDRS SCALE),LEFT,RETINA,1,COLOR FUNDUS PHOTOGRAPH,,,,PRE-DOSE,-0.5
188,CDISCPILOT01,OE,01-701-1033,12,OPHTHALMIC ASSESSMENTS,FORM FOR CFP EVALUATION FOR 7M/4W,2014-03-18,BASELINE,3,1,5,5,5,Diabetic Retinopathy Sev Recode Value,DRSSR,DIABETIC RETINOPATHY SEVERITY LEVEL RECODE VALUE (ETDRS SCALE),RIGHT,RETINA,1,COLOR FUNDUS PHOTOGRAPH,,,,PRE-DOSE,-0.5
189,CDISCPILOT01,OE,01-701-1033,13,INTRAOCULAR PRESSURE,,2014-03-18,BASELINE,3,1,19,19,19,Intraocular Pressure,IOP,,LEFT,EYE,1,APPLANATION TONOMETRY,mmHg,mmHg,,PRE-DOSE,-0.5
190,CDISCPILOT01,OE,01-701-1033,14,INTRAOCULAR PRESSURE,,2014-03-18,BASELINE,3,1,22,22,22,Intraocular Pressure,IOP,,RIGHT,EYE,1,APPLANATION TONOMETRY,mmHg,mmHg,,PRE-DOSE,-0.5
191,CDISCPILOT01,OE,01-701-1033,15,BEST CORRECTED VISUAL ACUITY,OVERALL EVALUATION,2014-03-18,BASELINE,3,1,18,18,18,Visual Acuity Score,VACSCORE,,LEFT,EYE,1,ETDRS EYE CHART,,,,PRE-DOSE,-0.5
192,CDISCPILOT01,OE,01-701-1033,16,BEST CORRECTED VISUAL ACUITY,OVERALL EVALUATION,2014-03-18,BASELINE,3,1,3,3,3,Visual Acuity Score,VACSCORE,,RIGHT,EYE,1,ETDRS EYE CHART,,,,PRE-DOSE,-0.5
193,CDISCPILOT01,OE,01-701-1033,17,OPHTHALMIC ASSESSMENTS,SD-OCT CST SINGLE FORM,2014-04-14,WEEK 4,5,28,243,243,243,Center Subfield Thickness,CSUBTH,CENTER SUBFIELD THICKNESS,LEFT,RETINA,28,SD-OCT,um,um,,PRE-DOSE,-0.5
194,CDISCPILOT01,OE,01-701-1033,18,OPHTHALMIC ASSESSMENTS,SD-OCT CST SINGLE FORM,2014-04-14,WEEK 4,5,28,155,155,155,Center Subfield Thickness,CSUBTH,CENTER SUBFIELD THICKNESS,RIGHT,RETINA,28,SD-OCT,um,um,,PRE-DOSE,-0.5
195,CDISCPILOT01,OE,01-701-1033,19,OPHTHALMIC ASSESSMENTS,FORM FOR CFP EVALUATION FOR 7M/4W,2014-04-14,WEEK 4,5,28,5,5,5,Diabetic Retinopathy Sev Recode Value,DRSSR,DIABETIC RETINOPATHY SEVERITY LEVEL RECODE VALUE (ETDRS SCALE),LEFT,RETINA,28,COLOR FUNDUS PHOTOGRAPH,,,,PRE-DOSE,-0.5
196,CDISCPILOT01,OE,01-701-1033,20,OPHTHALMIC ASSESSMENTS,FORM FOR CFP EVALUATION FOR 7M/4W,2014-04-14,WEEK 4,5,28,11,11,11,Diabetic Retinopathy Sev Recode Value,DRSSR,DIABETIC RETINOPATHY SEVERITY LEVEL RECODE VALUE (ETDRS SCALE),RIGHT,RETINA,28,COLOR FUNDUS PHOTOGRAPH,,,,PRE-DOSE,-0.5
197,CDISCPILOT01,OE,01-701-1033,21,INTRAOCULAR PRESSURE,,2014-04-14,WEEK 4,5,28,12,12,12,Intraocular Pressure,IOP,,LEFT,EYE,28,APPLANATION TONOMETRY,mmHg,mmHg,,PRE-DOSE,-0.5
198,CDISCPILOT01,OE,01-701-1033,22,INTRAOCULAR PRESSURE,,2014-04-14,WEEK 4,5,28,18,18,18,Intraocular Pressure,IOP,,RIGHT,EYE,28,APPLANATION TONOMETRY,mmHg,mmHg,,PRE-DOSE,-0.5
199,CDISCPILOT01,OE,01-701-1033,23,BEST CORRECTED VISUAL ACUITY,OVERALL EVALUATION,2014-04-14,WEEK 4,5,28,51,51,51,Visual Acuity Score,VACSCORE,,LEFT,EYE,28,ETDRS EYE CHART,,,,PRE-DOSE,-0.5
200,CDISCPILOT01,OE,01-701-1033,24,BEST CORRECTED VISUAL ACUITY,OVERALL EVALUATION,2014-04-14,WEEK 4,5,28,50,50,50,Visual Acuity Score,VACSCORE,,RIGHT,EYE,28,ETDRS EYE CHART,,,,PRE-DOSE,-0.5
201,CDISCPILOT01,OE,01-701-1034,1,OPHTHALMIC ASSESSMENTS,SD-OCT CST SINGLE FORM,2014-06-24,SCREENING 1,1,-7,298,298,298,Center Subfield Thickness,CSUBTH,CENTER SUBFIELD THICKNESS,LEFT,RETINA,-7,SD-OCT,um,um,,PRE-DOSE,-0.5
202,CDISCPILOT01,OE,01-701-1034,2,OPHTHALMIC ASSESSMENTS,SD-OCT CST SINGLE FORM,2014-06-24,SCREENING 1,1,-7,420,420,420,Center Subfield Thickness,CSUBTH,CENTER SUBFIELD THICKNESS,RIGHT,RETINA,-7,SD-OCT,um,um,,PRE-DOSE,-0.5
203,CDISCPILOT01,OE,01-701-1034,3,OPHTHALMIC ASSESSMENTS,FORM FOR CFP EVALUATION FOR 7M/4W,2014-06-24,SCREENING 1,1,-7,1,1,1,Diabetic Retinopathy Sev Recode Value,DRSSR,DIABETIC RETINOPATHY SEVERITY LEVEL RECODE VALUE (ETDRS SCALE),LEFT,RETINA,-7,COLOR FUNDUS PHOTOGRAPH,,,,PRE-DOSE,-0.5
204,CDISCPILOT01,OE,01-701-1034,4,OPHTHALMIC ASSESSMENTS,FORM FOR CFP EVALUATION FOR 7M/4W,2014-06-24,SCREENING 1,1,-7,7,7,7,Diabetic Retinopathy Sev Recode Value,DRSSR,DIABETIC RETINOPATHY SEVERITY LEVEL RECODE VALUE (ETDRS SCALE),RIGHT,RETINA,-7,COLOR FUNDUS PHOTOGRAPH,,,,PRE-DOSE,-0.5
205,CDISCPILOT01,OE,01-701-1034,5,INTRAOCULAR PRESSURE,,2014-06-24,SCREENING 1,1,-7,19,19,19,Intraocular Pressure,IOP,,LEFT,EYE,-7,APPLANATION TONOMETRY,mmHg,mmHg,,PRE-DOSE,-0.5
206,CDISCPILOT01,OE,01-701-1034,6,INTRAOCULAR PRESSURE,,2014-06-24,SCREENING 1,1,-7,12,12,12,Intraocular Pressure,IOP,,RIGHT,EYE,-7,APPLANATION TONOMETRY,mmHg,mmHg,,PRE-DOSE,-0.5
207,CDISCPILOT01,OE,01-701-1034,7,BEST CORRECTED VISUAL ACUITY,OVERALL EVALUATION,2014-06-24,SCREENING 1,1,-7,13,13,13,Visual Acuity Score,VACSCORE,,LEFT,EYE,-7,ETDRS EYE CHART,,,,PRE-DOSE,-0.5
208,CDISCPILOT01,OE,01-701-1034,8,BEST CORRECTED VISUAL ACUITY,OVERALL EVALUATION,2014-06-24,SCREENING 1,1,-7,32,32,32,Visual Acuity Score,VACSCORE,,RIGHT,EYE,-7,ETDRS EYE CHART,,,,PRE-DOSE,-0.5
209,CDISCPILOT01,OE,01-701-1034,9,OPHTHALMIC ASSESSMENTS,SD-OCT CST SINGLE FORM,2014-07-01,BASELINE,3,1,21,21,21,Center Subfield Thickness,CSUBTH,CENTER SUBFIELD THICKNESS,LEFT,RETINA,1,SD-OCT,um,um,,PRE-DOSE,-0.5
210,CDISCPILOT01,OE,01-701-1034,10,OPHTHALMIC ASSESSMENTS,SD-OCT CST SINGLE FORM,2014-07-01,BASELINE,3,1,471,471,471,Center Subfield Thickness,CSUBTH,CENTER SUBFIELD THICKNESS,RIGHT,RETINA,1,SD-OCT,um,um,,PRE-DOSE,-0.5
211,CDISCPILOT01,OE,01-701-1034,11,OPHTHALMIC ASSESSMENTS,FORM FOR CFP EVALUATION FOR 7M/4W,2014-07-01,BASELINE,3,1,10,10,10,Diabetic Retinopathy Sev Recode Value,DRSSR,DIABETIC RETINOPATHY SEVERITY LEVEL RECODE VALUE (ETDRS SCALE),LEFT,RETINA,1,COLOR FUNDUS PHOTOGRAPH,,,,PRE-DOSE,-0.5
212,CDISCPILOT01,OE,01-701-1034,12,OPHTHALMIC ASSESSMENTS,FORM FOR CFP EVALUATION FOR 7M/4W,2014-07-01,BASELINE,3,1,2,2,2,Diabetic Retinopathy Sev Recode Value,DRSSR,DIABETIC RETINOPATHY SEVERITY LEVEL RECODE VALUE (ETDRS SCALE),RIGHT,RETINA,1,COLOR FUNDUS PHOTOGRAPH,,,,PRE-DOSE,-0.5
213,CDISCPILOT01,OE,01-701-1034,13,INTRAOCULAR PRESSURE,,2014-07-01,BASELINE,3,1,11,11,11,Intraocular Pressure,IOP,,LEFT,EYE,1,APPLANATION TONOMETRY,mmHg,mmHg,,PRE-DOSE,-0.5
214,CDISCPILOT01,OE,01-701-1034,14,INTRAOCULAR PRESSURE,,2014-07-01,BASELINE,3,1,19,19,19,Intraocular Pressure,IOP,,RIGHT,EYE,1,APPLANATION TONOMETRY,mmHg,mmHg,,PRE-DOSE,-0.5
215,CDISCPILOT01,OE,01-701-1034,15,BEST CORRECTED VISUAL ACUITY,OVERALL EVALUATION,2014-07-01,BASELINE,3,1,36,36,36,Visual Acuity Score,VACSCORE,,LEFT,EYE,1,ETDRS EYE CHART,,,,PRE-DOSE,-0.5
216,CDISCPILOT01,OE,01-701-1034,16,BEST CORRECTED VISUAL ACUITY,OVERALL EVALUATION,2014-07-01,BASELINE,3,1,56,56,56,Visual Acuity Score,VACSCORE,,RIGHT,EYE,1,ETDRS EYE CHART,,,,PRE-DOSE,-0.5
217,CDISCPILOT01,OE,01-701-1034,17,OPHTHALMIC ASSESSMENTS,SD-OCT CST SINGLE FORM,2014-07-29,WEEK 4,5,28,473,473,473,Center Subfield Thickness,CSUBTH,CENTER SUBFIELD THICKNESS,LEFT,RETINA,29,SD-OCT,um,um,,PRE-DOSE,-0.5
218,CDISCPILOT01,OE,01-701-1034,18,OPHTHALMIC ASSESSMENTS,SD-OCT CST SINGLE FORM,2014-07-29,WEEK 4,5,28,9,9,9,Center Subfield Thickness,CSUBTH,CENTER SUBFIELD THICKNESS,RIGHT,RETINA,29,SD-OCT,um,um,,PRE-DOSE,-0.5
219,CDISCPILOT01,OE,01-701-1034,19,OPHTHALMIC ASSESSMENTS,FORM FOR CFP EVALUATION FOR 7M/4W,2014-07-29,WEEK 4,5,28,7,7,7,Diabetic Retinopathy Sev Recode Value,DRSSR,DIABETIC RETINOPATHY SEVERITY LEVEL RECODE VALUE (ETDRS SCALE),LEFT,RETINA,29,COLOR FUNDUS PHOTOGRAPH,,,,PRE-DOSE,-0.5
220,CDISCPILOT01,OE,01-701-1034,20,OPHTHALMIC ASSESSMENTS,FORM FOR CFP EVALUATION FOR 7M/4W,2014-07-29,WEEK 4,5,28,8,8,8,Diabetic Retinopathy Sev Recode Value,DRSSR,DIABETIC RETINOPATHY SEVERITY LEVEL RECODE VALUE (ETDRS SCALE),RIGHT,RETINA,29,COLOR FUNDUS PHOTOGRAPH,,,,PRE-DOSE,-0.5
221,CDISCPILOT01,OE,01-701-1034,21,INTRAOCULAR PRESSURE,,2014-07-29,WEEK 4,5,28,28,28,28,Intraocular Pressure,IOP,,LEFT,EYE,29,APPLANATION TONOMETRY,mmHg,mmHg,,PRE-DOSE,-0.5
222,CDISCPILOT01,OE,01-701-1034,22,INTRAOCULAR PRESSURE,,2014-07-29,WEEK 4,5,28,28,28,28,Intraocular Pressure,IOP,,RIGHT,EYE,29,APPLANATION TONOMETRY,mmHg,mmHg,,PRE-DOSE,-0.5
223,CDISCPILOT01,OE,01-701-1034,23,BEST CORRECTED VISUAL ACUITY,OVERALL EVALUATION,2014-07-29,WEEK 4,5,28,85,85,85,Visual Acuity Score,VACSCORE,,LEFT,EYE,29,ETDRS EYE CHART,,,,PRE-DOSE,-0.5
224,CDISCPILOT01,OE,01-701-1034,24,BEST CORRECTED VISUAL ACUITY,OVERALL EVALUATION,2014-07-29,WEEK 4,5,28,65,65,65,Visual Acuity Score,VACSCORE,,RIGHT,EYE,29,ETDRS EYE CHART,,,,PRE-DOSE,-0.5
225,CDISCPILOT01,OE,01-701-1034,25,OPHTHALMIC ASSESSMENTS,SD-OCT CST SINGLE FORM,2014-08-11,WEEK 6,7,42,314,314,314,Center Subfield Thickness,CSUBTH,CENTER SUBFIELD THICKNESS,LEFT,RETINA,42,SD-OCT,um,um,,PRE-DOSE,-0.5
226,CDISCPILOT01,OE,01-701-1034,26,OPHTHALMIC ASSESSMENTS,SD-OCT CST SINGLE FORM,2014-08-11,WEEK 6,7,42,348,348,348,Center Subfield Thickness,CSUBTH,CENTER SUBFIELD THICKNESS,RIGHT,RETINA,42,SD-OCT,um,um,,PRE-DOSE,-0.5
227,CDISCPILOT01,OE,01-701-1034,27,OPHTHALMIC ASSESSMENTS,FORM FOR CFP EVALUATION FOR 7M/4W,2014-08-11,WEEK 6,7,42,10,10,10,Diabetic Retinopathy Sev Recode Value,DRSSR,DIABETIC RETINOPATHY SEVERITY LEVEL RECODE VALUE (ETDRS SCALE),LEFT,RETINA,42,COLOR FUNDUS PHOTOGRAPH,,,,PRE-DOSE,-0.5
228,CDISCPILOT01,OE,01-701-1034,28,OPHTHALMIC ASSESSMENTS,FORM FOR CFP EVALUATION FOR 7M/4W,2014-08-11,WEEK 6,7,42,7,7,7,Diabetic Retinopathy Sev Recode Value,DRSSR,DIABETIC RETINOPATHY SEVERITY LEVEL RECODE VALUE (ETDRS SCALE),RIGHT,RETINA,42,COLOR FUNDUS PHOTOGRAPH,,,,PRE-DOSE,-0.5
229,CDISCPILOT01,OE,01-701-1034,29,INTRAOCULAR PRESSURE,,2014-08-11,WEEK 6,7,42,21,21,21,Intraocular Pressure,IOP,,LEFT,EYE,42,APPLANATION TONOMETRY,mmHg,mmHg,,PRE-DOSE,-0.5
230,CDISCPILOT01,OE,01-701-1034,30,INTRAOCULAR PRESSURE,,2014-08-11,WEEK 6,7,42,14,14,14,Intraocular Pressure,IOP,,RIGHT,EYE,42,APPLANATION TONOMETRY,mmHg,mmHg,,PRE-DOSE,-0.5
231,CDISCPILOT01,OE,01-701-1034,31,BEST CORRECTED VISUAL ACUITY,OVERALL EVALUATION,2014-08-11,WEEK 6,7,42,48,48,48,Visual Acuity Score,VACSCORE,,LEFT,EYE,42,ETDRS EYE CHART,,,,PRE-DOSE,-0.5
232,CDISCPILOT01,OE,01-701-1034,32,BEST CORRECTED VISUAL ACUITY,OVERALL EVALUATION,2014-08-11,WEEK 6,7,42,93,93,93,Visual Acuity Score,VACSCORE,,RIGHT,EYE,42,ETDRS EYE CHART,,,,PRE-DOSE,-0.5
233,CDISCPILOT01,OE,01-701-1034,33,OPHTHALMIC ASSESSMENTS,SD-OCT CST SINGLE FORM,2014-08-26,WEEK 8,8,56,80,80,80,Center Subfield Thickness,CSUBTH,CENTER SUBFIELD THICKNESS,LEFT,RETINA,57,SD-OCT,um,um,,PRE-DOSE,-0.5
234,CDISCPILOT01,OE,01-701-1034,34,OPHTHALMIC ASSESSMENTS,SD-OCT CST SINGLE FORM,2014-08-26,WEEK 8,8,56,341,341,341,Center Subfield Thickness,CSUBTH,CENTER SUBFIELD THICKNESS,RIGHT,RETINA,57,SD-OCT,um,um,,PRE-DOSE,-0.5
235,CDISCPILOT01,OE,01-701-1034,35,OPHTHALMIC ASSESSMENTS,FORM FOR CFP EVALUATION FOR 7M/4W,2014-08-26,WEEK 8,8,56,8,8,8,Diabetic Retinopathy Sev Recode Value,DRSSR,DIABETIC RETINOPATHY SEVERITY LEVEL RECODE VALUE (ETDRS SCALE),LEFT,RETINA,57,COLOR FUNDUS PHOTOGRAPH,,,,PRE-DOSE,-0.5
236,CDISCPILOT01,OE,01-701-1034,36,OPHTHALMIC ASSESSMENTS,FORM FOR CFP EVALUATION FOR 7M/4W,2014-08-26,WEEK 8,8,56,8,8,8,Diabetic Retinopathy Sev Recode Value,DRSSR,DIABETIC RETINOPATHY SEVERITY LEVEL RECODE VALUE (ETDRS SCALE),RIGHT,RETINA,57,COLOR FUNDUS PHOTOGRAPH,,,,PRE-DOSE,-0.5
237,CDISCPILOT01,OE,01-701-1034,37,INTRAOCULAR PRESSURE,,2014-08-26,WEEK 8,8,56,10,10,10,Intraocular Pressure,IOP,,LEFT,EYE,57,APPLANATION TONOMETRY,mmHg,mmHg,,PRE-DOSE,-0.5
238,CDISCPILOT01,OE,01-701-1034,38,INTRAOCULAR PRESSURE,,2014-08-26,WEEK 8,8,56,,,,Intraocular Pressure,IOP,,RIGHT,EYE,57,APPLANATION TONOMETRY,,,NOT DONE,PRE-DOSE,-0.5
239,CDISCPILOT01,OE,01-701-1034,39,BEST CORRECTED VISUAL ACUITY,OVERALL EVALUATION,2014-08-26,WEEK 8,8,56,96,96,96,Visual Acuity Score,VACSCORE,,LEFT,EYE,57,ETDRS EYE CHART,,,,PRE-DOSE,-0.5
240,CDISCPILOT01,OE,01-701-1034,40,BEST CORRECTED VISUAL ACUITY,OVERALL EVALUATION,2014-08-26,WEEK 8,8,56,61,61,61,Visual Acuity Score,VACSCORE,,RIGHT,EYE,57,ETDRS EYE CHART,,,,PRE-DOSE,-0.5
241,CDISCPILOT01,OE,01-701-1034,41,OPHTHALMIC ASSESSMENTS,SD-OCT CST SINGLE FORM,2014-09-09,WEEK 10 (T),8.1,70,51,51,51,Center Subfield Thickness,CSUBTH,CENTER SUBFIELD THICKNESS,LEFT,RETINA,71,SD-OCT,um,um,,PRE-DOSE,-0.5
242,CDISCPILOT01,OE,01-701-1034,42,OPHTHALMIC ASSESSMENTS,SD-OCT CST SINGLE FORM,2014-09-09,WEEK 10 (T),8.1,70,325,325,325,Center Subfield Thickness,CSUBTH,CENTER SUBFIELD THICKNESS,RIGHT,RETINA,71,SD-OCT,um,um,,PRE-DOSE,-0.5
243,CDISCPILOT01,OE,01-701-1034,43,OPHTHALMIC ASSESSMENTS,FORM FOR CFP EVALUATION FOR 7M/4W,2014-09-09,WEEK 10 (T),8.1,70,4,4,4,Diabetic Retinopathy Sev Recode Value,DRSSR,DIABETIC RETINOPATHY SEVERITY LEVEL RECODE VALUE (ETDRS SCALE),LEFT,RETINA,71,COLOR FUNDUS PHOTOGRAPH,,,,PRE-DOSE,-0.5
244,CDISCPILOT01,OE,01-701-1034,44,OPHTHALMIC ASSESSMENTS,FORM FOR CFP EVALUATION FOR 7M/4W,2014-09-09,WEEK 10 (T),8.1,70,5,5,5,Diabetic Retinopathy Sev Recode Value,DRSSR,DIABETIC RETINOPATHY SEVERITY LEVEL RECODE VALUE (ETDRS SCALE),RIGHT,RETINA,71,COLOR FUNDUS PHOTOGRAPH,,,,PRE-DOSE,-0.5
245,CDISCPILOT01,OE,01-701-1034,45,INTRAOCULAR PRESSURE,,2014-09-09,WEEK 10 (T),8.1,70,27,27,27,Intraocular Pressure,IOP,,LEFT,EYE,71,APPLANATION TONOMETRY,mmHg,mmHg,,PRE-DOSE,-0.5
246,CDISCPILOT01,OE,01-701-1034,46,INTRAOCULAR PRESSURE,,2014-09-09,WEEK 10 (T),8.1,70,19,19,19,Intraocular Pressure,IOP,,RIGHT,EYE,71,APPLANATION TONOMETRY,mmHg,mmHg,,PRE-DOSE,-0.5
247,CDISCPILOT01,OE,01-701-1034,47,BEST CORRECTED VISUAL ACUITY,OVERALL EVALUATION,2014-09-09,WEEK 10 (T),8.1,70,19,19,19,Visual Acuity Score,VACSCORE,,LEFT,EYE,71,ETDRS EYE CHART,,,,PRE-DOSE,-0.5
248,CDISCPILOT01,OE,01-701-1034,48,BEST CORRECTED VISUAL ACUITY,OVERALL EVALUATION,2014-09-09,WEEK 10 (T),8.1,70,68,68,68,Visual Acuity Score,VACSCORE,,RIGHT,EYE,71,ETDRS EYE CHART,,,,PRE-DOSE,-0.5
249,CDISCPILOT01,OE,01-701-1034,49,OPHTHALMIC ASSESSMENTS,SD-OCT CST SINGLE FORM,2014-09-25,WEEK 12,9,84,320,320,320,Center Subfield Thickness,CSUBTH,CENTER SUBFIELD THICKNESS,LEFT,RETINA,87,SD-OCT,um,um,,PRE-DOSE,-0.5
250,CDISCPILOT01,OE,01-701-1034,50,OPHTHALMIC ASSESSMENTS,SD-OCT CST SINGLE FORM,2014-09-25,WEEK 12,9,84,329,329,329,Center Subfield Thickness,CSUBTH,CENTER SUBFIELD THICKNESS,RIGHT,RETINA,87,SD-OCT,um,um,,PRE-DOSE,-0.5
251,CDISCPILOT01,OE,01-701-1034,51,OPHTHALMIC ASSESSMENTS,FORM FOR CFP EVALUATION FOR 7M/4W,2014-09-25,WEEK 12,9,84,8,8,8,Diabetic Retinopathy Sev Recode Value,DRSSR,DIABETIC RETINOPATHY SEVERITY LEVEL RECODE VALUE (ETDRS SCALE),LEFT,RETINA,87,COLOR FUNDUS PHOTOGRAPH,,,,PRE-DOSE,-0.5
252,CDISCPILOT01,OE,01-701-1034,52,OPHTHALMIC ASSESSMENTS,FORM FOR CFP EVALUATION FOR 7M/4W,2014-09-25,WEEK 12,9,84,7,7,7,Diabetic Retinopathy Sev Recode Value,DRSSR,DIABETIC RETINOPATHY SEVERITY LEVEL RECODE VALUE (ETDRS SCALE),RIGHT,RETINA,87,COLOR FUNDUS PHOTOGRAPH,,,,PRE-DOSE,-0.5
253,CDISCPILOT01,OE,01-701-1034,53,INTRAOCULAR PRESSURE,,2014-09-25,WEEK 12,9,84,6,6,6,Intraocular Pressure,IOP,,LEFT,EYE,87,APPLANATION TONOMETRY,mmHg,mmHg,,PRE-DOSE,-0.5
254,CDISCPILOT01,OE,01-701-1034,54,INTRAOCULAR PRESSURE,,2014-09-25,WEEK 12,9,84,24,24,24,Intraocular Pressure,IOP,,RIGHT,EYE,87,APPLANATION TONOMETRY,mmHg,mmHg,,PRE-DOSE,-0.5
255,CDISCPILOT01,OE,01-701-1034,55,BEST CORRECTED VISUAL ACUITY,OVERALL EVALUATION,2014-09-25,WEEK 12,9,84,10,10,10,Visual Acuity Score,VACSCORE,,LEFT,EYE,87,ETDRS EYE CHART,,,,PRE-DOSE,-0.5
256,CDISCPILOT01,OE,01-701-1034,56,BEST CORRECTED VISUAL ACUITY,OVERALL EVALUATION,2014-09-25,WEEK 12,9,84,58,58,58,Visual Acuity Score,VACSCORE,,RIGHT,EYE,87,ETDRS EYE CHART,,,,PRE-DOSE,-0.5
257,CDISCPILOT01,OE,01-701-1034,57,OPHTHALMIC ASSESSMENTS,SD-OCT CST SINGLE FORM,2014-10-21,WEEK 16,10,112,25,25,25,Center Subfield Thickness,CSUBTH,CENTER SUBFIELD THICKNESS,LEFT,RETINA,113,SD-OCT,um,um,,PRE-DOSE,-0.5
258,CDISCPILOT01,OE,01-701-1034,58,OPHTHALMIC ASSESSMENTS,SD-OCT CST SINGLE FORM,2014-10-21,WEEK 16,10,112,88,88,88,Center Subfield Thickness,CSUBTH,CENTER SUBFIELD THICKNESS,RIGHT,RETINA,113,SD-OCT,um,um,,PRE-DOSE,-0.5
259,CDISCPILOT01,OE,01-701-1034,59,OPHTHALMIC ASSESSMENTS,FORM FOR CFP EVALUATION FOR 7M/4W,2014-10-21,WEEK 16,10,112,4,4,4,Diabetic Retinopathy Sev Recode Value,DRSSR,DIABETIC RETINOPATHY SEVERITY LEVEL RECODE VALUE (ETDRS SCALE),LEFT,RETINA,113,COLOR FUNDUS PHOTOGRAPH,,,,PRE-DOSE,-0.5
260,CDISCPILOT01,OE,01-701-1034,60,OPHTHALMIC ASSESSMENTS,FORM FOR CFP EVALUATION FOR 7M/4W,2014-10-21,WEEK 16,10,112,5,5,5,Diabetic Retinopathy Sev Recode Value,DRSSR,DIABETIC RETINOPATHY SEVERITY LEVEL RECODE VALUE (ETDRS SCALE),RIGHT,RETINA,113,COLOR FUNDUS PHOTOGRAPH,,,,PRE-DOSE,-0.5
261,CDISCPILOT01,OE,01-701-1034,61,INTRAOCULAR PRESSURE,,2014-10-21,WEEK 16,10,112,10,10,10,Intraocular Pressure,IOP,,LEFT,EYE,113,APPLANATION TONOMETRY,mmHg,mmHg,,PRE-DOSE,-0.5
262,CDISCPILOT01,OE,01-701-1034,62,INTRAOCULAR PRESSURE,,2014-10-21,WEEK 16,10,112,6,6,6,Intraocular Pressure,IOP,,RIGHT,EYE,113,APPLANATION TONOMETRY,mmHg,mmHg,,PRE-DOSE,-0.5
263,CDISCPILOT01,OE,01-701-1034,63,BEST CORRECTED VISUAL ACUITY,OVERALL EVALUATION,2014-10-21,WEEK 16,10,112,82,82,82,Visual Acuity Score,VACSCORE,,LEFT,EYE,113,ETDRS EYE CHART,,,,PRE-DOSE,-0.5
264,CDISCPILOT01,OE,01-701-1034,64,BEST CORRECTED VISUAL ACUITY,OVERALL EVALUATION,2014-10-21,WEEK 16,10,112,79,79,79,Visual Acuity Score,VACSCORE,,RIGHT,EYE,113,ETDRS EYE CHART,,,,PRE-DOSE,-0.5
265,CDISCPILOT01,OE,01-701-1034,65,OPHTHALMIC ASSESSMENTS,SD-OCT CST SINGLE FORM,2014-11-18,WEEK 20,11,140,212,212,212,Center Subfield Thickness,CSUBTH,CENTER SUBFIELD THICKNESS,LEFT,RETINA,141,SD-OCT,um,um,,PRE-DOSE,-0.5
266,CDISCPILOT01,OE,01-701-1034,66,OPHTHALMIC ASSESSMENTS,SD-OCT CST SINGLE FORM,2014-11-18,WEEK 20,11,140,144,144,144,Center Subfield Thickness,CSUBTH,CENTER SUBFIELD THICKNESS,RIGHT,RETINA,141,SD-OCT,um,um,,PRE-DOSE,-0.5
267,CDISCPILOT01,OE,01-701-1034,67,OPHTHALMIC ASSESSMENTS,FORM FOR CFP EVALUATION FOR 7M/4W,2014-11-18,WEEK 20,11,140,9,9,9,Diabetic Retinopathy Sev Recode Value,DRSSR,DIABETIC RETINOPATHY SEVERITY LEVEL RECODE VALUE (ETDRS SCALE),LEFT,RETINA,141,COLOR FUNDUS PHOTOGRAPH,,,,PRE-DOSE,-0.5
268,CDISCPILOT01,OE,01-701-1034,68,OPHTHALMIC ASSESSMENTS,FORM FOR CFP EVALUATION FOR 7M/4W,2014-11-18,WEEK 20,11,140,3,3,3,Diabetic Retinopathy Sev Recode Value,DRSSR,DIABETIC RETINOPATHY SEVERITY LEVEL RECODE VALUE (ETDRS SCALE),RIGHT,RETINA,141,COLOR FUNDUS PHOTOGRAPH,,,,PRE-DOSE,-0.5
269,CDISCPILOT01,OE,01-701-1034,69,INTRAOCULAR PRESSURE,,2014-11-18,WEEK 20,11,140,26,26,26,Intraocular Pressure,IOP,,LEFT,EYE,141,APPLANATION TONOMETRY,mmHg,mmHg,,PRE-DOSE,-0.5
270,CDISCPILOT01,OE,01-701-1034,70,INTRAOCULAR PRESSURE,,2014-11-18,WEEK 20,11,140,25,25,25,Intraocular Pressure,IOP,,RIGHT,EYE,141,APPLANATION TONOMETRY,mmHg,mmHg,,PRE-DOSE,-0.5
271,CDISCPILOT01,OE,01-701-1034,71,BEST CORRECTED VISUAL ACUITY,OVERALL EVALUATION,2014-11-18,WEEK 20,11,140,99,99,99,Visual Acuity Score,VACSCORE,,LEFT,EYE,141,ETDRS EYE CHART,,,,PRE-DOSE,-0.5
272,CDISCPILOT01,OE,01-701-1034,72,BEST CORRECTED VISUAL ACUITY,OVERALL EVALUATION,2014-11-18,WEEK 20,11,140,91,91,91,Visual Acuity Score,VACSCORE,,RIGHT,EYE,141,ETDRS EYE CHART,,,,PRE-DOSE,-0.5
273,CDISCPILOT01,OE,01-701-1034,73,OPHTHALMIC ASSESSMENTS,SD-OCT CST SINGLE FORM,2014-12-17,WEEK 24,12,168,173,173,173,Center Subfield Thickness,CSUBTH,CENTER SUBFIELD THICKNESS,LEFT,RETINA,170,SD-OCT,um,um,,PRE-DOSE,-0.5
274,CDISCPILOT01,OE,01-701-1034,74,OPHTHALMIC ASSESSMENTS,SD-OCT CST SINGLE FORM,2014-12-17,WEEK 24,12,168,32,32,32,Center Subfield Thickness,CSUBTH,CENTER SUBFIELD THICKNESS,RIGHT,RETINA,170,SD-OCT,um,um,,PRE-DOSE,-0.5
275,CDISCPILOT01,OE,01-701-1034,75,OPHTHALMIC ASSESSMENTS,FORM FOR CFP EVALUATION FOR 7M/4W,2014-12-17,WEEK 24,12,168,7,7,7,Diabetic Retinopathy Sev Recode Value,DRSSR,DIABETIC RETINOPATHY SEVERITY LEVEL RECODE VALUE (ETDRS SCALE),LEFT,RETINA,170,COLOR FUNDUS PHOTOGRAPH,,,,PRE-DOSE,-0.5
276,CDISCPILOT01,OE,01-701-1034,76,OPHTHALMIC ASSESSMENTS,FORM FOR CFP EVALUATION FOR 7M/4W,2014-12-17,WEEK 24,12,168,7,7,7,Diabetic Retinopathy Sev Recode Value,DRSSR,DIABETIC RETINOPATHY SEVERITY LEVEL RECODE VALUE (ETDRS SCALE),RIGHT,RETINA,170,COLOR FUNDUS PHOTOGRAPH,,,,PRE-DOSE,-0.5
277,CDISCPILOT01,OE,01-701-1034,77,INTRAOCULAR PRESSURE,,2014-12-17,WEEK 24,12,168,9,9,9,Intraocular Pressure,IOP,,LEFT,EYE,170,APPLANATION TONOMETRY,mmHg,mmHg,,PRE-DOSE,-0.5
278,CDISCPILOT01,OE,01-701-1034,78,INTRAOCULAR PRESSURE,,2014-12-17,WEEK 24,12,168,16,16,16,Intraocular Pressure,IOP,,RIGHT,EYE,170,APPLANATION TONOMETRY,mmHg,mmHg,,PRE-DOSE,-0.5
279,CDISCPILOT01,OE,01-701-1034,79,BEST CORRECTED VISUAL ACUITY,OVERALL EVALUATION,2014-12-17,WEEK 24,12,168,9,9,9,Visual Acuity Score,VACSCORE,,LEFT,EYE,170,ETDRS EYE CHART,,,,PRE-DOSE,-0.5
280,CDISCPILOT01,OE,01-701-1034,80,BEST CORRECTED VISUAL ACUITY,OVERALL EVALUATION,2014-12-17,WEEK 24,12,168,12,12,12,Visual Acuity Score,VACSCORE,,RIGHT,EYE,170,ETDRS EYE CHART,,,,PRE-DOSE,-0.5
281,CDISCPILOT01,OE,01-701-1047,1,OPHTHALMIC ASSESSMENTS,SD-OCT CST SINGLE FORM,2013-01-22,SCREENING 1,1,-7,473,473,473,Center Subfield Thickness,CSUBTH,CENTER SUBFIELD THICKNESS,LEFT,RETINA,-21,SD-OCT,um,um,,PRE-DOSE,-0.5
282,CDISCPILOT01,OE,01-701-1047,2,OPHTHALMIC ASSESSMENTS,SD-OCT CST SINGLE FORM,2013-01-22,SCREENING 1,1,-7,236,236,236,Center Subfield Thickness,CSUBTH,CENTER SUBFIELD THICKNESS,RIGHT,RETINA,-21,SD-OCT,um,um,,PRE-DOSE,-0.5
283,CDISCPILOT01,OE,01-701-1047,3,OPHTHALMIC ASSESSMENTS,FORM FOR CFP EVALUATION FOR 7M/4W,2013-01-22,SCREENING 1,1,-7,1,1,1,Diabetic Retinopathy Sev Recode Value,DRSSR,DIABETIC RETINOPATHY SEVERITY LEVEL RECODE VALUE (ETDRS SCALE),LEFT,RETINA,-21,COLOR FUNDUS PHOTOGRAPH,,,,PRE-DOSE,-0.5
284,CDISCPILOT01,OE,01-701-1047,4,OPHTHALMIC ASSESSMENTS,FORM FOR CFP EVALUATION FOR 7M/4W,2013-01-22,SCREENING 1,1,-7,4,4,4,Diabetic Retinopathy Sev Recode Value,DRSSR,DIABETIC RETINOPATHY SEVERITY LEVEL RECODE VALUE (ETDRS SCALE),RIGHT,RETINA,-21,COLOR FUNDUS PHOTOGRAPH,,,,PRE-DOSE,-0.5
285,CDISCPILOT01,OE,01-701-1047,5,INTRAOCULAR PRESSURE,,2013-01-22,SCREENING 1,1,-7,22,22,22,Intraocular Pressure,IOP,,LEFT,EYE,-21,APPLANATION TONOMETRY,mmHg,mmHg,,PRE-DOSE,-0.5
286,CDISCPILOT01,OE,01-701-1047,6,INTRAOCULAR PRESSURE,,2013-01-22,SCREENING 1,1,-7,22,22,22,Intraocular Pressure,IOP,,RIGHT,EYE,-21,APPLANATION TONOMETRY,mmHg,mmHg,,PRE-DOSE,-0.5
287,CDISCPILOT01,OE,01-701-1047,7,BEST CORRECTED VISUAL ACUITY,OVERALL EVALUATION,2013-01-22,SCREENING 1,1,-7,92,92,92,Visual Acuity Score,VACSCORE,,LEFT,EYE,-21,ETDRS EYE CHART,,,,PRE-DOSE,-0.5
288,CDISCPILOT01,OE,01-701-1047,8,BEST CORRECTED VISUAL ACUITY,OVERALL EVALUATION,2013-01-22,SCREENING 1,1,-7,49,49,49,Visual Acuity Score,VACSCORE,,RIGHT,EYE,-21,ETDRS EYE CHART,,,,PRE-DOSE,-0.5
289,CDISCPILOT01,OE,01-701-1047,9,OPHTHALMIC ASSESSMENTS,SD-OCT CST SINGLE FORM,2013-02-12,BASELINE,3,1,70,70,70,Center Subfield Thickness,CSUBTH,CENTER SUBFIELD THICKNESS,LEFT,RETINA,1,SD-OCT,um,um,,PRE-DOSE,-0.5
290,CDISCPILOT01,OE,01-701-1047,10,OPHTHALMIC ASSESSMENTS,SD-OCT CST SINGLE FORM,2013-02-12,BASELINE,3,1,18,18,18,Center Subfield Thickness,CSUBTH,CENTER SUBFIELD THICKNESS,RIGHT,RETINA,1,SD-OCT,um,um,,PRE-DOSE,-0.5
291,CDISCPILOT01,OE,01-701-1047,11,OPHTHALMIC ASSESSMENTS,FORM FOR CFP EVALUATION FOR 7M/4W,2013-02-12,BASELINE,3,1,3,3,3,Diabetic Retinopathy Sev Recode Value,DRSSR,DIABETIC RETINOPATHY SEVERITY LEVEL RECODE VALUE (ETDRS SCALE),LEFT,RETINA,1,COLOR FUNDUS PHOTOGRAPH,,,,PRE-DOSE,-0.5
292,CDISCPILOT01,OE,01-701-1047,12,OPHTHALMIC ASSESSMENTS,FORM FOR CFP EVALUATION FOR 7M/4W,2013-02-12,BASELINE,3,1,12,12,12,Diabetic Retinopathy Sev Recode Value,DRSSR,DIABETIC RETINOPATHY SEVERITY LEVEL RECODE VALUE (ETDRS SCALE),RIGHT,RETINA,1,COLOR FUNDUS PHOTOGRAPH,,,,PRE-DOSE,-0.5
293,CDISCPILOT01,OE,01-701-1047,13,INTRAOCULAR PRESSURE,,2013-02-12,BASELINE,3,1,17,17,17,Intraocular Pressure,IOP,,LEFT,EYE,1,APPLANATION TONOMETRY,mmHg,mmHg,,PRE-DOSE,-0.5
294,CDISCPILOT01,OE,01-701-1047,14,INTRAOCULAR PRESSURE,,2013-02-12,BASELINE,3,1,23,23,23,Intraocular Pressure,IOP,,RIGHT,EYE,1,APPLANATION TONOMETRY,mmHg,mmHg,,PRE-DOSE,-0.5
295,CDISCPILOT01,OE,01-701-1047,15,BEST CORRECTED VISUAL ACUITY,OVERALL EVALUATION,2013-02-12,BASELINE,3,1,58,58,58,Visual Acuity Score,VACSCORE,,LEFT,EYE,1,ETDRS EYE CHART,,,,PRE-DOSE,-0.5
296,CDISCPILOT01,OE,01-701-1047,16,BEST CORRECTED VISUAL ACUITY,OVERALL EVALUATION,2013-02-12,BASELINE,3,1,5,5,5,Visual Acuity Score,VACSCORE,,RIGHT,EYE,1,ETDRS EYE CHART,,,,PRE-DOSE,-0.5
297,CDISCPILOT01,OE,01-701-1047,17,OPHTHALMIC ASSESSMENTS,SD-OCT CST SINGLE FORM,2013-03-10,WEEK 4,5,28,198,198,198,Center Subfield Thickness,CSUBTH,CENTER SUBFIELD THICKNESS,LEFT,RETINA,27,SD-OCT,um,um,,PRE-DOSE,-0.5
298,CDISCPILOT01,OE,01-701-1047,18,OPHTHALMIC ASSESSMENTS,SD-OCT CST SINGLE FORM,2013-03-10,WEEK 4,5,28,118,118,118,Center Subfield Thickness,CSUBTH,CENTER SUBFIELD THICKNESS,RIGHT,RETINA,27,SD-OCT,um,um,,PRE-DOSE,-0.5
299,CDISCPILOT01,OE,01-701-1047,19,OPHTHALMIC ASSESSMENTS,FORM FOR CFP EVALUATION FOR 7M/4W,2013-03-10,WEEK 4,5,28,7,7,7,Diabetic Retinopathy Sev Recode Value,DRSSR,DIABETIC RETINOPATHY SEVERITY LEVEL RECODE VALUE (ETDRS SCALE),LEFT,RETINA,27,COLOR FUNDUS PHOTOGRAPH,,,,PRE-DOSE,-0.5
300,CDISCPILOT01,OE,01-701-1047,20,OPHTHALMIC ASSESSMENTS,FORM FOR CFP EVALUATION FOR 7M/4W,2013-03-10,WEEK 4,5,28,3,3,3,Diabetic Retinopathy Sev Recode Value,DRSSR,DIABETIC RETINOPATHY SEVERITY LEVEL RECODE VALUE (ETDRS SCALE),RIGHT,RETINA,27,COLOR FUNDUS PHOTOGRAPH,,,,PRE-DOSE,-0.5
301,CDISCPILOT01,OE,01-701-1047,21,INTRAOCULAR PRESSURE,,2013-03-10,WEEK 4,5,28,23,23,23,Intraocular Pressure,IOP,,LEFT,EYE,27,APPLANATION TONOMETRY,mmHg,mmHg,,PRE-DOSE,-0.5
302,CDISCPILOT01,OE,01-701-1047,22,INTRAOCULAR PRESSURE,,2013-03-10,WEEK 4,5,28,10,10,10,Intraocular Pressure,IOP,,RIGHT,EYE,27,APPLANATION TONOMETRY,mmHg,mmHg,,PRE-DOSE,-0.5
303,CDISCPILOT01,OE,01-701-1047,23,BEST CORRECTED VISUAL ACUITY,OVERALL EVALUATION,2013-03-10,WEEK 4,5,28,64,64,64,Visual Acuity Score,VACSCORE,,LEFT,EYE,27,ETDRS EYE CHART,,,,PRE-DOSE,-0.5
304,CDISCPILOT01,OE,01-701-1047,24,BEST CORRECTED VISUAL ACUITY,OVERALL EVALUATION,2013-03-10,WEEK 4,5,28,100,100,100,Visual Acuity Score,VACSCORE,,RIGHT,EYE,27,ETDRS EYE CHART,,,,PRE-DOSE,-0.5
305,CDISCPILOT01,OE,01-701-1057,1,OPHTHALMIC ASSESSMENTS,SD-OCT CST SINGLE FORM,2013-12-20,SCREENING 1,1,-7,423,423,423,Center Subfield Thickness,CSUBTH,CENTER SUBFIELD THICKNESS,LEFT,RETINA,,SD-OCT,um,um,,PRE-DOSE,-0.5
306,CDISCPILOT01,OE,01-701-1057,2,OPHTHALMIC ASSESSMENTS,SD-OCT CST SINGLE FORM,2013-12-20,SCREENING 1,1,-7,464,464,464,Center Subfield Thickness,CSUBTH,CENTER SUBFIELD THICKNESS,RIGHT,RETINA,,SD-OCT,um,um,,PRE-DOSE,-0.5
307,CDISCPILOT01,OE,01-701-1057,3,OPHTHALMIC ASSESSMENTS,FORM FOR CFP EVALUATION FOR 7M/4W,2013-12-20,SCREENING 1,1,-7,9,9,9,Diabetic Retinopathy Sev Recode Value,DRSSR,DIABETIC RETINOPATHY SEVERITY LEVEL RECODE VALUE (ETDRS SCALE),LEFT,RETINA,,COLOR FUNDUS PHOTOGRAPH,,,,PRE-DOSE,-0.5
308,CDISCPILOT01,OE,01-701-1057,4,OPHTHALMIC ASSESSMENTS,FORM FOR CFP EVALUATION FOR 7M/4W,2013-12-20,SCREENING 1,1,-7,6,6,6,Diabetic Retinopathy Sev Recode Value,DRSSR,DIABETIC RETINOPATHY SEVERITY LEVEL RECODE VALUE (ETDRS SCALE),RIGHT,RETINA,,COLOR FUNDUS PHOTOGRAPH,,,,PRE-DOSE,-0.5
309,CDISCPILOT01,OE,01-701-1057,5,INTRAOCULAR PRESSURE,,2013-12-20,SCREENING 1,1,-7,7,7,7,Intraocular Pressure,IOP,,LEFT,EYE,,APPLANATION TONOMETRY,mmHg,mmHg,,PRE-DOSE,-0.5
310,CDISCPILOT01,OE,01-701-1057,6,INTRAOCULAR PRESSURE,,2013-12-20,SCREENING 1,1,-7,5,5,5,Intraocular Pressure,IOP,,RIGHT,EYE,,APPLANATION TONOMETRY,mmHg,mmHg,,PRE-DOSE,-0.5
311,CDISCPILOT01,OE,01-701-1057,7,BEST CORRECTED VISUAL ACUITY,OVERALL EVALUATION,2013-12-20,SCREENING 1,1,-7,95,95,95,Visual Acuity Score,VACSCORE,,LEFT,EYE,,ETDRS EYE CHART,,,,PRE-DOSE,-0.5
312,CDISCPILOT01,OE,01-701-1057,8,BEST CORRECTED VISUAL ACUITY,OVERALL EVALUATION,2013-12-20,SCREENING 1,1,-7,57,57,57,Visual Acuity Score,VACSCORE,,RIGHT,EYE,,ETDRS EYE CHART,,,,PRE-DOSE,-0.5
313,CDISCPILOT01,OE,01-701-1097,1,OPHTHALMIC ASSESSMENTS,SD-OCT CST SINGLE FORM,2013-12-23,SCREENING 1,1,-7,364,364,364,Center Subfield Thickness,CSUBTH,CENTER SUBFIELD THICKNESS,LEFT,RETINA,-9,SD-OCT,um,um,,PRE-DOSE,-0.5
314,CDISCPILOT01,OE,01-701-1097,2,OPHTHALMIC ASSESSMENTS,SD-OCT CST SINGLE FORM,2013-12-23,SCREENING 1,1,-7,332,332,332,Center Subfield Thickness,CSUBTH,CENTER SUBFIELD THICKNESS,RIGHT,RETINA,-9,SD-OCT,um,um,,PRE-DOSE,-0.5
315,CDISCPILOT01,OE,01-701-1097,3,OPHTHALMIC ASSESSMENTS,FORM FOR CFP EVALUATION FOR 7M/4W,2013-12-23,SCREENING 1,1,-7,10,10,10,Diabetic Retinopathy Sev Recode Value,DRSSR,DIABETIC RETINOPATHY SEVERITY LEVEL RECODE VALUE (ETDRS SCALE),LEFT,RETINA,-9,COLOR FUNDUS PHOTOGRAPH,,,,PRE-DOSE,-0.5
316,CDISCPILOT01,OE,01-701-1097,4,OPHTHALMIC ASSESSMENTS,FORM FOR CFP EVALUATION FOR 7M/4W,2013-12-23,SCREENING 1,1,-7,4,4,4,Diabetic Retinopathy Sev Recode Value,DRSSR,DIABETIC RETINOPATHY SEVERITY LEVEL RECODE VALUE (ETDRS SCALE),RIGHT,RETINA,-9,COLOR FUNDUS PHOTOGRAPH,,,,PRE-DOSE,-0.5
317,CDISCPILOT01,OE,01-701-1097,5,INTRAOCULAR PRESSURE,,2013-12-23,SCREENING 1,1,-7,13,13,13,Intraocular Pressure,IOP,,LEFT,EYE,-9,APPLANATION TONOMETRY,mmHg,mmHg,,PRE-DOSE,-0.5
318,CDISCPILOT01,OE,01-701-1097,6,INTRAOCULAR PRESSURE,,2013-12-23,SCREENING 1,1,-7,7,7,7,Intraocular Pressure,IOP,,RIGHT,EYE,-9,APPLANATION TONOMETRY,mmHg,mmHg,,PRE-DOSE,-0.5
319,CDISCPILOT01,OE,01-701-1097,7,BEST CORRECTED VISUAL ACUITY,OVERALL EVALUATION,2013-12-23,SCREENING 1,1,-7,76,76,76,Visual Acuity Score,VACSCORE,,LEFT,EYE,-9,ETDRS EYE CHART,,,,PRE-DOSE,-0.5
320,CDISCPILOT01,OE,01-701-1097,8,BEST CORRECTED VISUAL ACUITY,OVERALL EVALUATION,2013-12-23,SCREENING 1,1,-7,33,33,33,Visual Acuity Score,VACSCORE,,RIGHT,EYE,-9,ETDRS EYE CHART,,,,PRE-DOSE,-0.5
321,CDISCPILOT01,OE,01-701-1097,9,OPHTHALMIC ASSESSMENTS,SD-OCT CST SINGLE FORM,2014-01-01,BASELINE,3,1,83,83,83,Center Subfield Thickness,CSUBTH,CENTER SUBFIELD THICKNESS,LEFT,RETINA,1,SD-OCT,um,um,,PRE-DOSE,-0.5
322,CDISCPILOT01,OE,01-701-1097,10,OPHTHALMIC ASSESSMENTS,SD-OCT CST SINGLE FORM,2014-01-01,BASELINE,3,1,8,8,8,Center Subfield Thickness,CSUBTH,CENTER SUBFIELD THICKNESS,RIGHT,RETINA,1,SD-OCT,um,um,,PRE-DOSE,-0.5
323,CDISCPILOT01,OE,01-701-1097,11,OPHTHALMIC ASSESSMENTS,FORM FOR CFP EVALUATION FOR 7M/4W,2014-01-01,BASELINE,3,1,2,2,2,Diabetic Retinopathy Sev Recode Value,DRSSR,DIABETIC RETINOPATHY SEVERITY LEVEL RECODE VALUE (ETDRS SCALE),LEFT,RETINA,1,COLOR FUNDUS PHOTOGRAPH,,,,PRE-DOSE,-0.5
324,CDISCPILOT01,OE,01-701-1097,12,OPHTHALMIC ASSESSMENTS,FORM FOR CFP EVALUATION FOR 7M/4W,2014-01-01,BASELINE,3,1,11,11,11,Diabetic Retinopathy Sev Recode Value,DRSSR,DIABETIC RETINOPATHY SEVERITY LEVEL RECODE VALUE (ETDRS SCALE),RIGHT,RETINA,1,COLOR FUNDUS PHOTOGRAPH,,,,PRE-DOSE,-0.5
325,CDISCPILOT01,OE,01-701-1097,13,INTRAOCULAR PRESSURE,,2014-01-01,BASELINE,3,1,24,24,24,Intraocular Pressure,IOP,,LEFT,EYE,1,APPLANATION TONOMETRY,mmHg,mmHg,,PRE-DOSE,-0.5
326,CDISCPILOT01,OE,01-701-1097,14,INTRAOCULAR PRESSURE,,2014-01-01,BASELINE,3,1,25,25,25,Intraocular Pressure,IOP,,RIGHT,EYE,1,APPLANATION TONOMETRY,mmHg,mmHg,,PRE-DOSE,-0.5
327,CDISCPILOT01,OE,01-701-1097,15,BEST CORRECTED VISUAL ACUITY,OVERALL EVALUATION,2014-01-01,BASELINE,3,1,46,46,46,Visual Acuity Score,VACSCORE,,LEFT,EYE,1,ETDRS EYE CHART,,,,PRE-DOSE,-0.5
328,CDISCPILOT01,OE,01-701-1097,16,BEST CORRECTED VISUAL ACUITY,OVERALL EVALUATION,2014-01-01,BASELINE,3,1,98,98,98,Visual Acuity Score,VACSCORE,,RIGHT,EYE,1,ETDRS EYE CHART,,,,PRE-DOSE,-0.5
329,CDISCPILOT01,OE,01-701-1097,17,OPHTHALMIC ASSESSMENTS,SD-OCT CST SINGLE FORM,2014-01-29,WEEK 4,5,28,211,211,211,Center Subfield Thickness,CSUBTH,CENTER SUBFIELD THICKNESS,LEFT,RETINA,29,SD-OCT,um,um,,PRE-DOSE,-0.5
330,CDISCPILOT01,OE,01-701-1097,18,OPHTHALMIC ASSESSMENTS,SD-OCT CST SINGLE FORM,2014-01-29,WEEK 4,5,28,100,100,100,Center Subfield Thickness,CSUBTH,CENTER SUBFIELD THICKNESS,RIGHT,RETINA,29,SD-OCT,um,um,,PRE-DOSE,-0.5
331,CDISCPILOT01,OE,01-701-1097,19,OPHTHALMIC ASSESSMENTS,FORM FOR CFP EVALUATION FOR 7M/4W,2014-01-29,WEEK 4,5,28,11,11,11,Diabetic Retinopathy Sev Recode Value,DRSSR,DIABETIC RETINOPATHY SEVERITY LEVEL RECODE VALUE (ETDRS SCALE),LEFT,RETINA,29,COLOR FUNDUS PHOTOGRAPH,,,,PRE-DOSE,-0.5
332,CDISCPILOT01,OE,01-701-1097,20,OPHTHALMIC ASSESSMENTS,FORM FOR CFP EVALUATION FOR 7M/4W,2014-01-29,WEEK 4,5,28,4,4,4,Diabetic Retinopathy Sev Recode Value,DRSSR,DIABETIC RETINOPATHY SEVERITY LEVEL RECODE VALUE (ETDRS SCALE),RIGHT,RETINA,29,COLOR FUNDUS PHOTOGRAPH,,,,PRE-DOSE,-0.5
333,CDISCPILOT01,OE,01-701-1097,21,INTRAOCULAR PRESSURE,,2014-01-29,WEEK 4,5,28,10,10,10,Intraocular Pressure,IOP,,LEFT,EYE,29,APPLANATION TONOMETRY,mmHg,mmHg,,PRE-DOSE,-0.5
334,CDISCPILOT01,OE,01-701-1097,22,INTRAOCULAR PRESSURE,,2014-01-29,WEEK 4,5,28,16,16,16,Intraocular Pressure,IOP,,RIGHT,EYE,29,APPLANATION TONOMETRY,mmHg,mmHg,,PRE-DOSE,-0.5
335,CDISCPILOT01,OE,01-701-1097,23,BEST CORRECTED VISUAL ACUITY,OVERALL EVALUATION,2014-01-29,WEEK 4,5,28,26,26,26,Visual Acuity Score,VACSCORE,,LEFT,EYE,29,ETDRS EYE CHART,,,,PRE-DOSE,-0.5
336,CDISCPILOT01,OE,01-701-1097,24,BEST CORRECTED VISUAL ACUITY,OVERALL EVALUATION,2014-01-29,WEEK 4,5,28,66,66,66,Visual Acuity Score,VACSCORE,,RIGHT,EYE,29,ETDRS EYE CHART,,,,PRE-DOSE,-0.5
337,CDISCPILOT01,OE,01-701-1097,25,OPHTHALMIC ASSESSMENTS,SD-OCT CST SINGLE FORM,2014-02-11,WEEK 6,7,42,430,430,430,Center Subfield Thickness,CSUBTH,CENTER SUBFIELD THICKNESS,LEFT,RETINA,42,SD-OCT,um,um,,PRE-DOSE,-0.5
338,CDISCPILOT01,OE,01-701-1097,26,OPHTHALMIC ASSESSMENTS,SD-OCT CST SINGLE FORM,2014-02-11,WEEK 6,7,42,447,447,447,Center Subfield Thickness,CSUBTH,CENTER SUBFIELD THICKNESS,RIGHT,RETINA,42,SD-OCT,um,um,,PRE-DOSE,-0.5
339,CDISCPILOT01,OE,01-701-1097,27,OPHTHALMIC ASSESSMENTS,FORM FOR CFP EVALUATION FOR 7M/4W,2014-02-11,WEEK 6,7,42,6,6,6,Diabetic Retinopathy Sev Recode Value,DRSSR,DIABETIC RETINOPATHY SEVERITY LEVEL RECODE VALUE (ETDRS SCALE),LEFT,RETINA,42,COLOR FUNDUS PHOTOGRAPH,,,,PRE-DOSE,-0.5
340,CDISCPILOT01,OE,01-701-1097,28,OPHTHALMIC ASSESSMENTS,FORM FOR CFP EVALUATION FOR 7M/4W,2014-02-11,WEEK 6,7,42,3,3,3,Diabetic Retinopathy Sev Recode Value,DRSSR,DIABETIC RETINOPATHY SEVERITY LEVEL RECODE VALUE (ETDRS SCALE),RIGHT,RETINA,42,COLOR FUNDUS PHOTOGRAPH,,,,PRE-DOSE,-0.5
341,CDISCPILOT01,OE,01-701-1097,29,INTRAOCULAR PRESSURE,,2014-02-11,WEEK 6,7,42,16,16,16,Intraocular Pressure,IOP,,LEFT,EYE,42,APPLANATION TONOMETRY,mmHg,mmHg,,PRE-DOSE,-0.5
342,CDISCPILOT01,OE,01-701-1097,30,INTRAOCULAR PRESSURE,,2014-02-11,WEEK 6,7,42,6,6,6,Intraocular Pressure,IOP,,RIGHT,EYE,42,APPLANATION TONOMETRY,mmHg,mmHg,,PRE-DOSE,-0.5
343,CDISCPILOT01,OE,01-701-1097,31,BEST CORRECTED VISUAL ACUITY,OVERALL EVALUATION,2014-02-11,WEEK 6,7,42,75,75,75,Visual Acuity Score,VACSCORE,,LEFT,EYE,42,ETDRS EYE CHART,,,,PRE-DOSE,-0.5
344,CDISCPILOT01,OE,01-701-1097,32,BEST CORRECTED VISUAL ACUITY,OVERALL EVALUATION,2014-02-11,WEEK 6,7,42,57,57,57,Visual Acuity Score,VACSCORE,,RIGHT,EYE,42,ETDRS EYE CHART,,,,PRE-DOSE,-0.5
345,CDISCPILOT01,OE,01-701-1097,33,OPHTHALMIC ASSESSMENTS,SD-OCT CST SINGLE FORM,2014-02-26,WEEK 8,8,56,150,150,150,Center Subfield Thickness,CSUBTH,CENTER SUBFIELD THICKNESS,LEFT,RETINA,57,SD-OCT,um,um,,PRE-DOSE,-0.5
346,CDISCPILOT01,OE,01-701-1097,34,OPHTHALMIC ASSESSMENTS,SD-OCT CST SINGLE FORM,2014-02-26,WEEK 8,8,56,487,487,487,Center Subfield Thickness,CSUBTH,CENTER SUBFIELD THICKNESS,RIGHT,RETINA,57,SD-OCT,um,um,,PRE-DOSE,-0.5
347,CDISCPILOT01,OE,01-701-1097,35,OPHTHALMIC ASSESSMENTS,FORM FOR CFP EVALUATION FOR 7M/4W,2014-02-26,WEEK 8,8,56,2,2,2,Diabetic Retinopathy Sev Recode Value,DRSSR,DIABETIC RETINOPATHY SEVERITY LEVEL RECODE VALUE (ETDRS SCALE),LEFT,RETINA,57,COLOR FUNDUS PHOTOGRAPH,,,,PRE-DOSE,-0.5
348,CDISCPILOT01,OE,01-701-1097,36,OPHTHALMIC ASSESSMENTS,FORM FOR CFP EVALUATION FOR 7M/4W,2014-02-26,WEEK 8,8,56,6,6,6,Diabetic Retinopathy Sev Recode Value,DRSSR,DIABETIC RETINOPATHY SEVERITY LEVEL RECODE VALUE (ETDRS SCALE),RIGHT,RETINA,57,COLOR FUNDUS PHOTOGRAPH,,,,PRE-DOSE,-0.5
349,CDISCPILOT01,OE,01-701-1097,37,INTRAOCULAR PRESSURE,,2014-02-26,WEEK 8,8,56,25,25,25,Intraocular Pressure,IOP,,LEFT,EYE,57,APPLANATION TONOMETRY,mmHg,mmHg,,PRE-DOSE,-0.5
350,CDISCPILOT01,OE,01-701-1097,38,INTRAOCULAR PRESSURE,,2014-02-26,WEEK 8,8,56,15,15,15,Intraocular Pressure,IOP,,RIGHT,EYE,57,APPLANATION TONOMETRY,mmHg,mmHg,,PRE-DOSE,-0.5
351,CDISCPILOT01,OE,01-701-1097,39,BEST CORRECTED VISUAL ACUITY,OVERALL EVALUATION,2014-02-26,WEEK 8,8,56,23,23,23,Visual Acuity Score,VACSCORE,,LEFT,EYE,57,ETDRS EYE CHART,,,,PRE-DOSE,-0.5
352,CDISCPILOT01,OE,01-701-1097,40,BEST CORRECTED VISUAL ACUITY,OVERALL EVALUATION,2014-02-26,WEEK 8,8,56,59,59,59,Visual Acuity Score,VACSCORE,,RIGHT,EYE,57,ETDRS EYE CHART,,,,PRE-DOSE,-0.5
353,CDISCPILOT01,OE,01-701-1097,41,OPHTHALMIC ASSESSMENTS,SD-OCT CST SINGLE FORM,2014-03-26,WEEK 12,9,84,75,75,75,Center Subfield Thickness,CSUBTH,CENTER SUBFIELD THICKNESS,LEFT,RETINA,85,SD-OCT,um,um,,PRE-DOSE,-0.5
354,CDISCPILOT01,OE,01-701-1097,42,OPHTHALMIC ASSESSMENTS,SD-OCT CST SINGLE FORM,2014-03-26,WEEK 12,9,84,459,459,459,Center Subfield Thickness,CSUBTH,CENTER SUBFIELD THICKNESS,RIGHT,RETINA,85,SD-OCT,um,um,,PRE-DOSE,-0.5
355,CDISCPILOT01,OE,01-701-1097,43,OPHTHALMIC ASSESSMENTS,FORM FOR CFP EVALUATION FOR 7M/4W,2014-03-26,WEEK 12,9,84,7,7,7,Diabetic Retinopathy Sev Recode Value,DRSSR,DIABETIC RETINOPATHY SEVERITY LEVEL RECODE VALUE (ETDRS SCALE),LEFT,RETINA,85,COLOR FUNDUS PHOTOGRAPH,,,,PRE-DOSE,-0.5
356,CDISCPILOT01,OE,01-701-1097,44,OPHTHALMIC ASSESSMENTS,FORM FOR CFP EVALUATION FOR 7M/4W,2014-03-26,WEEK 12,9,84,4,4,4,Diabetic Retinopathy Sev Recode Value,DRSSR,DIABETIC RETINOPATHY SEVERITY LEVEL RECODE VALUE (ETDRS SCALE),RIGHT,RETINA,85,COLOR FUNDUS PHOTOGRAPH,,,,PRE-DOSE,-0.5
357,CDISCPILOT01,OE,01-701-1097,45,INTRAOCULAR PRESSURE,,2014-03-26,WEEK 12,9,84,13,13,13,Intraocular Pressure,IOP,,LEFT,EYE,85,APPLANATION TONOMETRY,mmHg,mmHg,,PRE-DOSE,-0.5
358,CDISCPILOT01,OE,01-701-1097,46,INTRAOCULAR PRESSURE,,2014-03-26,WEEK 12,9,84,29,29,29,Intraocular Pressure,IOP,,RIGHT,EYE,85,APPLANATION TONOMETRY,mmHg,mmHg,,PRE-DOSE,-0.5
359,CDISCPILOT01,OE,01-701-1097,47,BEST CORRECTED VISUAL ACUITY,OVERALL EVALUATION,2014-03-26,WEEK 12,9,84,94,94,94,Visual Acuity Score,VACSCORE,,LEFT,EYE,85,ETDRS EYE CHART,,,,PRE-DOSE,-0.5
360,CDISCPILOT01,OE,01-701-1097,48,BEST CORRECTED VISUAL ACUITY,OVERALL EVALUATION,2014-03-26,WEEK 12,9,84,56,56,56,Visual Acuity Score,VACSCORE,,RIGHT,EYE,85,ETDRS EYE CHART,,,,PRE-DOSE,-0.5
361,CDISCPILOT01,OE,01-701-1097,49,OPHTHALMIC ASSESSMENTS,SD-OCT CST SINGLE FORM,2014-04-23,WEEK 16,10,112,245,245,245,Center Subfield Thickness,CSUBTH,CENTER SUBFIELD THICKNESS,LEFT,RETINA,113,SD-OCT,um,um,,PRE-DOSE,-0.5
362,CDISCPILOT01,OE,01-701-1097,50,OPHTHALMIC ASSESSMENTS,SD-OCT CST SINGLE FORM,2014-04-23,WEEK 16,10,112,229,229,229,Center Subfield Thickness,CSUBTH,CENTER SUBFIELD THICKNESS,RIGHT,RETINA,113,SD-OCT,um,um,,PRE-DOSE,-0.5
363,CDISCPILOT01,OE,01-701-1097,51,OPHTHALMIC ASSESSMENTS,FORM FOR CFP EVALUATION FOR 7M/4W,2014-04-23,WEEK 16,10,112,12,12,12,Diabetic Retinopathy Sev Recode Value,DRSSR,DIABETIC RETINOPATHY SEVERITY LEVEL RECODE VALUE (ETDRS SCALE),LEFT,RETINA,113,COLOR FUNDUS PHOTOGRAPH,,,,PRE-DOSE,-0.5
364,CDISCPILOT01,OE,01-701-1097,52,OPHTHALMIC ASSESSMENTS,FORM FOR CFP EVALUATION FOR 7M/4W,2014-04-23,WEEK 16,10,112,5,5,5,Diabetic Retinopathy Sev Recode Value,DRSSR,DIABETIC RETINOPATHY SEVERITY LEVEL RECODE VALUE (ETDRS SCALE),RIGHT,RETINA,113,COLOR FUNDUS PHOTOGRAPH,,,,PRE-DOSE,-0.5
365,CDISCPILOT01,OE,01-701-1097,53,INTRAOCULAR PRESSURE,,2014-04-23,WEEK 16,10,112,27,27,27,Intraocular Pressure,IOP,,LEFT,EYE,113,APPLANATION TONOMETRY,mmHg,mmHg,,PRE-DOSE,-0.5
366,CDISCPILOT01,OE,01-701-1097,54,INTRAOCULAR PRESSURE,,2014-04-23,WEEK 16,10,112,17,17,17,Intraocular Pressure,IOP,,RIGHT,EYE,113,APPLANATION TONOMETRY,mmHg,mmHg,,PRE-DOSE,-0.5
367,CDISCPILOT01,OE,01-701-1097,55,BEST CORRECTED VISUAL ACUITY,OVERALL EVALUATION,2014-04-23,WEEK 16,10,112,29,29,29,Visual Acuity Score,VACSCORE,,LEFT,EYE,113,ETDRS EYE CHART,,,,PRE-DOSE,-0.5
368,CDISCPILOT01,OE,01-701-1097,56,BEST CORRECTED VISUAL ACUITY,OVERALL EVALUATION,2014-04-23,WEEK 16,10,112,24,24,24,Visual Acuity Score,VACSCORE,,RIGHT,EYE,113,ETDRS EYE CHART,,,,PRE-DOSE,-0.5
369,CDISCPILOT01,OE,01-701-1097,57,OPHTHALMIC ASSESSMENTS,SD-OCT CST SINGLE FORM,2014-05-21,WEEK 20,11,140,494,494,494,Center Subfield Thickness,CSUBTH,CENTER SUBFIELD THICKNESS,LEFT,RETINA,141,SD-OCT,um,um,,PRE-DOSE,-0.5
370,CDISCPILOT01,OE,01-701-1097,58,OPHTHALMIC ASSESSMENTS,SD-OCT CST SINGLE FORM,2014-05-21,WEEK 20,11,140,293,293,293,Center Subfield Thickness,CSUBTH,CENTER SUBFIELD THICKNESS,RIGHT,RETINA,141,SD-OCT,um,um,,PRE-DOSE,-0.5
371,CDISCPILOT01,OE,01-701-1097,59,OPHTHALMIC ASSESSMENTS,FORM FOR CFP EVALUATION FOR 7M/4W,2014-05-21,WEEK 20,11,140,6,6,6,Diabetic Retinopathy Sev Recode Value,DRSSR,DIABETIC RETINOPATHY SEVERITY LEVEL RECODE VALUE (ETDRS SCALE),LEFT,RETINA,141,COLOR FUNDUS PHOTOGRAPH,,,,PRE-DOSE,-0.5
372,CDISCPILOT01,OE,01-701-1097,60,OPHTHALMIC ASSESSMENTS,FORM FOR CFP EVALUATION FOR 7M/4W,2014-05-21,WEEK 20,11,140,11,11,11,Diabetic Retinopathy Sev Recode Value,DRSSR,DIABETIC RETINOPATHY SEVERITY LEVEL RECODE VALUE (ETDRS SCALE),RIGHT,RETINA,141,COLOR FUNDUS PHOTOGRAPH,,,,PRE-DOSE,-0.5
373,CDISCPILOT01,OE,01-701-1097,61,INTRAOCULAR PRESSURE,,2014-05-21,WEEK 20,11,140,9,9,9,Intraocular Pressure,IOP,,LEFT,EYE,141,APPLANATION TONOMETRY,mmHg,mmHg,,PRE-DOSE,-0.5
374,CDISCPILOT01,OE,01-701-1097,62,INTRAOCULAR PRESSURE,,2014-05-21,WEEK 20,11,140,5,5,5,Intraocular Pressure,IOP,,RIGHT,EYE,141,APPLANATION TONOMETRY,mmHg,mmHg,,PRE-DOSE,-0.5
375,CDISCPILOT01,OE,01-701-1097,63,BEST CORRECTED VISUAL ACUITY,OVERALL EVALUATION,2014-05-21,WEEK 20,11,140,54,54,54,Visual Acuity Score,VACSCORE,,LEFT,EYE,141,ETDRS EYE CHART,,,,PRE-DOSE,-0.5
376,CDISCPILOT01,OE,01-701-1097,64,BEST CORRECTED VISUAL ACUITY,OVERALL EVALUATION,2014-05-21,WEEK 20,11,140,6,6,6,Visual Acuity Score,VACSCORE,,RIGHT,EYE,141,ETDRS EYE CHART,,,,PRE-DOSE,-0.5
377,CDISCPILOT01,OE,01-701-1097,65,OPHTHALMIC ASSESSMENTS,SD-OCT CST SINGLE FORM,2014-06-18,WEEK 24,12,168,475,475,475,Center Subfield Thickness,CSUBTH,CENTER SUBFIELD THICKNESS,LEFT,RETINA,169,SD-OCT,um,um,,PRE-DOSE,-0.5
378,CDISCPILOT01,OE,01-701-1097,66,OPHTHALMIC ASSESSMENTS,SD-OCT CST SINGLE FORM,2014-06-18,WEEK 24,12,168,22,22,22,Center Subfield Thickness,CSUBTH,CENTER SUBFIELD THICKNESS,RIGHT,RETINA,169,SD-OCT,um,um,,PRE-DOSE,-0.5
379,CDISCPILOT01,OE,01-701-1097,67,OPHTHALMIC ASSESSMENTS,FORM FOR CFP EVALUATION FOR 7M/4W,2014-06-18,WEEK 24,12,168,12,12,12,Diabetic Retinopathy Sev Recode Value,DRSSR,DIABETIC RETINOPATHY SEVERITY LEVEL RECODE VALUE (ETDRS SCALE),LEFT,RETINA,169,COLOR FUNDUS PHOTOGRAPH,,,,PRE-DOSE,-0.5
380,CDISCPILOT01,OE,01-701-1097,68,OPHTHALMIC ASSESSMENTS,FORM FOR CFP EVALUATION FOR 7M/4W,2014-06-18,WEEK 24,12,168,4,4,4,Diabetic Retinopathy Sev Recode Value,DRSSR,DIABETIC RETINOPATHY SEVERITY LEVEL RECODE VALUE (ETDRS SCALE),RIGHT,RETINA,169,COLOR FUNDUS PHOTOGRAPH,,,,PRE-DOSE,-0.5
381,CDISCPILOT01,OE,01-701-1097,69,INTRAOCULAR PRESSURE,,2014-06-18,WEEK 24,12,168,25,25,25,Intraocular Pressure,IOP,,LEFT,EYE,169,APPLANATION TONOMETRY,mmHg,mmHg,,PRE-DOSE,-0.5
382,CDISCPILOT01,OE,01-701-1097,70,INTRAOCULAR PRESSURE,,2014-06-18,WEEK 24,12,168,17,17,17,Intraocular Pressure,IOP,,RIGHT,EYE,169,APPLANATION TONOMETRY,mmHg,mmHg,,PRE-DOSE,-0.5
383,CDISCPILOT01,OE,01-701-1097,71,BEST CORRECTED VISUAL ACUITY,OVERALL EVALUATION,2014-06-18,WEEK 24,12,168,69,69,69,Visual Acuity Score,VACSCORE,,LEFT,EYE,169,ETDRS EYE CHART,,,,PRE-DOSE,-0.5
384,CDISCPILOT01,OE,01-701-1097,72,BEST CORRECTED VISUAL ACUITY,OVERALL EVALUATION,2014-06-18,WEEK 24,12,168,73,73,73,Visual Acuity Score,VACSCORE,,RIGHT,EYE,169,ETDRS EYE CHART,,,,PRE-DOSE,-0.5
385,CDISCPILOT01,OE,01-701-1111,1,OPHTHALMIC ASSESSMENTS,SD-OCT CST SINGLE FORM,2012-08-25,SCREENING 1,1,-7,287,287,287,Center Subfield Thickness,CSUBTH,CENTER SUBFIELD THICKNESS,LEFT,RETINA,-13,SD-OCT,um,um,,PRE-DOSE,-0.5
386,CDISCPILOT01,OE,01-701-1111,2,OPHTHALMIC ASSESSMENTS,SD-OCT CST SINGLE FORM,2012-08-25,SCREENING 1,1,-7,88,88,88,Center Subfield Thickness,CSUBTH,CENTER SUBFIELD THICKNESS,RIGHT,RETINA,-13,SD-OCT,um,um,,PRE-DOSE,-0.5
387,CDISCPILOT01,OE,01-701-1111,3,OPHTHALMIC ASSESSMENTS,FORM FOR CFP EVALUATION FOR 7M/4W,2012-08-25,SCREENING 1,1,-7,6,6,6,Diabetic Retinopathy Sev Recode Value,DRSSR,DIABETIC RETINOPATHY SEVERITY LEVEL RECODE VALUE (ETDRS SCALE),LEFT,RETINA,-13,COLOR FUNDUS PHOTOGRAPH,,,,PRE-DOSE,-0.5
388,CDISCPILOT01,OE,01-701-1111,4,OPHTHALMIC ASSESSMENTS,FORM FOR CFP EVALUATION FOR 7M/4W,2012-08-25,SCREENING 1,1,-7,8,8,8,Diabetic Retinopathy Sev Recode Value,DRSSR,DIABETIC RETINOPATHY SEVERITY LEVEL RECODE VALUE (ETDRS SCALE),RIGHT,RETINA,-13,COLOR FUNDUS PHOTOGRAPH,,,,PRE-DOSE,-0.5
389,CDISCPILOT01,OE,01-701-1111,5,INTRAOCULAR PRESSURE,,2012-08-25,SCREENING 1,1,-7,7,7,7,Intraocular Pressure,IOP,,LEFT,EYE,-13,APPLANATION TONOMETRY,mmHg,mmHg,,PRE-DOSE,-0.5
390,CDISCPILOT01,OE,01-701-1111,6,INTRAOCULAR PRESSURE,,2012-08-25,SCREENING 1,1,-7,27,27,27,Intraocular Pressure,IOP,,RIGHT,EYE,-13,APPLANATION TONOMETRY,mmHg,mmHg,,PRE-DOSE,-0.5
391,CDISCPILOT01,OE,01-701-1111,7,BEST CORRECTED VISUAL ACUITY,OVERALL EVALUATION,2012-08-25,SCREENING 1,1,-7,92,92,92,Visual Acuity Score,VACSCORE,,LEFT,EYE,-13,ETDRS EYE CHART,,,,PRE-DOSE,-0.5
392,CDISCPILOT01,OE,01-701-1111,8,BEST CORRECTED VISUAL ACUITY,OVERALL EVALUATION,2012-08-25,SCREENING 1,1,-7,24,24,24,Visual Acuity Score,VACSCORE,,RIGHT,EYE,-13,ETDRS EYE CHART,,,,PRE-DOSE,-0.5
393,CDISCPILOT01,OE,01-701-1111,9,OPHTHALMIC ASSESSMENTS,SD-OCT CST SINGLE FORM,2012-09-07,BASELINE,3,1,173,173,173,Center Subfield Thickness,CSUBTH,CENTER SUBFIELD THICKNESS,LEFT,RETINA,1,SD-OCT,um,um,,PRE-DOSE,-0.5
394,CDISCPILOT01,OE,01-701-1111,10,OPHTHALMIC ASSESSMENTS,SD-OCT CST SINGLE FORM,2012-09-07,BASELINE,3,1,250,250,250,Center Subfield Thickness,CSUBTH,CENTER SUBFIELD THICKNESS,RIGHT,RETINA,1,SD-OCT,um,um,,PRE-DOSE,-0.5
395,CDISCPILOT01,OE,01-701-1111,11,OPHTHALMIC ASSESSMENTS,FORM FOR CFP EVALUATION FOR 7M/4W,2012-09-07,BASELINE,3,1,7,7,7,Diabetic Retinopathy Sev Recode Value,DRSSR,DIABETIC RETINOPATHY SEVERITY LEVEL RECODE VALUE (ETDRS SCALE),LEFT,RETINA,1,COLOR FUNDUS PHOTOGRAPH,,,,PRE-DOSE,-0.5
396,CDISCPILOT01,OE,01-701-1111,12,OPHTHALMIC ASSESSMENTS,FORM FOR CFP EVALUATION FOR 7M/4W,2012-09-07,BASELINE,3,1,4,4,4,Diabetic Retinopathy Sev Recode Value,DRSSR,DIABETIC RETINOPATHY SEVERITY LEVEL RECODE VALUE (ETDRS SCALE),RIGHT,RETINA,1,COLOR FUNDUS PHOTOGRAPH,,,,PRE-DOSE,-0.5
397,CDISCPILOT01,OE,01-701-1111,13,INTRAOCULAR PRESSURE,,2012-09-07,BASELINE,3,1,19,19,19,Intraocular Pressure,IOP,,LEFT,EYE,1,APPLANATION TONOMETRY,mmHg,mmHg,,PRE-DOSE,-0.5
398,CDISCPILOT01,OE,01-701-1111,14,INTRAOCULAR PRESSURE,,2012-09-07,BASELINE,3,1,24,24,24,Intraocular Pressure,IOP,,RIGHT,EYE,1,APPLANATION TONOMETRY,mmHg,mmHg,,PRE-DOSE,-0.5
399,CDISCPILOT01,OE,01-701-1111,15,BEST CORRECTED VISUAL ACUITY,OVERALL EVALUATION,2012-09-07,BASELINE,3,1,65,65,65,Visual Acuity Score,VACSCORE,,LEFT,EYE,1,ETDRS EYE CHART,,,,PRE-DOSE,-0.5
400,CDISCPILOT01,OE,01-701-1111,16,BEST CORRECTED VISUAL ACUITY,OVERALL EVALUATION,2012-09-07,BASELINE,3,1,74,74,74,Visual Acuity Score,VACSCORE,,RIGHT,EYE,1,ETDRS EYE CHART,,,,PRE-DOSE,-0.5
401,CDISCPILOT01,OE,01-701-1115,1,OPHTHALMIC ASSESSMENTS,SD-OCT CST SINGLE FORM,2012-11-23,SCREENING 1,1,-7,293,293,293,Center Subfield Thickness,CSUBTH,CENTER SUBFIELD THICKNESS,LEFT,RETINA,-7,SD-OCT,um,um,,PRE-DOSE,-0.5
402,CDISCPILOT01,OE,01-701-1115,2,OPHTHALMIC ASSESSMENTS,SD-OCT CST SINGLE FORM,2012-11-23,SCREENING 1,1,-7,434,434,434,Center Subfield Thickness,CSUBTH,CENTER SUBFIELD THICKNESS,RIGHT,RETINA,-7,SD-OCT,um,um,,PRE-DOSE,-0.5
403,CDISCPILOT01,OE,01-701-1115,3,OPHTHALMIC ASSESSMENTS,FORM FOR CFP EVALUATION FOR 7M/4W,2012-11-23,SCREENING 1,1,-7,3,3,3,Diabetic Retinopathy Sev Recode Value,DRSSR,DIABETIC RETINOPATHY SEVERITY LEVEL RECODE VALUE (ETDRS SCALE),LEFT,RETINA,-7,COLOR FUNDUS PHOTOGRAPH,,,,PRE-DOSE,-0.5
404,CDISCPILOT01,OE,01-701-1115,4,OPHTHALMIC ASSESSMENTS,FORM FOR CFP EVALUATION FOR 7M/4W,2012-11-23,SCREENING 1,1,-7,3,3,3,Diabetic Retinopathy Sev Recode Value,DRSSR,DIABETIC RETINOPATHY SEVERITY LEVEL RECODE VALUE (ETDRS SCALE),RIGHT,RETINA,-7,COLOR FUNDUS PHOTOGRAPH,,,,PRE-DOSE,-0.5
405,CDISCPILOT01,OE,01-701-1115,5,INTRAOCULAR PRESSURE,,2012-11-23,SCREENING 1,1,-7,7,7,7,Intraocular Pressure,IOP,,LEFT,EYE,-7,APPLANATION TONOMETRY,mmHg,mmHg,,PRE-DOSE,-0.5
406,CDISCPILOT01,OE,01-701-1115,6,INTRAOCULAR PRESSURE,,2012-11-23,SCREENING 1,1,-7,14,14,14,Intraocular Pressure,IOP,,RIGHT,EYE,-7,APPLANATION TONOMETRY,mmHg,mmHg,,PRE-DOSE,-0.5
407,CDISCPILOT01,OE,01-701-1115,7,BEST CORRECTED VISUAL ACUITY,OVERALL EVALUATION,2012-11-23,SCREENING 1,1,-7,8,8,8,Visual Acuity Score,VACSCORE,,LEFT,EYE,-7,ETDRS EYE CHART,,,,PRE-DOSE,-0.5
408,CDISCPILOT01,OE,01-701-1115,8,BEST CORRECTED VISUAL ACUITY,OVERALL EVALUATION,2012-11-23,SCREENING 1,1,-7,83,83,83,Visual Acuity Score,VACSCORE,,RIGHT,EYE,-7,ETDRS EYE CHART,,,,PRE-DOSE,-0.5
409,CDISCPILOT01,OE,01-701-1115,9,OPHTHALMIC ASSESSMENTS,SD-OCT CST SINGLE FORM,2012-11-30,BASELINE,3,1,332,332,332,Center Subfield Thickness,CSUBTH,CENTER SUBFIELD THICKNESS,LEFT,RETINA,1,SD-OCT,um,um,,PRE-DOSE,-0.5
410,CDISCPILOT01,OE,01-701-1115,10,OPHTHALMIC ASSESSMENTS,SD-OCT CST SINGLE FORM,2012-11-30,BASELINE,3,1,301,301,301,Center Subfield Thickness,CSUBTH,CENTER SUBFIELD THICKNESS,RIGHT,RETINA,1,SD-OCT,um,um,,PRE-DOSE,-0.5
411,CDISCPILOT01,OE,01-701-1115,11,OPHTHALMIC ASSESSMENTS,FORM FOR CFP EVALUATION FOR 7M/4W,2012-11-30,BASELINE,3,1,4,4,4,Diabetic Retinopathy Sev Recode Value,DRSSR,DIABETIC RETINOPATHY SEVERITY LEVEL RECODE VALUE (ETDRS SCALE),LEFT,RETINA,1,COLOR FUNDUS PHOTOGRAPH,,,,PRE-DOSE,-0.5
412,CDISCPILOT01,OE,01-701-1115,12,OPHTHALMIC ASSESSMENTS,FORM FOR CFP EVALUATION FOR 7M/4W,2012-11-30,BASELINE,3,1,3,3,3,Diabetic Retinopathy Sev Recode Value,DRSSR,DIABETIC RETINOPATHY SEVERITY LEVEL RECODE VALUE (ETDRS SCALE),RIGHT,RETINA,1,COLOR FUNDUS PHOTOGRAPH,,,,PRE-DOSE,-0.5
413,CDISCPILOT01,OE,01-701-1115,13,INTRAOCULAR PRESSURE,,2012-11-30,BASELINE,3,1,25,25,25,Intraocular Pressure,IOP,,LEFT,EYE,1,APPLANATION TONOMETRY,mmHg,mmHg,,PRE-DOSE,-0.5
414,CDISCPILOT01,OE,01-701-1115,14,INTRAOCULAR PRESSURE,,2012-11-30,BASELINE,3,1,18,18,18,Intraocular Pressure,IOP,,RIGHT,EYE,1,APPLANATION TONOMETRY,mmHg,mmHg,,PRE-DOSE,-0.5
415,CDISCPILOT01,OE,01-701-1115,15,BEST CORRECTED VISUAL ACUITY,OVERALL EVALUATION,2012-11-30,BASELINE,3,1,81,81,81,Visual Acuity Score,VACSCORE,,LEFT,EYE,1,ETDRS EYE CHART,,,,PRE-DOSE,-0.5
416,CDISCPILOT01,OE,01-701-1115,16,BEST CORRECTED VISUAL ACUITY,OVERALL EVALUATION,2012-11-30,BASELINE,3,1,91,91,91,Visual Acuity Score,VACSCORE,,RIGHT,EYE,1,ETDRS EYE CHART,,,,PRE-DOSE,-0.5
417,CDISCPILOT01,OE,01-701-1115,17,OPHTHALMIC ASSESSMENTS,SD-OCT CST SINGLE FORM,2012-12-26,WEEK 4,5,28,236,236,236,Center Subfield Thickness,CSUBTH,CENTER SUBFIELD THICKNESS,LEFT,RETINA,27,SD-OCT,um,um,,PRE-DOSE,-0.5
418,CDISCPILOT01,OE,01-701-1115,18,OPHTHALMIC ASSESSMENTS,SD-OCT CST SINGLE FORM,2012-12-26,WEEK 4,5,28,173,173,173,Center Subfield Thickness,CSUBTH,CENTER SUBFIELD THICKNESS,RIGHT,RETINA,27,SD-OCT,um,um,,PRE-DOSE,-0.5
419,CDISCPILOT01,OE,01-701-1115,19,OPHTHALMIC ASSESSMENTS,FORM FOR CFP EVALUATION FOR 7M/4W,2012-12-26,WEEK 4,5,28,7,7,7,Diabetic Retinopathy Sev Recode Value,DRSSR,DIABETIC RETINOPATHY SEVERITY LEVEL RECODE VALUE (ETDRS SCALE),LEFT,RETINA,27,COLOR FUNDUS PHOTOGRAPH,,,,PRE-DOSE,-0.5
420,CDISCPILOT01,OE,01-701-1115,20,OPHTHALMIC ASSESSMENTS,FORM FOR CFP EVALUATION FOR 7M/4W,2012-12-26,WEEK 4,5,28,11,11,11,Diabetic Retinopathy Sev Recode Value,DRSSR,DIABETIC RETINOPATHY SEVERITY LEVEL RECODE VALUE (ETDRS SCALE),RIGHT,RETINA,27,COLOR FUNDUS PHOTOGRAPH,,,,PRE-DOSE,-0.5
421,CDISCPILOT01,OE,01-701-1115,21,INTRAOCULAR PRESSURE,,2012-12-26,WEEK 4,5,28,8,8,8,Intraocular Pressure,IOP,,LEFT,EYE,27,APPLANATION TONOMETRY,mmHg,mmHg,,PRE-DOSE,-0.5
422,CDISCPILOT01,OE,01-701-1115,22,INTRAOCULAR PRESSURE,,2012-12-26,WEEK 4,5,28,13,13,13,Intraocular Pressure,IOP,,RIGHT,EYE,27,APPLANATION TONOMETRY,mmHg,mmHg,,PRE-DOSE,-0.5
423,CDISCPILOT01,OE,01-701-1115,23,BEST CORRECTED VISUAL ACUITY,OVERALL EVALUATION,2012-12-26,WEEK 4,5,28,36,36,36,Visual Acuity Score,VACSCORE,,LEFT,EYE,27,ETDRS EYE CHART,,,,PRE-DOSE,-0.5
424,CDISCPILOT01,OE,01-701-1115,24,BEST CORRECTED VISUAL ACUITY,OVERALL EVALUATION,2012-12-26,WEEK 4,5,28,33,33,33,Visual Acuity Score,VACSCORE,,RIGHT,EYE,27,ETDRS EYE CHART,,,,PRE-DOSE,-0.5
425,CDISCPILOT01,OE,01-701-1115,25,OPHTHALMIC ASSESSMENTS,SD-OCT CST SINGLE FORM,2013-01-10,WEEK 6,7,42,109,109,109,Center Subfield Thickness,CSUBTH,CENTER SUBFIELD THICKNESS,LEFT,RETINA,42,SD-OCT,um,um,,PRE-DOSE,-0.5
426,CDISCPILOT01,OE,01-701-1115,26,OPHTHALMIC ASSESSMENTS,SD-OCT CST SINGLE FORM,2013-01-10,WEEK 6,7,42,160,160,160,Center Subfield Thickness,CSUBTH,CENTER SUBFIELD THICKNESS,RIGHT,RETINA,42,SD-OCT,um,um,,PRE-DOSE,-0.5
427,CDISCPILOT01,OE,01-701-1115,27,OPHTHALMIC ASSESSMENTS,FORM FOR CFP EVALUATION FOR 7M/4W,2013-01-10,WEEK 6,7,42,11,11,11,Diabetic Retinopathy Sev Recode Value,DRSSR,DIABETIC RETINOPATHY SEVERITY LEVEL RECODE VALUE (ETDRS SCALE),LEFT,RETINA,42,COLOR FUNDUS PHOTOGRAPH,,,,PRE-DOSE,-0.5
428,CDISCPILOT01,OE,01-701-1115,28,OPHTHALMIC ASSESSMENTS,FORM FOR CFP EVALUATION FOR 7M/4W,2013-01-10,WEEK 6,7,42,12,12,12,Diabetic Retinopathy Sev Recode Value,DRSSR,DIABETIC RETINOPATHY SEVERITY LEVEL RECODE VALUE (ETDRS SCALE),RIGHT,RETINA,42,COLOR FUNDUS PHOTOGRAPH,,,,PRE-DOSE,-0.5
429,CDISCPILOT01,OE,01-701-1115,29,INTRAOCULAR PRESSURE,,2013-01-10,WEEK 6,7,42,20,20,20,Intraocular Pressure,IOP,,LEFT,EYE,42,APPLANATION TONOMETRY,mmHg,mmHg,,PRE-DOSE,-0.5
430,CDISCPILOT01,OE,01-701-1115,30,INTRAOCULAR PRESSURE,,2013-01-10,WEEK 6,7,42,11,11,11,Intraocular Pressure,IOP,,RIGHT,EYE,42,APPLANATION TONOMETRY,mmHg,mmHg,,PRE-DOSE,-0.5
431,CDISCPILOT01,OE,01-701-1115,31,BEST CORRECTED VISUAL ACUITY,OVERALL EVALUATION,2013-01-10,WEEK 6,7,42,21,21,21,Visual Acuity Score,VACSCORE,,LEFT,EYE,42,ETDRS EYE CHART,,,,PRE-DOSE,-0.5
432,CDISCPILOT01,OE,01-701-1115,32,BEST CORRECTED VISUAL ACUITY,OVERALL EVALUATION,2013-01-10,WEEK 6,7,42,8,8,8,Visual Acuity Score,VACSCORE,,RIGHT,EYE,42,ETDRS EYE CHART,,,,PRE-DOSE,-0.5
433,CDISCPILOT01,OE,01-701-1115,33,OPHTHALMIC ASSESSMENTS,SD-OCT CST SINGLE FORM,2013-01-23,WEEK 8,8,56,259,259,259,Center Subfield Thickness,CSUBTH,CENTER SUBFIELD THICKNESS,LEFT,RETINA,55,SD-OCT,um,um,,PRE-DOSE,-0.5
434,CDISCPILOT01,OE,01-701-1115,34,OPHTHALMIC ASSESSMENTS,SD-OCT CST SINGLE FORM,2013-01-23,WEEK 8,8,56,80,80,80,Center Subfield Thickness,CSUBTH,CENTER SUBFIELD THICKNESS,RIGHT,RETINA,55,SD-OCT,um,um,,PRE-DOSE,-0.5
435,CDISCPILOT01,OE,01-701-1115,35,OPHTHALMIC ASSESSMENTS,FORM FOR CFP EVALUATION FOR 7M/4W,2013-01-23,WEEK 8,8,56,11,11,11,Diabetic Retinopathy Sev Recode Value,DRSSR,DIABETIC RETINOPATHY SEVERITY LEVEL RECODE VALUE (ETDRS SCALE),LEFT,RETINA,55,COLOR FUNDUS PHOTOGRAPH,,,,PRE-DOSE,-0.5
436,CDISCPILOT01,OE,01-701-1115,36,OPHTHALMIC ASSESSMENTS,FORM FOR CFP EVALUATION FOR 7M/4W,2013-01-23,WEEK 8,8,56,6,6,6,Diabetic Retinopathy Sev Recode Value,DRSSR,DIABETIC RETINOPATHY SEVERITY LEVEL RECODE VALUE (ETDRS SCALE),RIGHT,RETINA,55,COLOR FUNDUS PHOTOGRAPH,,,,PRE-DOSE,-0.5
437,CDISCPILOT01,OE,01-701-1115,37,INTRAOCULAR PRESSURE,,2013-01-23,WEEK 8,8,56,26,26,26,Intraocular Pressure,IOP,,LEFT,EYE,55,APPLANATION TONOMETRY,mmHg,mmHg,,PRE-DOSE,-0.5
438,CDISCPILOT01,OE,01-701-1115,38,INTRAOCULAR PRESSURE,,2013-01-23,WEEK 8,8,56,24,24,24,Intraocular Pressure,IOP,,RIGHT,EYE,55,APPLANATION TONOMETRY,mmHg,mmHg,,PRE-DOSE,-0.5
439,CDISCPILOT01,OE,01-701-1115,39,BEST CORRECTED VISUAL ACUITY,OVERALL EVALUATION,2013-01-23,WEEK 8,8,56,57,57,57,Visual Acuity Score,VACSCORE,,LEFT,EYE,55,ETDRS EYE CHART,,,,PRE-DOSE,-0.5
440,CDISCPILOT01,OE,01-701-1115,40,BEST CORRECTED VISUAL ACUITY,OVERALL EVALUATION,2013-01-23,WEEK 8,8,56,55,55,55,Visual Acuity Score,VACSCORE,,RIGHT,EYE,55,ETDRS EYE CHART,,,,PRE-DOSE,-0.5
441,CDISCPILOT01,OE,01-701-1118,1,OPHTHALMIC ASSESSMENTS,SD-OCT CST SINGLE FORM,2014-02-27,SCREENING 1,1,-7,453,453,453,Center Subfield Thickness,CSUBTH,CENTER SUBFIELD THICKNESS,LEFT,RETINA,-13,SD-OCT,um,um,,PRE-DOSE,-0.5
442,CDISCPILOT01,OE,01-701-1118,2,OPHTHALMIC ASSESSMENTS,SD-OCT CST SINGLE FORM,2014-02-27,SCREENING 1,1,-7,127,127,127,Center Subfield Thickness,CSUBTH,CENTER SUBFIELD THICKNESS,RIGHT,RETINA,-13,SD-OCT,um,um,,PRE-DOSE,-0.5
443,CDISCPILOT01,OE,01-701-1118,3,OPHTHALMIC ASSESSMENTS,FORM FOR CFP EVALUATION FOR 7M/4W,2014-02-27,SCREENING 1,1,-7,5,5,5,Diabetic Retinopathy Sev Recode Value,DRSSR,DIABETIC RETINOPATHY SEVERITY LEVEL RECODE VALUE (ETDRS SCALE),LEFT,RETINA,-13,COLOR FUNDUS PHOTOGRAPH,,,,PRE-DOSE,-0.5
444,CDISCPILOT01,OE,01-701-1118,4,OPHTHALMIC ASSESSMENTS,FORM FOR CFP EVALUATION FOR 7M/4W,2014-02-27,SCREENING 1,1,-7,1,1,1,Diabetic Retinopathy Sev Recode Value,DRSSR,DIABETIC RETINOPATHY SEVERITY LEVEL RECODE VALUE (ETDRS SCALE),RIGHT,RETINA,-13,COLOR FUNDUS PHOTOGRAPH,,,,PRE-DOSE,-0.5
445,CDISCPILOT01,OE,01-701-1118,5,INTRAOCULAR PRESSURE,,2014-02-27,SCREENING 1,1,-7,22,22,22,Intraocular Pressure,IOP,,LEFT,EYE,-13,APPLANATION TONOMETRY,mmHg,mmHg,,PRE-DOSE,-0.5
446,CDISCPILOT01,OE,01-701-1118,6,INTRAOCULAR PRESSURE,,2014-02-27,SCREENING 1,1,-7,8,8,8,Intraocular Pressure,IOP,,RIGHT,EYE,-13,APPLANATION TONOMETRY,mmHg,mmHg,,PRE-DOSE,-0.5
447,CDISCPILOT01,OE,01-701-1118,7,BEST CORRECTED VISUAL ACUITY,OVERALL EVALUATION,2014-02-27,SCREENING 1,1,-7,30,30,30,Visual Acuity Score,VACSCORE,,LEFT,EYE,-13,ETDRS EYE CHART,,,,PRE-DOSE,-0.5
448,CDISCPILOT01,OE,01-701-1118,8,BEST CORRECTED VISUAL ACUITY,OVERALL EVALUATION,2014-02-27,SCREENING 1,1,-7,16,16,16,Visual Acuity Score,VACSCORE,,RIGHT,EYE,-13,ETDRS EYE CHART,,,,PRE-DOSE,-0.5
449,CDISCPILOT01,OE,01-701-1118,9,OPHTHALMIC ASSESSMENTS,SD-OCT CST SINGLE FORM,2014-03-12,BASELINE,3,1,32,32,32,Center Subfield Thickness,CSUBTH,CENTER SUBFIELD THICKNESS,LEFT,RETINA,1,SD-OCT,um,um,,PRE-DOSE,-0.5
450,CDISCPILOT01,OE,01-701-1118,10,OPHTHALMIC ASSESSMENTS,SD-OCT CST SINGLE FORM,2014-03-12,BASELINE,3,1,321,321,321,Center Subfield Thickness,CSUBTH,CENTER SUBFIELD THICKNESS,RIGHT,RETINA,1,SD-OCT,um,um,,PRE-DOSE,-0.5
451,CDISCPILOT01,OE,01-701-1118,11,OPHTHALMIC ASSESSMENTS,FORM FOR CFP EVALUATION FOR 7M/4W,2014-03-12,BASELINE,3,1,10,10,10,Diabetic Retinopathy Sev Recode Value,DRSSR,DIABETIC RETINOPATHY SEVERITY LEVEL RECODE VALUE (ETDRS SCALE),LEFT,RETINA,1,COLOR FUNDUS PHOTOGRAPH,,,,PRE-DOSE,-0.5
452,CDISCPILOT01,OE,01-701-1118,12,OPHTHALMIC ASSESSMENTS,FORM FOR CFP EVALUATION FOR 7M/4W,2014-03-12,BASELINE,3,1,8,8,8,Diabetic Retinopathy Sev Recode Value,DRSSR,DIABETIC RETINOPATHY SEVERITY LEVEL RECODE VALUE (ETDRS SCALE),RIGHT,RETINA,1,COLOR FUNDUS PHOTOGRAPH,,,,PRE-DOSE,-0.5
453,CDISCPILOT01,OE,01-701-1118,13,INTRAOCULAR PRESSURE,,2014-03-12,BASELINE,3,1,15,15,15,Intraocular Pressure,IOP,,LEFT,EYE,1,APPLANATION TONOMETRY,mmHg,mmHg,,PRE-DOSE,-0.5
454,CDISCPILOT01,OE,01-701-1118,14,INTRAOCULAR PRESSURE,,2014-03-12,BASELINE,3,1,19,19,19,Intraocular Pressure,IOP,,RIGHT,EYE,1,APPLANATION TONOMETRY,mmHg,mmHg,,PRE-DOSE,-0.5
455,CDISCPILOT01,OE,01-701-1118,15,BEST CORRECTED VISUAL ACUITY,OVERALL EVALUATION,2014-03-12,BASELINE,3,1,40,40,40,Visual Acuity Score,VACSCORE,,LEFT,EYE,1,ETDRS EYE CHART,,,,PRE-DOSE,-0.5
456,CDISCPILOT01,OE,01-701-1118,16,BEST CORRECTED VISUAL ACUITY,OVERALL EVALUATION,2014-03-12,BASELINE,3,1,22,22,22,Visual Acuity Score,VACSCORE,,RIGHT,EYE,1,ETDRS EYE CHART,,,,PRE-DOSE,-0.5
457,CDISCPILOT01,OE,01-701-1118,17,OPHTHALMIC ASSESSMENTS,SD-OCT CST SINGLE FORM,2014-04-09,WEEK 4,5,28,369,369,369,Center Subfield Thickness,CSUBTH,CENTER SUBFIELD THICKNESS,LEFT,RETINA,29,SD-OCT,um,um,,PRE-DOSE,-0.5
458,CDISCPILOT01,OE,01-701-1118,18,OPHTHALMIC ASSESSMENTS,SD-OCT CST SINGLE FORM,2014-04-09,WEEK 4,5,28,430,430,430,Center Subfield Thickness,CSUBTH,CENTER SUBFIELD THICKNESS,RIGHT,RETINA,29,SD-OCT,um,um,,PRE-DOSE,-0.5
459,CDISCPILOT01,OE,01-701-1118,19,OPHTHALMIC ASSESSMENTS,FORM FOR CFP EVALUATION FOR 7M/4W,2014-04-09,WEEK 4,5,28,5,5,5,Diabetic Retinopathy Sev Recode Value,DRSSR,DIABETIC RETINOPATHY SEVERITY LEVEL RECODE VALUE (ETDRS SCALE),LEFT,RETINA,29,COLOR FUNDUS PHOTOGRAPH,,,,PRE-DOSE,-0.5
460,CDISCPILOT01,OE,01-701-1118,20,OPHTHALMIC ASSESSMENTS,FORM FOR CFP EVALUATION FOR 7M/4W,2014-04-09,WEEK 4,5,28,2,2,2,Diabetic Retinopathy Sev Recode Value,DRSSR,DIABETIC RETINOPATHY SEVERITY LEVEL RECODE VALUE (ETDRS SCALE),RIGHT,RETINA,29,COLOR FUNDUS PHOTOGRAPH,,,,PRE-DOSE,-0.5
461,CDISCPILOT01,OE,01-701-1118,21,INTRAOCULAR PRESSURE,,2014-04-09,WEEK 4,5,28,26,26,26,Intraocular Pressure,IOP,,LEFT,EYE,29,APPLANATION TONOMETRY,mmHg,mmHg,,PRE-DOSE,-0.5
462,CDISCPILOT01,OE,01-701-1118,22,INTRAOCULAR PRESSURE,,2014-04-09,WEEK 4,5,28,25,25,25,Intraocular Pressure,IOP,,RIGHT,EYE,29,APPLANATION TONOMETRY,mmHg,mmHg,,PRE-DOSE,-0.5
463,CDISCPILOT01,OE,01-701-1118,23,BEST CORRECTED VISUAL ACUITY,OVERALL EVALUATION,2014-04-09,WEEK 4,5,28,54,54,54,Visual Acuity Score,VACSCORE,,LEFT,EYE,29,ETDRS EYE CHART,,,,PRE-DOSE,-0.5
464,CDISCPILOT01,OE,01-701-1118,24,BEST CORRECTED VISUAL ACUITY,OVERALL EVALUATION,2014-04-09,WEEK 4,5,28,21,21,21,Visual Acuity Score,VACSCORE,,RIGHT,EYE,29,ETDRS EYE CHART,,,,PRE-DOSE,-0.5
465,CDISCPILOT01,OE,01-701-1118,25,OPHTHALMIC ASSESSMENTS,SD-OCT CST SINGLE FORM,2014-04-23,WEEK 6,7,42,211,211,211,Center Subfield Thickness,CSUBTH,CENTER SUBFIELD THICKNESS,LEFT,RETINA,43,SD-OCT,um,um,,PRE-DOSE,-0.5
466,CDISCPILOT01,OE,01-701-1118,26,OPHTHALMIC ASSESSMENTS,SD-OCT CST SINGLE FORM,2014-04-23,WEEK 6,7,42,480,480,480,Center Subfield Thickness,CSUBTH,CENTER SUBFIELD THICKNESS,RIGHT,RETINA,43,SD-OCT,um,um,,PRE-DOSE,-0.5
467,CDISCPILOT01,OE,01-701-1118,27,OPHTHALMIC ASSESSMENTS,FORM FOR CFP EVALUATION FOR 7M/4W,2014-04-23,WEEK 6,7,42,10,10,10,Diabetic Retinopathy Sev Recode Value,DRSSR,DIABETIC RETINOPATHY SEVERITY LEVEL RECODE VALUE (ETDRS SCALE),LEFT,RETINA,43,COLOR FUNDUS PHOTOGRAPH,,,,PRE-DOSE,-0.5
468,CDISCPILOT01,OE,01-701-1118,28,OPHTHALMIC ASSESSMENTS,FORM FOR CFP EVALUATION FOR 7M/4W,2014-04-23,WEEK 6,7,42,7,7,7,Diabetic Retinopathy Sev Recode Value,DRSSR,DIABETIC RETINOPATHY SEVERITY LEVEL RECODE VALUE (ETDRS SCALE),RIGHT,RETINA,43,COLOR FUNDUS PHOTOGRAPH,,,,PRE-DOSE,-0.5
469,CDISCPILOT01,OE,01-701-1118,29,INTRAOCULAR PRESSURE,,2014-04-23,WEEK 6,7,42,24,24,24,Intraocular Pressure,IOP,,LEFT,EYE,43,APPLANATION TONOMETRY,mmHg,mmHg,,PRE-DOSE,-0.5
470,CDISCPILOT01,OE,01-701-1118,30,INTRAOCULAR PRESSURE,,2014-04-23,WEEK 6,7,42,29,29,29,Intraocular Pressure,IOP,,RIGHT,EYE,43,APPLANATION TONOMETRY,mmHg,mmHg,,PRE-DOSE,-0.5
471,CDISCPILOT01,OE,01-701-1118,31,BEST CORRECTED VISUAL ACUITY,OVERALL EVALUATION,2014-04-23,WEEK 6,7,42,98,98,98,Visual Acuity Score,VACSCORE,,LEFT,EYE,43,ETDRS EYE CHART,,,,PRE-DOSE,-0.5
472,CDISCPILOT01,OE,01-701-1118,32,BEST CORRECTED VISUAL ACUITY,OVERALL EVALUATION,2014-04-23,WEEK 6,7,42,39,39,39,Visual Acuity Score,VACSCORE,,RIGHT,EYE,43,ETDRS EYE CHART,,,,PRE-DOSE,-0.5
473,CDISCPILOT01,OE,01-701-1118,33,OPHTHALMIC ASSESSMENTS,SD-OCT CST SINGLE FORM,2014-05-08,WEEK 8,8,56,283,283,283,Center Subfield Thickness,CSUBTH,CENTER SUBFIELD THICKNESS,LEFT,RETINA,58,SD-OCT,um,um,,PRE-DOSE,-0.5
474,CDISCPILOT01,OE,01-701-1118,34,OPHTHALMIC ASSESSMENTS,SD-OCT CST SINGLE FORM,2014-05-08,WEEK 8,8,56,457,457,457,Center Subfield Thickness,CSUBTH,CENTER SUBFIELD THICKNESS,RIGHT,RETINA,58,SD-OCT,um,um,,PRE-DOSE,-0.5
475,CDISCPILOT01,OE,01-701-1118,35,OPHTHALMIC ASSESSMENTS,FORM FOR CFP EVALUATION FOR 7M/4W,2014-05-08,WEEK 8,8,56,4,4,4,Diabetic Retinopathy Sev Recode Value,DRSSR,DIABETIC RETINOPATHY SEVERITY LEVEL RECODE VALUE (ETDRS SCALE),LEFT,RETINA,58,COLOR FUNDUS PHOTOGRAPH,,,,PRE-DOSE,-0.5
476,CDISCPILOT01,OE,01-701-1118,36,OPHTHALMIC ASSESSMENTS,FORM FOR CFP EVALUATION FOR 7M/4W,2014-05-08,WEEK 8,8,56,7,7,7,Diabetic Retinopathy Sev Recode Value,DRSSR,DIABETIC RETINOPATHY SEVERITY LEVEL RECODE VALUE (ETDRS SCALE),RIGHT,RETINA,58,COLOR FUNDUS PHOTOGRAPH,,,,PRE-DOSE,-0.5
477,CDISCPILOT01,OE,01-701-1118,37,INTRAOCULAR PRESSURE,,2014-05-08,WEEK 8,8,56,5,5,5,Intraocular Pressure,IOP,,LEFT,EYE,58,APPLANATION TONOMETRY,mmHg,mmHg,,PRE-DOSE,-0.5
478,CDISCPILOT01,OE,01-701-1118,38,INTRAOCULAR PRESSURE,,2014-05-08,WEEK 8,8,56,15,15,15,Intraocular Pressure,IOP,,RIGHT,EYE,58,APPLANATION TONOMETRY,mmHg,mmHg,,PRE-DOSE,-0.5
479,CDISCPILOT01,OE,01-701-1118,39,BEST CORRECTED VISUAL ACUITY,OVERALL EVALUATION,2014-05-08,WEEK 8,8,56,5,5,5,Visual Acuity Score,VACSCORE,,LEFT,EYE,58,ETDRS EYE CHART,,,,PRE-DOSE,-0.5
480,CDISCPILOT01,OE,01-701-1118,40,BEST CORRECTED VISUAL ACUITY,OVERALL EVALUATION,2014-05-08,WEEK 8,8,56,87,87,87,Visual Acuity Score,VACSCORE,,RIGHT,EYE,58,ETDRS EYE CHART,,,,PRE-DOSE,-0.5
481,CDISCPILOT01,OE,01-701-1118,41,OPHTHALMIC ASSESSMENTS,SD-OCT CST SINGLE FORM,2014-05-21,WEEK 10 (T),8.1,70,197,197,197,Center Subfield Thickness,CSUBTH,CENTER SUBFIELD THICKNESS,LEFT,RETINA,71,SD-OCT,um,um,,PRE-DOSE,-0.5
482,CDISCPILOT01,OE,01-701-1118,42,OPHTHALMIC ASSESSMENTS,SD-OCT CST SINGLE FORM,2014-05-21,WEEK 10 (T),8.1,70,138,138,138,Center Subfield Thickness,CSUBTH,CENTER SUBFIELD THICKNESS,RIGHT,RETINA,71,SD-OCT,um,um,,PRE-DOSE,-0.5
483,CDISCPILOT01,OE,01-701-1118,43,OPHTHALMIC ASSESSMENTS,FORM FOR CFP EVALUATION FOR 7M/4W,2014-05-21,WEEK 10 (T),8.1,70,9,9,9,Diabetic Retinopathy Sev Recode Value,DRSSR,DIABETIC RETINOPATHY SEVERITY LEVEL RECODE VALUE (ETDRS SCALE),LEFT,RETINA,71,COLOR FUNDUS PHOTOGRAPH,,,,PRE-DOSE,-0.5
484,CDISCPILOT01,OE,01-701-1118,44,OPHTHALMIC ASSESSMENTS,FORM FOR CFP EVALUATION FOR 7M/4W,2014-05-21,WEEK 10 (T),8.1,70,12,12,12,Diabetic Retinopathy Sev Recode Value,DRSSR,DIABETIC RETINOPATHY SEVERITY LEVEL RECODE VALUE (ETDRS SCALE),RIGHT,RETINA,71,COLOR FUNDUS PHOTOGRAPH,,,,PRE-DOSE,-0.5
485,CDISCPILOT01,OE,01-701-1118,45,INTRAOCULAR PRESSURE,,2014-05-21,WEEK 10 (T),8.1,70,8,8,8,Intraocular Pressure,IOP,,LEFT,EYE,71,APPLANATION TONOMETRY,mmHg,mmHg,,PRE-DOSE,-0.5
486,CDISCPILOT01,OE,01-701-1118,46,INTRAOCULAR PRESSURE,,2014-05-21,WEEK 10 (T),8.1,70,21,21,21,Intraocular Pressure,IOP,,RIGHT,EYE,71,APPLANATION TONOMETRY,mmHg,mmHg,,PRE-DOSE,-0.5
487,CDISCPILOT01,OE,01-701-1118,47,BEST CORRECTED VISUAL ACUITY,OVERALL EVALUATION,2014-05-21,WEEK 10 (T),8.1,70,79,79,79,Visual Acuity Score,VACSCORE,,LEFT,EYE,71,ETDRS EYE CHART,,,,PRE-DOSE,-0.5
488,CDISCPILOT01,OE,01-701-1118,48,BEST CORRECTED VISUAL ACUITY,OVERALL EVALUATION,2014-05-21,WEEK 10 (T),8.1,70,99,99,99,Visual Acuity Score,VACSCORE,,RIGHT,EYE,71,ETDRS EYE CHART,,,,PRE-DOSE,-0.5
489,CDISCPILOT01,OE,01-701-1118,49,OPHTHALMIC ASSESSMENTS,SD-OCT CST SINGLE FORM,2014-06-05,WEEK 12,9,84,423,423,423,Center Subfield Thickness,CSUBTH,CENTER SUBFIELD THICKNESS,LEFT,RETINA,86,SD-OCT,um,um,,PRE-DOSE,-0.5
490,CDISCPILOT01,OE,01-701-1118,50,OPHTHALMIC ASSESSMENTS,SD-OCT CST SINGLE FORM,2014-06-05,WEEK 12,9,84,258,258,258,Center Subfield Thickness,CSUBTH,CENTER SUBFIELD THICKNESS,RIGHT,RETINA,86,SD-OCT,um,um,,PRE-DOSE,-0.5
491,CDISCPILOT01,OE,01-701-1118,51,OPHTHALMIC ASSESSMENTS,FORM FOR CFP EVALUATION FOR 7M/4W,2014-06-05,WEEK 12,9,84,2,2,2,Diabetic Retinopathy Sev Recode Value,DRSSR,DIABETIC RETINOPATHY SEVERITY LEVEL RECODE VALUE (ETDRS SCALE),LEFT,RETINA,86,COLOR FUNDUS PHOTOGRAPH,,,,PRE-DOSE,-0.5
492,CDISCPILOT01,OE,01-701-1118,52,OPHTHALMIC ASSESSMENTS,FORM FOR CFP EVALUATION FOR 7M/4W,2014-06-05,WEEK 12,9,84,12,12,12,Diabetic Retinopathy Sev Recode Value,DRSSR,DIABETIC RETINOPATHY SEVERITY LEVEL RECODE VALUE (ETDRS SCALE),RIGHT,RETINA,86,COLOR FUNDUS PHOTOGRAPH,,,,PRE-DOSE,-0.5
493,CDISCPILOT01,OE,01-701-1118,53,INTRAOCULAR PRESSURE,,2014-06-05,WEEK 12,9,84,28,28,28,Intraocular Pressure,IOP,,LEFT,EYE,86,APPLANATION TONOMETRY,mmHg,mmHg,,PRE-DOSE,-0.5
494,CDISCPILOT01,OE,01-701-1118,54,INTRAOCULAR PRESSURE,,2014-06-05,WEEK 12,9,84,29,29,29,Intraocular Pressure,IOP,,RIGHT,EYE,86,APPLANATION TONOMETRY,mmHg,mmHg,,PRE-DOSE,-0.5
495,CDISCPILOT01,OE,01-701-1118,55,BEST CORRECTED VISUAL ACUITY,OVERALL EVALUATION,2014-06-05,WEEK 12,9,84,28,28,28,Visual Acuity Score,VACSCORE,,LEFT,EYE,86,ETDRS EYE CHART,,,,PRE-DOSE,-0.5
496,CDISCPILOT01,OE,01-701-1118,56,BEST CORRECTED VISUAL ACUITY,OVERALL EVALUATION,2014-06-05,WEEK 12,9,84,2,2,2,Visual Acuity Score,VACSCORE,,RIGHT,EYE,86,ETDRS EYE CHART,,,,PRE-DOSE,-0.5
497,CDISCPILOT01,OE,01-701-1118,57,OPHTHALMIC ASSESSMENTS,SD-OCT CST SINGLE FORM,2014-07-02,WEEK 16,10,112,364,364,364,Center Subfield Thickness,CSUBTH,CENTER SUBFIELD THICKNESS,LEFT,RETINA,113,SD-OCT,um,um,,PRE-DOSE,-0.5
498,CDISCPILOT01,OE,01-701-1118,58,OPHTHALMIC ASSESSMENTS,SD-OCT CST SINGLE FORM,2014-07-02,WEEK 16,10,112,214,214,214,Center Subfield Thickness,CSUBTH,CENTER SUBFIELD THICKNESS,RIGHT,RETINA,113,SD-OCT,um,um,,PRE-DOSE,-0.5
499,CDISCPILOT01,OE,01-701-1118,59,OPHTHALMIC ASSESSMENTS,FORM FOR CFP EVALUATION FOR 7M/4W,2014-07-02,WEEK 16,10,112,9,9,9,Diabetic Retinopathy Sev Recode Value,DRSSR,DIABETIC RETINOPATHY SEVERITY LEVEL RECODE VALUE (ETDRS SCALE),LEFT,RETINA,113,COLOR FUNDUS PHOTOGRAPH,,,,PRE-DOSE,-0.5
500,CDISCPILOT01,OE,01-701-1118,60,OPHTHALMIC ASSESSMENTS,FORM FOR CFP EVALUATION FOR 7M/4W,2014-07-02,WEEK 16,10,112,11,11,11,Diabetic Retinopathy Sev Recode Value,DRSSR,DIABETIC RETINOPATHY SEVERITY LEVEL RECODE VALUE (ETDRS SCALE),RIGHT,RETINA,113,COLOR FUNDUS PHOTOGRAPH,,,,PRE-DOSE,-0.5
501,CDISCPILOT01,OE,01-701-1118,61,INTRAOCULAR PRESSURE,,2014-07-02,WEEK 16,10,112,21,21,21,Intraocular Pressure,IOP,,LEFT,EYE,113,APPLANATION TONOMETRY,mmHg,mmHg,,PRE-DOSE,-0.5
502,CDISCPILOT01,OE,01-701-1118,62,INTRAOCULAR PRESSURE,,2014-07-02,WEEK 16,10,112,5,5,5,Intraocular Pressure,IOP,,RIGHT,EYE,113,APPLANATION TONOMETRY,mmHg,mmHg,,PRE-DOSE,-0.5
503,CDISCPILOT01,OE,01-701-1118,63,BEST CORRECTED VISUAL ACUITY,OVERALL EVALUATION,2014-07-02,WEEK 16,10,112,95,95,95,Visual Acuity Score,VACSCORE,,LEFT,EYE,113,ETDRS EYE CHART,,,,PRE-DOSE,-0.5
504,CDISCPILOT01,OE,01-701-1118,64,BEST CORRECTED VISUAL ACUITY,OVERALL EVALUATION,2014-07-02,WEEK 16,10,112,44,44,44,Visual Acuity Score,VACSCORE,,RIGHT,EYE,113,ETDRS EYE CHART,,,,PRE-DOSE,-0.5
505,CDISCPILOT01,OE,01-701-1118,65,OPHTHALMIC ASSESSMENTS,SD-OCT CST SINGLE FORM,2014-07-30,WEEK 20,11,140,475,475,475,Center Subfield Thickness,CSUBTH,CENTER SUBFIELD THICKNESS,LEFT,RETINA,141,SD-OCT,um,um,,PRE-DOSE,-0.5
506,CDISCPILOT01,OE,01-701-1118,66,OPHTHALMIC ASSESSMENTS,SD-OCT CST SINGLE FORM,2014-07-30,WEEK 20,11,140,443,443,443,Center Subfield Thickness,CSUBTH,CENTER SUBFIELD THICKNESS,RIGHT,RETINA,141,SD-OCT,um,um,,PRE-DOSE,-0.5
507,CDISCPILOT01,OE,01-701-1118,67,OPHTHALMIC ASSESSMENTS,FORM FOR CFP EVALUATION FOR 7M/4W,2014-07-30,WEEK 20,11,140,10,10,10,Diabetic Retinopathy Sev Recode Value,DRSSR,DIABETIC RETINOPATHY SEVERITY LEVEL RECODE VALUE (ETDRS SCALE),LEFT,RETINA,141,COLOR FUNDUS PHOTOGRAPH,,,,PRE-DOSE,-0.5
508,CDISCPILOT01,OE,01-701-1118,68,OPHTHALMIC ASSESSMENTS,FORM FOR CFP EVALUATION FOR 7M/4W,2014-07-30,WEEK 20,11,140,11,11,11,Diabetic Retinopathy Sev Recode Value,DRSSR,DIABETIC RETINOPATHY SEVERITY LEVEL RECODE VALUE (ETDRS SCALE),RIGHT,RETINA,141,COLOR FUNDUS PHOTOGRAPH,,,,PRE-DOSE,-0.5
509,CDISCPILOT01,OE,01-701-1118,69,INTRAOCULAR PRESSURE,,2014-07-30,WEEK 20,11,140,29,29,29,Intraocular Pressure,IOP,,LEFT,EYE,141,APPLANATION TONOMETRY,mmHg,mmHg,,PRE-DOSE,-0.5
510,CDISCPILOT01,OE,01-701-1118,70,INTRAOCULAR PRESSURE,,2014-07-30,WEEK 20,11,140,28,28,28,Intraocular Pressure,IOP,,RIGHT,EYE,141,APPLANATION TONOMETRY,mmHg,mmHg,,PRE-DOSE,-0.5
511,CDISCPILOT01,OE,01-701-1118,71,BEST CORRECTED VISUAL ACUITY,OVERALL EVALUATION,2014-07-30,WEEK 20,11,140,14,14,14,Visual Acuity Score,VACSCORE,,LEFT,EYE,141,ETDRS EYE CHART,,,,PRE-DOSE,-0.5
512,CDISCPILOT01,OE,01-701-1118,72,BEST CORRECTED VISUAL ACUITY,OVERALL EVALUATION,2014-07-30,WEEK 20,11,140,59,59,59,Visual Acuity Score,VACSCORE,,RIGHT,EYE,141,ETDRS EYE CHART,,,,PRE-DOSE,-0.5
513,CDISCPILOT01,OE,01-701-1118,73,OPHTHALMIC ASSESSMENTS,SD-OCT CST SINGLE FORM,2014-08-27,WEEK 24,12,168,212,212,212,Center Subfield Thickness,CSUBTH,CENTER SUBFIELD THICKNESS,LEFT,RETINA,169,SD-OCT,um,um,,PRE-DOSE,-0.5
514,CDISCPILOT01,OE,01-701-1118,74,OPHTHALMIC ASSESSMENTS,SD-OCT CST SINGLE FORM,2014-08-27,WEEK 24,12,168,72,72,72,Center Subfield Thickness,CSUBTH,CENTER SUBFIELD THICKNESS,RIGHT,RETINA,169,SD-OCT,um,um,,PRE-DOSE,-0.5
515,CDISCPILOT01,OE,01-701-1118,75,OPHTHALMIC ASSESSMENTS,FORM FOR CFP EVALUATION FOR 7M/4W,2014-08-27,WEEK 24,12,168,5,5,5,Diabetic Retinopathy Sev Recode Value,DRSSR,DIABETIC RETINOPATHY SEVERITY LEVEL RECODE VALUE (ETDRS SCALE),LEFT,RETINA,169,COLOR FUNDUS PHOTOGRAPH,,,,PRE-DOSE,-0.5
516,CDISCPILOT01,OE,01-701-1118,76,OPHTHALMIC ASSESSMENTS,FORM FOR CFP EVALUATION FOR 7M/4W,2014-08-27,WEEK 24,12,168,10,10,10,Diabetic Retinopathy Sev Recode Value,DRSSR,DIABETIC RETINOPATHY SEVERITY LEVEL RECODE VALUE (ETDRS SCALE),RIGHT,RETINA,169,COLOR FUNDUS PHOTOGRAPH,,,,PRE-DOSE,-0.5
517,CDISCPILOT01,OE,01-701-1118,77,INTRAOCULAR PRESSURE,,2014-08-27,WEEK 24,12,168,30,30,30,Intraocular Pressure,IOP,,LEFT,EYE,169,APPLANATION TONOMETRY,mmHg,mmHg,,PRE-DOSE,-0.5
518,CDISCPILOT01,OE,01-701-1118,78,INTRAOCULAR PRESSURE,,2014-08-27,WEEK 24,12,168,9,9,9,Intraocular Pressure,IOP,,RIGHT,EYE,169,APPLANATION TONOMETRY,mmHg,mmHg,,PRE-DOSE,-0.5
519,CDISCPILOT01,OE,01-701-1118,79,BEST CORRECTED VISUAL ACUITY,OVERALL EVALUATION,2014-08-27,WEEK 24,12,168,85,85,85,Visual Acuity Score,VACSCORE,,LEFT,EYE,169,ETDRS EYE CHART,,,,PRE-DOSE,-0.5
520,CDISCPILOT01,OE,01-701-1118,80,BEST CORRECTED VISUAL ACUITY,OVERALL EVALUATION,2014-08-27,WEEK 24,12,168,49,49,49,Visual Acuity Score,VACSCORE,,RIGHT,EYE,169,ETDRS EYE CHART,,,,PRE-DOSE,-0.5
521,CDISCPILOT01,OE,01-701-1130,1,OPHTHALMIC ASSESSMENTS,SD-OCT CST SINGLE FORM,2014-02-09,SCREENING 1,1,-7,31,31,31,Center Subfield Thickness,CSUBTH,CENTER SUBFIELD THICKNESS,LEFT,RETINA,-6,SD-OCT,um,um,,PRE-DOSE,-0.5
522,CDISCPILOT01,OE,01-701-1130,2,OPHTHALMIC ASSESSMENTS,SD-OCT CST SINGLE FORM,2014-02-09,SCREENING 1,1,-7,68,68,68,Center Subfield Thickness,CSUBTH,CENTER SUBFIELD THICKNESS,RIGHT,RETINA,-6,SD-OCT,um,um,,PRE-DOSE,-0.5
523,CDISCPILOT01,OE,01-701-1130,3,OPHTHALMIC ASSESSMENTS,FORM FOR CFP EVALUATION FOR 7M/4W,2014-02-09,SCREENING 1,1,-7,8,8,8,Diabetic Retinopathy Sev Recode Value,DRSSR,DIABETIC RETINOPATHY SEVERITY LEVEL RECODE VALUE (ETDRS SCALE),LEFT,RETINA,-6,COLOR FUNDUS PHOTOGRAPH,,,,PRE-DOSE,-0.5
524,CDISCPILOT01,OE,01-701-1130,4,OPHTHALMIC ASSESSMENTS,FORM FOR CFP EVALUATION FOR 7M/4W,2014-02-09,SCREENING 1,1,-7,4,4,4,Diabetic Retinopathy Sev Recode Value,DRSSR,DIABETIC RETINOPATHY SEVERITY LEVEL RECODE VALUE (ETDRS SCALE),RIGHT,RETINA,-6,COLOR FUNDUS PHOTOGRAPH,,,,PRE-DOSE,-0.5
525,CDISCPILOT01,OE,01-701-1130,5,INTRAOCULAR PRESSURE,,2014-02-09,SCREENING 1,1,-7,10,10,10,Intraocular Pressure,IOP,,LEFT,EYE,-6,APPLANATION TONOMETRY,mmHg,mmHg,,PRE-DOSE,-0.5
526,CDISCPILOT01,OE,01-701-1130,6,INTRAOCULAR PRESSURE,,2014-02-09,SCREENING 1,1,-7,18,18,18,Intraocular Pressure,IOP,,RIGHT,EYE,-6,APPLANATION TONOMETRY,mmHg,mmHg,,PRE-DOSE,-0.5
527,CDISCPILOT01,OE,01-701-1130,7,BEST CORRECTED VISUAL ACUITY,OVERALL EVALUATION,2014-02-09,SCREENING 1,1,-7,19,19,19,Visual Acuity Score,VACSCORE,,LEFT,EYE,-6,ETDRS EYE CHART,,,,PRE-DOSE,-0.5
528,CDISCPILOT01,OE,01-701-1130,8,BEST CORRECTED VISUAL ACUITY,OVERALL EVALUATION,2014-02-09,SCREENING 1,1,-7,68,68,68,Visual Acuity Score,VACSCORE,,RIGHT,EYE,-6,ETDRS EYE CHART,,,,PRE-DOSE,-0.5
529,CDISCPILOT01,OE,01-701-1130,9,OPHTHALMIC ASSESSMENTS,SD-OCT CST SINGLE FORM,2014-02-15,BASELINE,3,1,323,323,323,Center Subfield Thickness,CSUBTH,CENTER SUBFIELD THICKNESS,LEFT,RETINA,1,SD-OCT,um,um,,PRE-DOSE,-0.5
530,CDISCPILOT01,OE,01-701-1130,10,OPHTHALMIC ASSESSMENTS,SD-OCT CST SINGLE FORM,2014-02-15,BASELINE,3,1,500,500,500,Center Subfield Thickness,CSUBTH,CENTER SUBFIELD THICKNESS,RIGHT,RETINA,1,SD-OCT,um,um,,PRE-DOSE,-0.5
531,CDISCPILOT01,OE,01-701-1130,11,OPHTHALMIC ASSESSMENTS,FORM FOR CFP EVALUATION FOR 7M/4W,2014-02-15,BASELINE,3,1,11,11,11,Diabetic Retinopathy Sev Recode Value,DRSSR,DIABETIC RETINOPATHY SEVERITY LEVEL RECODE VALUE (ETDRS SCALE),LEFT,RETINA,1,COLOR FUNDUS PHOTOGRAPH,,,,PRE-DOSE,-0.5
532,CDISCPILOT01,OE,01-701-1130,12,OPHTHALMIC ASSESSMENTS,FORM FOR CFP EVALUATION FOR 7M/4W,2014-02-15,BASELINE,3,1,12,12,12,Diabetic Retinopathy Sev Recode Value,DRSSR,DIABETIC RETINOPATHY SEVERITY LEVEL RECODE VALUE (ETDRS SCALE),RIGHT,RETINA,1,COLOR FUNDUS PHOTOGRAPH,,,,PRE-DOSE,-0.5
533,CDISCPILOT01,OE,01-701-1130,13,INTRAOCULAR PRESSURE,,2014-02-15,BASELINE,3,1,20,20,20,Intraocular Pressure,IOP,,LEFT,EYE,1,APPLANATION TONOMETRY,mmHg,mmHg,,PRE-DOSE,-0.5
534,CDISCPILOT01,OE,01-701-1130,14,INTRAOCULAR PRESSURE,,2014-02-15,BASELINE,3,1,28,28,28,Intraocular Pressure,IOP,,RIGHT,EYE,1,APPLANATION TONOMETRY,mmHg,mmHg,,PRE-DOSE,-0.5
535,CDISCPILOT01,OE,01-701-1130,15,BEST CORRECTED VISUAL ACUITY,OVERALL EVALUATION,2014-02-15,BASELINE,3,1,24,24,24,Visual Acuity Score,VACSCORE,,LEFT,EYE,1,ETDRS EYE CHART,,,,PRE-DOSE,-0.5
536,CDISCPILOT01,OE,01-701-1130,16,BEST CORRECTED VISUAL ACUITY,OVERALL EVALUATION,2014-02-15,BASELINE,3,1,18,18,18,Visual Acuity Score,VACSCORE,,RIGHT,EYE,1,ETDRS EYE CHART,,,,PRE-DOSE,-0.5
537,CDISCPILOT01,OE,01-701-1130,17,OPHTHALMIC ASSESSMENTS,SD-OCT CST SINGLE FORM,2014-03-15,WEEK 4,5,28,484,484,484,Center Subfield Thickness,CSUBTH,CENTER SUBFIELD THICKNESS,LEFT,RETINA,29,SD-OCT,um,um,,PRE-DOSE,-0.5
538,CDISCPILOT01,OE,01-701-1130,18,OPHTHALMIC ASSESSMENTS,SD-OCT CST SINGLE FORM,2014-03-15,WEEK 4,5,28,87,87,87,Center Subfield Thickness,CSUBTH,CENTER SUBFIELD THICKNESS,RIGHT,RETINA,29,SD-OCT,um,um,,PRE-DOSE,-0.5
539,CDISCPILOT01,OE,01-701-1130,19,OPHTHALMIC ASSESSMENTS,FORM FOR CFP EVALUATION FOR 7M/4W,2014-03-15,WEEK 4,5,28,6,6,6,Diabetic Retinopathy Sev Recode Value,DRSSR,DIABETIC RETINOPATHY SEVERITY LEVEL RECODE VALUE (ETDRS SCALE),LEFT,RETINA,29,COLOR FUNDUS PHOTOGRAPH,,,,PRE-DOSE,-0.5
540,CDISCPILOT01,OE,01-701-1130,20,OPHTHALMIC ASSESSMENTS,FORM FOR CFP EVALUATION FOR 7M/4W,2014-03-15,WEEK 4,5,28,7,7,7,Diabetic Retinopathy Sev Recode Value,DRSSR,DIABETIC RETINOPATHY SEVERITY LEVEL RECODE VALUE (ETDRS SCALE),RIGHT,RETINA,29,COLOR FUNDUS PHOTOGRAPH,,,,PRE-DOSE,-0.5
541,CDISCPILOT01,OE,01-701-1130,21,INTRAOCULAR PRESSURE,,2014-03-15,WEEK 4,5,28,24,24,24,Intraocular Pressure,IOP,,LEFT,EYE,29,APPLANATION TONOMETRY,mmHg,mmHg,,PRE-DOSE,-0.5
542,CDISCPILOT01,OE,01-701-1130,22,INTRAOCULAR PRESSURE,,2014-03-15,WEEK 4,5,28,7,7,7,Intraocular Pressure,IOP,,RIGHT,EYE,29,APPLANATION TONOMETRY,mmHg,mmHg,,PRE-DOSE,-0.5
543,CDISCPILOT01,OE,01-701-1130,23,BEST CORRECTED VISUAL ACUITY,OVERALL EVALUATION,2014-03-15,WEEK 4,5,28,14,14,14,Visual Acuity Score,VACSCORE,,LEFT,EYE,29,ETDRS EYE CHART,,,,PRE-DOSE,-0.5
544,CDISCPILOT01,OE,01-701-1130,24,BEST CORRECTED VISUAL ACUITY,OVERALL EVALUATION,2014-03-15,WEEK 4,5,28,45,45,45,Visual Acuity Score,VACSCORE,,RIGHT,EYE,29,ETDRS EYE CHART,,,,PRE-DOSE,-0.5
545,CDISCPILOT01,OE,01-701-1130,25,OPHTHALMIC ASSESSMENTS,SD-OCT CST SINGLE FORM,2014-03-29,WEEK 6,7,42,242,242,242,Center Subfield Thickness,CSUBTH,CENTER SUBFIELD THICKNESS,LEFT,RETINA,43,SD-OCT,um,um,,PRE-DOSE,-0.5
546,CDISCPILOT01,OE,01-701-1130,26,OPHTHALMIC ASSESSMENTS,SD-OCT CST SINGLE FORM,2014-03-29,WEEK 6,7,42,376,376,376,Center Subfield Thickness,CSUBTH,CENTER SUBFIELD THICKNESS,RIGHT,RETINA,43,SD-OCT,um,um,,PRE-DOSE,-0.5
547,CDISCPILOT01,OE,01-701-1130,27,OPHTHALMIC ASSESSMENTS,FORM FOR CFP EVALUATION FOR 7M/4W,2014-03-29,WEEK 6,7,42,2,2,2,Diabetic Retinopathy Sev Recode Value,DRSSR,DIABETIC RETINOPATHY SEVERITY LEVEL RECODE VALUE (ETDRS SCALE),LEFT,RETINA,43,COLOR FUNDUS PHOTOGRAPH,,,,PRE-DOSE,-0.5
548,CDISCPILOT01,OE,01-701-1130,28,OPHTHALMIC ASSESSMENTS,FORM FOR CFP EVALUATION FOR 7M/4W,2014-03-29,WEEK 6,7,42,8,8,8,Diabetic Retinopathy Sev Recode Value,DRSSR,DIABETIC RETINOPATHY SEVERITY LEVEL RECODE VALUE (ETDRS SCALE),RIGHT,RETINA,43,COLOR FUNDUS PHOTOGRAPH,,,,PRE-DOSE,-0.5
549,CDISCPILOT01,OE,01-701-1130,29,INTRAOCULAR PRESSURE,,2014-03-29,WEEK 6,7,42,6,6,6,Intraocular Pressure,IOP,,LEFT,EYE,43,APPLANATION TONOMETRY,mmHg,mmHg,,PRE-DOSE,-0.5
550,CDISCPILOT01,OE,01-701-1130,30,INTRAOCULAR PRESSURE,,2014-03-29,WEEK 6,7,42,26,26,26,Intraocular Pressure,IOP,,RIGHT,EYE,43,APPLANATION TONOMETRY,mmHg,mmHg,,PRE-DOSE,-0.5
551,CDISCPILOT01,OE,01-701-1130,31,BEST CORRECTED VISUAL ACUITY,OVERALL EVALUATION,2014-03-29,WEEK 6,7,42,93,93,93,Visual Acuity Score,VACSCORE,,LEFT,EYE,43,ETDRS EYE CHART,,,,PRE-DOSE,-0.5
552,CDISCPILOT01,OE,01-701-1130,32,BEST CORRECTED VISUAL ACUITY,OVERALL EVALUATION,2014-03-29,WEEK 6,7,42,9,9,9,Visual Acuity Score,VACSCORE,,RIGHT,EYE,43,ETDRS EYE CHART,,,,PRE-DOSE,-0.5
553,CDISCPILOT01,OE,01-701-1130,33,OPHTHALMIC ASSESSMENTS,SD-OCT CST SINGLE FORM,2014-04-12,WEEK 8,8,56,447,447,447,Center Subfield Thickness,CSUBTH,CENTER SUBFIELD THICKNESS,LEFT,RETINA,57,SD-OCT,um,um,,PRE-DOSE,-0.5
554,CDISCPILOT01,OE,01-701-1130,34,OPHTHALMIC ASSESSMENTS,SD-OCT CST SINGLE FORM,2014-04-12,WEEK 8,8,56,53,53,53,Center Subfield Thickness,CSUBTH,CENTER SUBFIELD THICKNESS,RIGHT,RETINA,57,SD-OCT,um,um,,PRE-DOSE,-0.5
555,CDISCPILOT01,OE,01-701-1130,35,OPHTHALMIC ASSESSMENTS,FORM FOR CFP EVALUATION FOR 7M/4W,2014-04-12,WEEK 8,8,56,2,2,2,Diabetic Retinopathy Sev Recode Value,DRSSR,DIABETIC RETINOPATHY SEVERITY LEVEL RECODE VALUE (ETDRS SCALE),LEFT,RETINA,57,COLOR FUNDUS PHOTOGRAPH,,,,PRE-DOSE,-0.5
556,CDISCPILOT01,OE,01-701-1130,36,OPHTHALMIC ASSESSMENTS,FORM FOR CFP EVALUATION FOR 7M/4W,2014-04-12,WEEK 8,8,56,3,3,3,Diabetic Retinopathy Sev Recode Value,DRSSR,DIABETIC RETINOPATHY SEVERITY LEVEL RECODE VALUE (ETDRS SCALE),RIGHT,RETINA,57,COLOR FUNDUS PHOTOGRAPH,,,,PRE-DOSE,-0.5
557,CDISCPILOT01,OE,01-701-1130,37,INTRAOCULAR PRESSURE,,2014-04-12,WEEK 8,8,56,15,15,15,Intraocular Pressure,IOP,,LEFT,EYE,57,APPLANATION TONOMETRY,mmHg,mmHg,,PRE-DOSE,-0.5
558,CDISCPILOT01,OE,01-701-1130,38,INTRAOCULAR PRESSURE,,2014-04-12,WEEK 8,8,56,17,17,17,Intraocular Pressure,IOP,,RIGHT,EYE,57,APPLANATION TONOMETRY,mmHg,mmHg,,PRE-DOSE,-0.5
559,CDISCPILOT01,OE,01-701-1130,39,BEST CORRECTED VISUAL ACUITY,OVERALL EVALUATION,2014-04-12,WEEK 8,8,56,27,27,27,Visual Acuity Score,VACSCORE,,LEFT,EYE,57,ETDRS EYE CHART,,,,PRE-DOSE,-0.5
560,CDISCPILOT01,OE,01-701-1130,40,BEST CORRECTED VISUAL ACUITY,OVERALL EVALUATION,2014-04-12,WEEK 8,8,56,70,70,70,Visual Acuity Score,VACSCORE,,RIGHT,EYE,57,ETDRS EYE CHART,,,,PRE-DOSE,-0.5
561,CDISCPILOT01,OE,01-701-1130,41,OPHTHALMIC ASSESSMENTS,SD-OCT CST SINGLE FORM,2014-04-26,WEEK 10 (T),8.1,70,51,51,51,Center Subfield Thickness,CSUBTH,CENTER SUBFIELD THICKNESS,LEFT,RETINA,71,SD-OCT,um,um,,PRE-DOSE,-0.5
562,CDISCPILOT01,OE,01-701-1130,42,OPHTHALMIC ASSESSMENTS,SD-OCT CST SINGLE FORM,2014-04-26,WEEK 10 (T),8.1,70,168,168,168,Center Subfield Thickness,CSUBTH,CENTER SUBFIELD THICKNESS,RIGHT,RETINA,71,SD-OCT,um,um,,PRE-DOSE,-0.5
563,CDISCPILOT01,OE,01-701-1130,43,OPHTHALMIC ASSESSMENTS,FORM FOR CFP EVALUATION FOR 7M/4W,2014-04-26,WEEK 10 (T),8.1,70,2,2,2,Diabetic Retinopathy Sev Recode Value,DRSSR,DIABETIC RETINOPATHY SEVERITY LEVEL RECODE VALUE (ETDRS SCALE),LEFT,RETINA,71,COLOR FUNDUS PHOTOGRAPH,,,,PRE-DOSE,-0.5
564,CDISCPILOT01,OE,01-701-1130,44,OPHTHALMIC ASSESSMENTS,FORM FOR CFP EVALUATION FOR 7M/4W,2014-04-26,WEEK 10 (T),8.1,70,8,8,8,Diabetic Retinopathy Sev Recode Value,DRSSR,DIABETIC RETINOPATHY SEVERITY LEVEL RECODE VALUE (ETDRS SCALE),RIGHT,RETINA,71,COLOR FUNDUS PHOTOGRAPH,,,,PRE-DOSE,-0.5
565,CDISCPILOT01,OE,01-701-1130,45,INTRAOCULAR PRESSURE,,2014-04-26,WEEK 10 (T),8.1,70,17,17,17,Intraocular Pressure,IOP,,LEFT,EYE,71,APPLANATION TONOMETRY,mmHg,mmHg,,PRE-DOSE,-0.5
566,CDISCPILOT01,OE,01-701-1130,46,INTRAOCULAR PRESSURE,,2014-04-26,WEEK 10 (T),8.1,70,30,30,30,Intraocular Pressure,IOP,,RIGHT,EYE,71,APPLANATION TONOMETRY,mmHg,mmHg,,PRE-DOSE,-0.5
567,CDISCPILOT01,OE,01-701-1130,47,BEST CORRECTED VISUAL ACUITY,OVERALL EVALUATION,2014-04-26,WEEK 10 (T),8.1,70,77,77,77,Visual Acuity Score,VACSCORE,,LEFT,EYE,71,ETDRS EYE CHART,,,,PRE-DOSE,-0.5
568,CDISCPILOT01,OE,01-701-1130,48,BEST CORRECTED VISUAL ACUITY,OVERALL EVALUATION,2014-04-26,WEEK 10 (T),8.1,70,19,19,19,Visual Acuity Score,VACSCORE,,RIGHT,EYE,71,ETDRS EYE CHART,,,,PRE-DOSE,-0.5
569,CDISCPILOT01,OE,01-701-1130,49,OPHTHALMIC ASSESSMENTS,SD-OCT CST SINGLE FORM,2014-05-16,WEEK 12,9,84,13,13,13,Center Subfield Thickness,CSUBTH,CENTER SUBFIELD THICKNESS,LEFT,RETINA,91,SD-OCT,um,um,,PRE-DOSE,-0.5
570,CDISCPILOT01,OE,01-701-1130,50,OPHTHALMIC ASSESSMENTS,SD-OCT CST SINGLE FORM,2014-05-16,WEEK 12,9,84,108,108,108,Center Subfield Thickness,CSUBTH,CENTER SUBFIELD THICKNESS,RIGHT,RETINA,91,SD-OCT,um,um,,PRE-DOSE,-0.5
571,CDISCPILOT01,OE,01-701-1130,51,OPHTHALMIC ASSESSMENTS,FORM FOR CFP EVALUATION FOR 7M/4W,2014-05-16,WEEK 12,9,84,6,6,6,Diabetic Retinopathy Sev Recode Value,DRSSR,DIABETIC RETINOPATHY SEVERITY LEVEL RECODE VALUE (ETDRS SCALE),LEFT,RETINA,91,COLOR FUNDUS PHOTOGRAPH,,,,PRE-DOSE,-0.5
572,CDISCPILOT01,OE,01-701-1130,52,OPHTHALMIC ASSESSMENTS,FORM FOR CFP EVALUATION FOR 7M/4W,2014-05-16,WEEK 12,9,84,3,3,3,Diabetic Retinopathy Sev Recode Value,DRSSR,DIABETIC RETINOPATHY SEVERITY LEVEL RECODE VALUE (ETDRS SCALE),RIGHT,RETINA,91,COLOR FUNDUS PHOTOGRAPH,,,,PRE-DOSE,-0.5
573,CDISCPILOT01,OE,01-701-1130,53,INTRAOCULAR PRESSURE,,2014-05-16,WEEK 12,9,84,18,18,18,Intraocular Pressure,IOP,,LEFT,EYE,91,APPLANATION TONOMETRY,mmHg,mmHg,,PRE-DOSE,-0.5
574,CDISCPILOT01,OE,01-701-1130,54,INTRAOCULAR PRESSURE,,2014-05-16,WEEK 12,9,84,,,,Intraocular Pressure,IOP,,RIGHT,EYE,91,APPLANATION TONOMETRY,,,NOT DONE,PRE-DOSE,-0.5
575,CDISCPILOT01,OE,01-701-1130,55,BEST CORRECTED VISUAL ACUITY,OVERALL EVALUATION,2014-05-16,WEEK 12,9,84,56,56,56,Visual Acuity Score,VACSCORE,,LEFT,EYE,91,ETDRS EYE CHART,,,,PRE-DOSE,-0.5
576,CDISCPILOT01,OE,01-701-1130,56,BEST CORRECTED VISUAL ACUITY,OVERALL EVALUATION,2014-05-16,WEEK 12,9,84,74,74,74,Visual Acuity Score,VACSCORE,,RIGHT,EYE,91,ETDRS EYE CHART,,,,PRE-DOSE,-0.5
577,CDISCPILOT01,OE,01-701-1130,57,OPHTHALMIC ASSESSMENTS,SD-OCT CST SINGLE FORM,2014-06-07,WEEK 16,10,112,52,52,52,Center Subfield Thickness,CSUBTH,CENTER SUBFIELD THICKNESS,LEFT,RETINA,113,SD-OCT,um,um,,PRE-DOSE,-0.5
578,CDISCPILOT01,OE,01-701-1130,58,OPHTHALMIC ASSESSMENTS,SD-OCT CST SINGLE FORM,2014-06-07,WEEK 16,10,112,413,413,413,Center Subfield Thickness,CSUBTH,CENTER SUBFIELD THICKNESS,RIGHT,RETINA,113,SD-OCT,um,um,,PRE-DOSE,-0.5
579,CDISCPILOT01,OE,01-701-1130,59,OPHTHALMIC ASSESSMENTS,FORM FOR CFP EVALUATION FOR 7M/4W,2014-06-07,WEEK 16,10,112,5,5,5,Diabetic Retinopathy Sev Recode Value,DRSSR,DIABETIC RETINOPATHY SEVERITY LEVEL RECODE VALUE (ETDRS SCALE),LEFT,RETINA,113,COLOR FUNDUS PHOTOGRAPH,,,,PRE-DOSE,-0.5
580,CDISCPILOT01,OE,01-701-1130,60,OPHTHALMIC ASSESSMENTS,FORM FOR CFP EVALUATION FOR 7M/4W,2014-06-07,WEEK 16,10,112,3,3,3,Diabetic Retinopathy Sev Recode Value,DRSSR,DIABETIC RETINOPATHY SEVERITY LEVEL RECODE VALUE (ETDRS SCALE),RIGHT,RETINA,113,COLOR FUNDUS PHOTOGRAPH,,,,PRE-DOSE,-0.5
581,CDISCPILOT01,OE,01-701-1130,61,INTRAOCULAR PRESSURE,,2014-06-07,WEEK 16,10,112,18,18,18,Intraocular Pressure,IOP,,LEFT,EYE,113,APPLANATION TONOMETRY,mmHg,mmHg,,PRE-DOSE,-0.5
582,CDISCPILOT01,OE,01-701-1130,62,INTRAOCULAR PRESSURE,,2014-06-07,WEEK 16,10,112,5,5,5,Intraocular Pressure,IOP,,RIGHT,EYE,113,APPLANATION TONOMETRY,mmHg,mmHg,,PRE-DOSE,-0.5
583,CDISCPILOT01,OE,01-701-1130,63,BEST CORRECTED VISUAL ACUITY,OVERALL EVALUATION,2014-06-07,WEEK 16,10,112,25,25,25,Visual Acuity Score,VACSCORE,,LEFT,EYE,113,ETDRS EYE CHART,,,,PRE-DOSE,-0.5
584,CDISCPILOT01,OE,01-701-1130,64,BEST CORRECTED VISUAL ACUITY,OVERALL EVALUATION,2014-06-07,WEEK 16,10,112,42,42,42,Visual Acuity Score,VACSCORE,,RIGHT,EYE,113,ETDRS EYE CHART,,,,PRE-DOSE,-0.5
585,CDISCPILOT01,OE,01-701-1130,65,OPHTHALMIC ASSESSMENTS,SD-OCT CST SINGLE FORM,2014-07-02,WEEK 20,11,140,421,421,421,Center Subfield Thickness,CSUBTH,CENTER SUBFIELD THICKNESS,LEFT,RETINA,138,SD-OCT,um,um,,PRE-DOSE,-0.5
586,CDISCPILOT01,OE,01-701-1130,66,OPHTHALMIC ASSESSMENTS,SD-OCT CST SINGLE FORM,2014-07-02,WEEK 20,11,140,85,85,85,Center Subfield Thickness,CSUBTH,CENTER SUBFIELD THICKNESS,RIGHT,RETINA,138,SD-OCT,um,um,,PRE-DOSE,-0.5
587,CDISCPILOT01,OE,01-701-1130,67,OPHTHALMIC ASSESSMENTS,FORM FOR CFP EVALUATION FOR 7M/4W,2014-07-02,WEEK 20,11,140,6,6,6,Diabetic Retinopathy Sev Recode Value,DRSSR,DIABETIC RETINOPATHY SEVERITY LEVEL RECODE VALUE (ETDRS SCALE),LEFT,RETINA,138,COLOR FUNDUS PHOTOGRAPH,,,,PRE-DOSE,-0.5
588,CDISCPILOT01,OE,01-701-1130,68,OPHTHALMIC ASSESSMENTS,FORM FOR CFP EVALUATION FOR 7M/4W,2014-07-02,WEEK 20,11,140,3,3,3,Diabetic Retinopathy Sev Recode Value,DRSSR,DIABETIC RETINOPATHY SEVERITY LEVEL RECODE VALUE (ETDRS SCALE),RIGHT,RETINA,138,COLOR FUNDUS PHOTOGRAPH,,,,PRE-DOSE,-0.5
589,CDISCPILOT01,OE,01-701-1130,69,INTRAOCULAR PRESSURE,,2014-07-02,WEEK 20,11,140,27,27,27,Intraocular Pressure,IOP,,LEFT,EYE,138,APPLANATION TONOMETRY,mmHg,mmHg,,PRE-DOSE,-0.5
590,CDISCPILOT01,OE,01-701-1130,70,INTRAOCULAR PRESSURE,,2014-07-02,WEEK 20,11,140,27,27,27,Intraocular Pressure,IOP,,RIGHT,EYE,138,APPLANATION TONOMETRY,mmHg,mmHg,,PRE-DOSE,-0.5
591,CDISCPILOT01,OE,01-701-1130,71,BEST CORRECTED VISUAL ACUITY,OVERALL EVALUATION,2014-07-02,WEEK 20,11,140,63,63,63,Visual Acuity Score,VACSCORE,,LEFT,EYE,138,ETDRS EYE CHART,,,,PRE-DOSE,-0.5
592,CDISCPILOT01,OE,01-701-1130,72,BEST CORRECTED VISUAL ACUITY,OVERALL EVALUATION,2014-07-02,WEEK 20,11,140,76,76,76,Visual Acuity Score,VACSCORE,,RIGHT,EYE,138,ETDRS EYE CHART,,,,PRE-DOSE,-0.5
593,CDISCPILOT01,OE,01-701-1130,73,OPHTHALMIC ASSESSMENTS,SD-OCT CST SINGLE FORM,2014-08-02,WEEK 24,12,168,361,361,361,Center Subfield Thickness,CSUBTH,CENTER SUBFIELD THICKNESS,LEFT,RETINA,169,SD-OCT,um,um,,PRE-DOSE,-0.5
594,CDISCPILOT01,OE,01-701-1130,74,OPHTHALMIC ASSESSMENTS,SD-OCT CST SINGLE FORM,2014-08-02,WEEK 24,12,168,64,64,64,Center Subfield Thickness,CSUBTH,CENTER SUBFIELD THICKNESS,RIGHT,RETINA,169,SD-OCT,um,um,,PRE-DOSE,-0.5
595,CDISCPILOT01,OE,01-701-1130,75,OPHTHALMIC ASSESSMENTS,FORM FOR CFP EVALUATION FOR 7M/4W,2014-08-02,WEEK 24,12,168,7,7,7,Diabetic Retinopathy Sev Recode Value,DRSSR,DIABETIC RETINOPATHY SEVERITY LEVEL RECODE VALUE (ETDRS SCALE),LEFT,RETINA,169,COLOR FUNDUS PHOTOGRAPH,,,,PRE-DOSE,-0.5
596,CDISCPILOT01,OE,01-701-1130,76,OPHTHALMIC ASSESSMENTS,FORM FOR CFP EVALUATION FOR 7M/4W,2014-08-02,WEEK 24,12,168,9,9,9,Diabetic Retinopathy Sev Recode Value,DRSSR,DIABETIC RETINOPATHY SEVERITY LEVEL RECODE VALUE (ETDRS SCALE),RIGHT,RETINA,169,COLOR FUNDUS PHOTOGRAPH,,,,PRE-DOSE,-0.5
597,CDISCPILOT01,OE,01-701-1130,77,INTRAOCULAR PRESSURE,,2014-08-02,WEEK 24,12,168,26,26,26,Intraocular Pressure,IOP,,LEFT,EYE,169,APPLANATION TONOMETRY,mmHg,mmHg,,PRE-DOSE,-0.5
598,CDISCPILOT01,OE,01-701-1130,78,INTRAOCULAR PRESSURE,,2014-08-02,WEEK 24,12,168,17,17,17,Intraocular Pressure,IOP,,RIGHT,EYE,169,APPLANATION TONOMETRY,mmHg,mmHg,,PRE-DOSE,-0.5
599,CDISCPILOT01,OE,01-701-1130,79,BEST CORRECTED VISUAL ACUITY,OVERALL EVALUATION,2014-08-02,WEEK 24,12,168,38,38,38,Visual Acuity Score,VACSCORE,,LEFT,EYE,169,ETDRS EYE CHART,,,,PRE-DOSE,-0.5
600,CDISCPILOT01,OE,01-701-1130,80,BEST CORRECTED VISUAL ACUITY,OVERALL EVALUATION,2014-08-02,WEEK 24,12,168,94,94,94,Visual Acuity Score,VACSCORE,,RIGHT,EYE,169,ETDRS EYE CHART,,,,PRE-DOSE,-0.5
601,CDISCPILOT01,OE,01-701-1133,1,OPHTHALMIC ASSESSMENTS,SD-OCT CST SINGLE FORM,2012-10-23,SCREENING 1,1,-7,392,392,392,Center Subfield Thickness,CSUBTH,CENTER SUBFIELD THICKNESS,LEFT,RETINA,-5,SD-OCT,um,um,,PRE-DOSE,-0.5
602,CDISCPILOT01,OE,01-701-1133,2,OPHTHALMIC ASSESSMENTS,SD-OCT CST SINGLE FORM,2012-10-23,SCREENING 1,1,-7,189,189,189,Center Subfield Thickness,CSUBTH,CENTER SUBFIELD THICKNESS,RIGHT,RETINA,-5,SD-OCT,um,um,,PRE-DOSE,-0.5
603,CDISCPILOT01,OE,01-701-1133,3,OPHTHALMIC ASSESSMENTS,FORM FOR CFP EVALUATION FOR 7M/4W,2012-10-23,SCREENING 1,1,-7,2,2,2,Diabetic Retinopathy Sev Recode Value,DRSSR,DIABETIC RETINOPATHY SEVERITY LEVEL RECODE VALUE (ETDRS SCALE),LEFT,RETINA,-5,COLOR FUNDUS PHOTOGRAPH,,,,PRE-DOSE,-0.5
604,CDISCPILOT01,OE,01-701-1133,4,OPHTHALMIC ASSESSMENTS,FORM FOR CFP EVALUATION FOR 7M/4W,2012-10-23,SCREENING 1,1,-7,8,8,8,Diabetic Retinopathy Sev Recode Value,DRSSR,DIABETIC RETINOPATHY SEVERITY LEVEL RECODE VALUE (ETDRS SCALE),RIGHT,RETINA,-5,COLOR FUNDUS PHOTOGRAPH,,,,PRE-DOSE,-0.5
605,CDISCPILOT01,OE,01-701-1133,5,INTRAOCULAR PRESSURE,,2012-10-23,SCREENING 1,1,-7,10,10,10,Intraocular Pressure,IOP,,LEFT,EYE,-5,APPLANATION TONOMETRY,mmHg,mmHg,,PRE-DOSE,-0.5
606,CDISCPILOT01,OE,01-701-1133,6,INTRAOCULAR PRESSURE,,2012-10-23,SCREENING 1,1,-7,27,27,27,Intraocular Pressure,IOP,,RIGHT,EYE,-5,APPLANATION TONOMETRY,mmHg,mmHg,,PRE-DOSE,-0.5
607,CDISCPILOT01,OE,01-701-1133,7,BEST CORRECTED VISUAL ACUITY,OVERALL EVALUATION,2012-10-23,SCREENING 1,1,-7,28,28,28,Visual Acuity Score,VACSCORE,,LEFT,EYE,-5,ETDRS EYE CHART,,,,PRE-DOSE,-0.5
608,CDISCPILOT01,OE,01-701-1133,8,BEST CORRECTED VISUAL ACUITY,OVERALL EVALUATION,2012-10-23,SCREENING 1,1,-7,64,64,64,Visual Acuity Score,VACSCORE,,RIGHT,EYE,-5,ETDRS EYE CHART,,,,PRE-DOSE,-0.5
609,CDISCPILOT01,OE,01-701-1133,9,OPHTHALMIC ASSESSMENTS,SD-OCT CST SINGLE FORM,2012-10-28,BASELINE,3,1,237,237,237,Center Subfield Thickness,CSUBTH,CENTER SUBFIELD THICKNESS,LEFT,RETINA,1,SD-OCT,um,um,,PRE-DOSE,-0.5
610,CDISCPILOT01,OE,01-701-1133,10,OPHTHALMIC ASSESSMENTS,SD-OCT CST SINGLE FORM,2012-10-28,BASELINE,3,1,244,244,244,Center Subfield Thickness,CSUBTH,CENTER SUBFIELD THICKNESS,RIGHT,RETINA,1,SD-OCT,um,um,,PRE-DOSE,-0.5
611,CDISCPILOT01,OE,01-701-1133,11,OPHTHALMIC ASSESSMENTS,FORM FOR CFP EVALUATION FOR 7M/4W,2012-10-28,BASELINE,3,1,9,9,9,Diabetic Retinopathy Sev Recode Value,DRSSR,DIABETIC RETINOPATHY SEVERITY LEVEL RECODE VALUE (ETDRS SCALE),LEFT,RETINA,1,COLOR FUNDUS PHOTOGRAPH,,,,PRE-DOSE,-0.5
612,CDISCPILOT01,OE,01-701-1133,12,OPHTHALMIC ASSESSMENTS,FORM FOR CFP EVALUATION FOR 7M/4W,2012-10-28,BASELINE,3,1,7,7,7,Diabetic Retinopathy Sev Recode Value,DRSSR,DIABETIC RETINOPATHY SEVERITY LEVEL RECODE VALUE (ETDRS SCALE),RIGHT,RETINA,1,COLOR FUNDUS PHOTOGRAPH,,,,PRE-DOSE,-0.5
613,CDISCPILOT01,OE,01-701-1133,13,INTRAOCULAR PRESSURE,,2012-10-28,BASELINE,3,1,17,17,17,Intraocular Pressure,IOP,,LEFT,EYE,1,APPLANATION TONOMETRY,mmHg,mmHg,,PRE-DOSE,-0.5
614,CDISCPILOT01,OE,01-701-1133,14,INTRAOCULAR PRESSURE,,2012-10-28,BASELINE,3,1,17,17,17,Intraocular Pressure,IOP,,RIGHT,EYE,1,APPLANATION TONOMETRY,mmHg,mmHg,,PRE-DOSE,-0.5
615,CDISCPILOT01,OE,01-701-1133,15,BEST CORRECTED VISUAL ACUITY,OVERALL EVALUATION,2012-10-28,BASELINE,3,1,64,64,64,Visual Acuity Score,VACSCORE,,LEFT,EYE,1,ETDRS EYE CHART,,,,PRE-DOSE,-0.5
616,CDISCPILOT01,OE,01-701-1133,16,BEST CORRECTED VISUAL ACUITY,OVERALL EVALUATION,2012-10-28,BASELINE,3,1,18,18,18,Visual Acuity Score,VACSCORE,,RIGHT,EYE,1,ETDRS EYE CHART,,,,PRE-DOSE,-0.5
617,CDISCPILOT01,OE,01-701-1133,17,OPHTHALMIC ASSESSMENTS,SD-OCT CST SINGLE FORM,2012-11-26,WEEK 4,5,28,158,158,158,Center Subfield Thickness,CSUBTH,CENTER SUBFIELD THICKNESS,LEFT,RETINA,30,SD-OCT,um,um,,PRE-DOSE,-0.5
618,CDISCPILOT01,OE,01-701-1133,18,OPHTHALMIC ASSESSMENTS,SD-OCT CST SINGLE FORM,2012-11-26,WEEK 4,5,28,179,179,179,Center Subfield Thickness,CSUBTH,CENTER SUBFIELD THICKNESS,RIGHT,RETINA,30,SD-OCT,um,um,,PRE-DOSE,-0.5
619,CDISCPILOT01,OE,01-701-1133,19,OPHTHALMIC ASSESSMENTS,FORM FOR CFP EVALUATION FOR 7M/4W,2012-11-26,WEEK 4,5,28,5,5,5,Diabetic Retinopathy Sev Recode Value,DRSSR,DIABETIC RETINOPATHY SEVERITY LEVEL RECODE VALUE (ETDRS SCALE),LEFT,RETINA,30,COLOR FUNDUS PHOTOGRAPH,,,,PRE-DOSE,-0.5
620,CDISCPILOT01,OE,01-701-1133,20,OPHTHALMIC ASSESSMENTS,FORM FOR CFP EVALUATION FOR 7M/4W,2012-11-26,WEEK 4,5,28,12,12,12,Diabetic Retinopathy Sev Recode Value,DRSSR,DIABETIC RETINOPATHY SEVERITY LEVEL RECODE VALUE (ETDRS SCALE),RIGHT,RETINA,30,COLOR FUNDUS PHOTOGRAPH,,,,PRE-DOSE,-0.5
621,CDISCPILOT01,OE,01-701-1133,21,INTRAOCULAR PRESSURE,,2012-11-26,WEEK 4,5,28,20,20,20,Intraocular Pressure,IOP,,LEFT,EYE,30,APPLANATION TONOMETRY,mmHg,mmHg,,PRE-DOSE,-0.5
622,CDISCPILOT01,OE,01-701-1133,22,INTRAOCULAR PRESSURE,,2012-11-26,WEEK 4,5,28,12,12,12,Intraocular Pressure,IOP,,RIGHT,EYE,30,APPLANATION TONOMETRY,mmHg,mmHg,,PRE-DOSE,-0.5
623,CDISCPILOT01,OE,01-701-1133,23,BEST CORRECTED VISUAL ACUITY,OVERALL EVALUATION,2012-11-26,WEEK 4,5,28,32,32,32,Visual Acuity Score,VACSCORE,,LEFT,EYE,30,ETDRS EYE CHART,,,,PRE-DOSE,-0.5
624,CDISCPILOT01,OE,01-701-1133,24,BEST CORRECTED VISUAL ACUITY,OVERALL EVALUATION,2012-11-26,WEEK 4,5,28,40,40,40,Visual Acuity Score,VACSCORE,,RIGHT,EYE,30,ETDRS EYE CHART,,,,PRE-DOSE,-0.5
625,CDISCPILOT01,OE,01-701-1133,25,OPHTHALMIC ASSESSMENTS,SD-OCT CST SINGLE FORM,2012-12-11,WEEK 6,7,42,23,23,23,Center Subfield Thickness,CSUBTH,CENTER SUBFIELD THICKNESS,LEFT,RETINA,45,SD-OCT,um,um,,PRE-DOSE,-0.5
626,CDISCPILOT01,OE,01-701-1133,26,OPHTHALMIC ASSESSMENTS,SD-OCT CST SINGLE FORM,2012-12-11,WEEK 6,7,42,49,49,49,Center Subfield Thickness,CSUBTH,CENTER SUBFIELD THICKNESS,RIGHT,RETINA,45,SD-OCT,um,um,,PRE-DOSE,-0.5
627,CDISCPILOT01,OE,01-701-1133,27,OPHTHALMIC ASSESSMENTS,FORM FOR CFP EVALUATION FOR 7M/4W,2012-12-11,WEEK 6,7,42,5,5,5,Diabetic Retinopathy Sev Recode Value,DRSSR,DIABETIC RETINOPATHY SEVERITY LEVEL RECODE VALUE (ETDRS SCALE),LEFT,RETINA,45,COLOR FUNDUS PHOTOGRAPH,,,,PRE-DOSE,-0.5
628,CDISCPILOT01,OE,01-701-1133,28,OPHTHALMIC ASSESSMENTS,FORM FOR CFP EVALUATION FOR 7M/4W,2012-12-11,WEEK 6,7,42,4,4,4,Diabetic Retinopathy Sev Recode Value,DRSSR,DIABETIC RETINOPATHY SEVERITY LEVEL RECODE VALUE (ETDRS SCALE),RIGHT,RETINA,45,COLOR FUNDUS PHOTOGRAPH,,,,PRE-DOSE,-0.5
629,CDISCPILOT01,OE,01-701-1133,29,INTRAOCULAR PRESSURE,,2012-12-11,WEEK 6,7,42,7,7,7,Intraocular Pressure,IOP,,LEFT,EYE,45,APPLANATION TONOMETRY,mmHg,mmHg,,PRE-DOSE,-0.5
630,CDISCPILOT01,OE,01-701-1133,30,INTRAOCULAR PRESSURE,,2012-12-11,WEEK 6,7,42,20,20,20,Intraocular Pressure,IOP,,RIGHT,EYE,45,APPLANATION TONOMETRY,mmHg,mmHg,,PRE-DOSE,-0.5
631,CDISCPILOT01,OE,01-701-1133,31,BEST CORRECTED VISUAL ACUITY,OVERALL EVALUATION,2012-12-11,WEEK 6,7,42,74,74,74,Visual Acuity Score,VACSCORE,,LEFT,EYE,45,ETDRS EYE CHART,,,,PRE-DOSE,-0.5
632,CDISCPILOT01,OE,01-701-1133,32,BEST CORRECTED VISUAL ACUITY,OVERALL EVALUATION,2012-12-11,WEEK 6,7,42,68,68,68,Visual Acuity Score,VACSCORE,,RIGHT,EYE,45,ETDRS EYE CHART,,,,PRE-DOSE,-0.5
633,CDISCPILOT01,OE,01-701-1133,33,OPHTHALMIC ASSESSMENTS,SD-OCT CST SINGLE FORM,2012-12-24,WEEK 8,8,56,267,267,267,Center Subfield Thickness,CSUBTH,CENTER SUBFIELD THICKNESS,LEFT,RETINA,58,SD-OCT,um,um,,PRE-DOSE,-0.5
634,CDISCPILOT01,OE,01-701-1133,34,OPHTHALMIC ASSESSMENTS,SD-OCT CST SINGLE FORM,2012-12-24,WEEK 8,8,56,296,296,296,Center Subfield Thickness,CSUBTH,CENTER SUBFIELD THICKNESS,RIGHT,RETINA,58,SD-OCT,um,um,,PRE-DOSE,-0.5
635,CDISCPILOT01,OE,01-701-1133,35,OPHTHALMIC ASSESSMENTS,FORM FOR CFP EVALUATION FOR 7M/4W,2012-12-24,WEEK 8,8,56,8,8,8,Diabetic Retinopathy Sev Recode Value,DRSSR,DIABETIC RETINOPATHY SEVERITY LEVEL RECODE VALUE (ETDRS SCALE),LEFT,RETINA,58,COLOR FUNDUS PHOTOGRAPH,,,,PRE-DOSE,-0.5
636,CDISCPILOT01,OE,01-701-1133,36,OPHTHALMIC ASSESSMENTS,FORM FOR CFP EVALUATION FOR 7M/4W,2012-12-24,WEEK 8,8,56,10,10,10,Diabetic Retinopathy Sev Recode Value,DRSSR,DIABETIC RETINOPATHY SEVERITY LEVEL RECODE VALUE (ETDRS SCALE),RIGHT,RETINA,58,COLOR FUNDUS PHOTOGRAPH,,,,PRE-DOSE,-0.5
637,CDISCPILOT01,OE,01-701-1133,37,INTRAOCULAR PRESSURE,,2012-12-24,WEEK 8,8,56,12,12,12,Intraocular Pressure,IOP,,LEFT,EYE,58,APPLANATION TONOMETRY,mmHg,mmHg,,PRE-DOSE,-0.5
638,CDISCPILOT01,OE,01-701-1133,38,INTRAOCULAR PRESSURE,,2012-12-24,WEEK 8,8,56,18,18,18,Intraocular Pressure,IOP,,RIGHT,EYE,58,APPLANATION TONOMETRY,mmHg,mmHg,,PRE-DOSE,-0.5
639,CDISCPILOT01,OE,01-701-1133,39,BEST CORRECTED VISUAL ACUITY,OVERALL EVALUATION,2012-12-24,WEEK 8,8,56,94,94,94,Visual Acuity Score,VACSCORE,,LEFT,EYE,58,ETDRS EYE CHART,,,,PRE-DOSE,-0.5
640,CDISCPILOT01,OE,01-701-1133,40,BEST CORRECTED VISUAL ACUITY,OVERALL EVALUATION,2012-12-24,WEEK 8,8,56,96,96,96,Visual Acuity Score,VACSCORE,,RIGHT,EYE,58,ETDRS EYE CHART,,,,PRE-DOSE,-0.5
641,CDISCPILOT01,OE,01-701-1133,41,OPHTHALMIC ASSESSMENTS,SD-OCT CST SINGLE FORM,2013-01-07,WEEK 10 (T),8.1,70,426,426,426,Center Subfield Thickness,CSUBTH,CENTER SUBFIELD THICKNESS,LEFT,RETINA,72,SD-OCT,um,um,,PRE-DOSE,-0.5
642,CDISCPILOT01,OE,01-701-1133,42,OPHTHALMIC ASSESSMENTS,SD-OCT CST SINGLE FORM,2013-01-07,WEEK 10 (T),8.1,70,87,87,87,Center Subfield Thickness,CSUBTH,CENTER SUBFIELD THICKNESS,RIGHT,RETINA,72,SD-OCT,um,um,,PRE-DOSE,-0.5
643,CDISCPILOT01,OE,01-701-1133,43,OPHTHALMIC ASSESSMENTS,FORM FOR CFP EVALUATION FOR 7M/4W,2013-01-07,WEEK 10 (T),8.1,70,6,6,6,Diabetic Retinopathy Sev Recode Value,DRSSR,DIABETIC RETINOPATHY SEVERITY LEVEL RECODE VALUE (ETDRS SCALE),LEFT,RETINA,72,COLOR FUNDUS PHOTOGRAPH,,,,PRE-DOSE,-0.5
644,CDISCPILOT01,OE,01-701-1133,44,OPHTHALMIC ASSESSMENTS,FORM FOR CFP EVALUATION FOR 7M/4W,2013-01-07,WEEK 10 (T),8.1,70,7,7,7,Diabetic Retinopathy Sev Recode Value,DRSSR,DIABETIC RETINOPATHY SEVERITY LEVEL RECODE VALUE (ETDRS SCALE),RIGHT,RETINA,72,COLOR FUNDUS PHOTOGRAPH,,,,PRE-DOSE,-0.5
645,CDISCPILOT01,OE,01-701-1133,45,INTRAOCULAR PRESSURE,,2013-01-07,WEEK 10 (T),8.1,70,26,26,26,Intraocular Pressure,IOP,,LEFT,EYE,72,APPLANATION TONOMETRY,mmHg,mmHg,,PRE-DOSE,-0.5
646,CDISCPILOT01,OE,01-701-1133,46,INTRAOCULAR PRESSURE,,2013-01-07,WEEK 10 (T),8.1,70,26,26,26,Intraocular Pressure,IOP,,RIGHT,EYE,72,APPLANATION TONOMETRY,mmHg,mmHg,,PRE-DOSE,-0.5
647,CDISCPILOT01,OE,01-701-1133,47,BEST CORRECTED VISUAL ACUITY,OVERALL EVALUATION,2013-01-07,WEEK 10 (T),8.1,70,34,34,34,Visual Acuity Score,VACSCORE,,LEFT,EYE,72,ETDRS EYE CHART,,,,PRE-DOSE,-0.5
648,CDISCPILOT01,OE,01-701-1133,48,BEST CORRECTED VISUAL ACUITY,OVERALL EVALUATION,2013-01-07,WEEK 10 (T),8.1,70,18,18,18,Visual Acuity Score,VACSCORE,,RIGHT,EYE,72,ETDRS EYE CHART,,,,PRE-DOSE,-0.5
649,CDISCPILOT01,OE,01-701-1133,49,OPHTHALMIC ASSESSMENTS,SD-OCT CST SINGLE FORM,2013-01-22,WEEK 12,9,84,278,278,278,Center Subfield Thickness,CSUBTH,CENTER SUBFIELD THICKNESS,LEFT,RETINA,87,SD-OCT,um,um,,PRE-DOSE,-0.5
650,CDISCPILOT01,OE,01-701-1133,50,OPHTHALMIC ASSESSMENTS,SD-OCT CST SINGLE FORM,2013-01-22,WEEK 12,9,84,104,104,104,Center Subfield Thickness,CSUBTH,CENTER SUBFIELD THICKNESS,RIGHT,RETINA,87,SD-OCT,um,um,,PRE-DOSE,-0.5
651,CDISCPILOT01,OE,01-701-1133,51,OPHTHALMIC ASSESSMENTS,FORM FOR CFP EVALUATION FOR 7M/4W,2013-01-22,WEEK 12,9,84,7,7,7,Diabetic Retinopathy Sev Recode Value,DRSSR,DIABETIC RETINOPATHY SEVERITY LEVEL RECODE VALUE (ETDRS SCALE),LEFT,RETINA,87,COLOR FUNDUS PHOTOGRAPH,,,,PRE-DOSE,-0.5
652,CDISCPILOT01,OE,01-701-1133,52,OPHTHALMIC ASSESSMENTS,FORM FOR CFP EVALUATION FOR 7M/4W,2013-01-22,WEEK 12,9,84,12,12,12,Diabetic Retinopathy Sev Recode Value,DRSSR,DIABETIC RETINOPATHY SEVERITY LEVEL RECODE VALUE (ETDRS SCALE),RIGHT,RETINA,87,COLOR FUNDUS PHOTOGRAPH,,,,PRE-DOSE,-0.5
653,CDISCPILOT01,OE,01-701-1133,53,INTRAOCULAR PRESSURE,,2013-01-22,WEEK 12,9,84,20,20,20,Intraocular Pressure,IOP,,LEFT,EYE,87,APPLANATION TONOMETRY,mmHg,mmHg,,PRE-DOSE,-0.5
654,CDISCPILOT01,OE,01-701-1133,54,INTRAOCULAR PRESSURE,,2013-01-22,WEEK 12,9,84,14,14,14,Intraocular Pressure,IOP,,RIGHT,EYE,87,APPLANATION TONOMETRY,mmHg,mmHg,,PRE-DOSE,-0.5
655,CDISCPILOT01,OE,01-701-1133,55,BEST CORRECTED VISUAL ACUITY,OVERALL EVALUATION,2013-01-22,WEEK 12,9,84,44,44,44,Visual Acuity Score,VACSCORE,,LEFT,EYE,87,ETDRS EYE CHART,,,,PRE-DOSE,-0.5
656,CDISCPILOT01,OE,01-701-1133,56,BEST CORRECTED VISUAL ACUITY,OVERALL EVALUATION,2013-01-22,WEEK 12,9,84,93,93,93,Visual Acuity Score,VACSCORE,,RIGHT,EYE,87,ETDRS EYE CHART,,,,PRE-DOSE,-0.5
657,CDISCPILOT01,OE,01-701-1133,57,OPHTHALMIC ASSESSMENTS,SD-OCT CST SINGLE FORM,2013-02-18,WEEK 16,10,112,134,134,134,Center Subfield Thickness,CSUBTH,CENTER SUBFIELD THICKNESS,LEFT,RETINA,114,SD-OCT,um,um,,PRE-DOSE,-0.5
658,CDISCPILOT01,OE,01-701-1133,58,OPHTHALMIC ASSESSMENTS,SD-OCT CST SINGLE FORM,2013-02-18,WEEK 16,10,112,361,361,361,Center Subfield Thickness,CSUBTH,CENTER SUBFIELD THICKNESS,RIGHT,RETINA,114,SD-OCT,um,um,,PRE-DOSE,-0.5
659,CDISCPILOT01,OE,01-701-1133,59,OPHTHALMIC ASSESSMENTS,FORM FOR CFP EVALUATION FOR 7M/4W,2013-02-18,WEEK 16,10,112,7,7,7,Diabetic Retinopathy Sev Recode Value,DRSSR,DIABETIC RETINOPATHY SEVERITY LEVEL RECODE VALUE (ETDRS SCALE),LEFT,RETINA,114,COLOR FUNDUS PHOTOGRAPH,,,,PRE-DOSE,-0.5
660,CDISCPILOT01,OE,01-701-1133,60,OPHTHALMIC ASSESSMENTS,FORM FOR CFP EVALUATION FOR 7M/4W,2013-02-18,WEEK 16,10,112,4,4,4,Diabetic Retinopathy Sev Recode Value,DRSSR,DIABETIC RETINOPATHY SEVERITY LEVEL RECODE VALUE (ETDRS SCALE),RIGHT,RETINA,114,COLOR FUNDUS PHOTOGRAPH,,,,PRE-DOSE,-0.5
661,CDISCPILOT01,OE,01-701-1133,61,INTRAOCULAR PRESSURE,,2013-02-18,WEEK 16,10,112,13,13,13,Intraocular Pressure,IOP,,LEFT,EYE,114,APPLANATION TONOMETRY,mmHg,mmHg,,PRE-DOSE,-0.5
662,CDISCPILOT01,OE,01-701-1133,62,INTRAOCULAR PRESSURE,,2013-02-18,WEEK 16,10,112,11,11,11,Intraocular Pressure,IOP,,RIGHT,EYE,114,APPLANATION TONOMETRY,mmHg,mmHg,,PRE-DOSE,-0.5
663,CDISCPILOT01,OE,01-701-1133,63,BEST CORRECTED VISUAL ACUITY,OVERALL EVALUATION,2013-02-18,WEEK 16,10,112,31,31,31,Visual Acuity Score,VACSCORE,,LEFT,EYE,114,ETDRS EYE CHART,,,,PRE-DOSE,-0.5
664,CDISCPILOT01,OE,01-701-1133,64,BEST CORRECTED VISUAL ACUITY,OVERALL EVALUATION,2013-02-18,WEEK 16,10,112,17,17,17,Visual Acuity Score,VACSCORE,,RIGHT,EYE,114,ETDRS EYE CHART,,,,PRE-DOSE,-0.5
665,CDISCPILOT01,OE,01-701-1133,65,OPHTHALMIC ASSESSMENTS,SD-OCT CST SINGLE FORM,2013-03-18,WEEK 20,11,140,266,266,266,Center Subfield Thickness,CSUBTH,CENTER SUBFIELD THICKNESS,LEFT,RETINA,142,SD-OCT,um,um,,PRE-DOSE,-0.5
666,CDISCPILOT01,OE,01-701-1133,66,OPHTHALMIC ASSESSMENTS,SD-OCT CST SINGLE FORM,2013-03-18,WEEK 20,11,140,140,140,140,Center Subfield Thickness,CSUBTH,CENTER SUBFIELD THICKNESS,RIGHT,RETINA,142,SD-OCT,um,um,,PRE-DOSE,-0.5
667,CDISCPILOT01,OE,01-701-1133,67,OPHTHALMIC ASSESSMENTS,FORM FOR CFP EVALUATION FOR 7M/4W,2013-03-18,WEEK 20,11,140,8,8,8,Diabetic Retinopathy Sev Recode Value,DRSSR,DIABETIC RETINOPATHY SEVERITY LEVEL RECODE VALUE (ETDRS SCALE),LEFT,RETINA,142,COLOR FUNDUS PHOTOGRAPH,,,,PRE-DOSE,-0.5
668,CDISCPILOT01,OE,01-701-1133,68,OPHTHALMIC ASSESSMENTS,FORM FOR CFP EVALUATION FOR 7M/4W,2013-03-18,WEEK 20,11,140,2,2,2,Diabetic Retinopathy Sev Recode Value,DRSSR,DIABETIC RETINOPATHY SEVERITY LEVEL RECODE VALUE (ETDRS SCALE),RIGHT,RETINA,142,COLOR FUNDUS PHOTOGRAPH,,,,PRE-DOSE,-0.5
669,CDISCPILOT01,OE,01-701-1133,69,INTRAOCULAR PRESSURE,,2013-03-18,WEEK 20,11,140,28,28,28,Intraocular Pressure,IOP,,LEFT,EYE,142,APPLANATION TONOMETRY,mmHg,mmHg,,PRE-DOSE,-0.5
670,CDISCPILOT01,OE,01-701-1133,70,INTRAOCULAR PRESSURE,,2013-03-18,WEEK 20,11,140,20,20,20,Intraocular Pressure,IOP,,RIGHT,EYE,142,APPLANATION TONOMETRY,mmHg,mmHg,,PRE-DOSE,-0.5
671,CDISCPILOT01,OE,01-701-1133,71,BEST CORRECTED VISUAL ACUITY,OVERALL EVALUATION,2013-03-18,WEEK 20,11,140,39,39,39,Visual Acuity Score,VACSCORE,,LEFT,EYE,142,ETDRS EYE CHART,,,,PRE-DOSE,-0.5
672,CDISCPILOT01,OE,01-701-1133,72,BEST CORRECTED VISUAL ACUITY,OVERALL EVALUATION,2013-03-18,WEEK 20,11,140,87,87,87,Visual Acuity Score,VACSCORE,,RIGHT,EYE,142,ETDRS EYE CHART,,,,PRE-DOSE,-0.5
673,CDISCPILOT01,OE,01-701-1133,73,OPHTHALMIC ASSESSMENTS,SD-OCT CST SINGLE FORM,2013-04-18,WEEK 24,12,168,41,41,41,Center Subfield Thickness,CSUBTH,CENTER SUBFIELD THICKNESS,LEFT,RETINA,173,SD-OCT,um,um,,PRE-DOSE,-0.5
674,CDISCPILOT01,OE,01-701-1133,74,OPHTHALMIC ASSESSMENTS,SD-OCT CST SINGLE FORM,2013-04-18,WEEK 24,12,168,408,408,408,Center Subfield Thickness,CSUBTH,CENTER SUBFIELD THICKNESS,RIGHT,RETINA,173,SD-OCT,um,um,,PRE-DOSE,-0.5
675,CDISCPILOT01,OE,01-701-1133,75,OPHTHALMIC ASSESSMENTS,FORM FOR CFP EVALUATION FOR 7M/4W,2013-04-18,WEEK 24,12,168,5,5,5,Diabetic Retinopathy Sev Recode Value,DRSSR,DIABETIC RETINOPATHY SEVERITY LEVEL RECODE VALUE (ETDRS SCALE),LEFT,RETINA,173,COLOR FUNDUS PHOTOGRAPH,,,,PRE-DOSE,-0.5
676,CDISCPILOT01,OE,01-701-1133,76,OPHTHALMIC ASSESSMENTS,FORM FOR CFP EVALUATION FOR 7M/4W,2013-04-18,WEEK 24,12,168,9,9,9,Diabetic Retinopathy Sev Recode Value,DRSSR,DIABETIC RETINOPATHY SEVERITY LEVEL RECODE VALUE (ETDRS SCALE),RIGHT,RETINA,173,COLOR FUNDUS PHOTOGRAPH,,,,PRE-DOSE,-0.5
677,CDISCPILOT01,OE,01-701-1133,77,INTRAOCULAR PRESSURE,,2013-04-18,WEEK 24,12,168,12,12,12,Intraocular Pressure,IOP,,LEFT,EYE,173,APPLANATION TONOMETRY,mmHg,mmHg,,PRE-DOSE,-0.5
678,CDISCPILOT01,OE,01-701-1133,78,INTRAOCULAR PRESSURE,,2013-04-18,WEEK 24,12,168,30,30,30,Intraocular Pressure,IOP,,RIGHT,EYE,173,APPLANATION TONOMETRY,mmHg,mmHg,,PRE-DOSE,-0.5
679,CDISCPILOT01,OE,01-701-1133,79,BEST CORRECTED VISUAL ACUITY,OVERALL EVALUATION,2013-04-18,WEEK 24,12,168,53,53,53,Visual Acuity Score,VACSCORE,,LEFT,EYE,173,ETDRS EYE CHART,,,,PRE-DOSE,-0.5
680,CDISCPILOT01,OE,01-701-1133,80,BEST CORRECTED VISUAL ACUITY,OVERALL EVALUATION,2013-04-18,WEEK 24,12,168,32,32,32,Visual Acuity Score,VACSCORE,,RIGHT,EYE,173,ETDRS EYE CHART,,,,PRE-DOSE,-0.5
681,CDISCPILOT01,OE,01-701-1145,1,OPHTHALMIC ASSESSMENTS,SD-OCT CST SINGLE FORM,2013-09-05,SCREENING 1,1,-7,289,289,289,Center Subfield Thickness,CSUBTH,CENTER SUBFIELD THICKNESS,LEFT,RETINA,,SD-OCT,um,um,,PRE-DOSE,-0.5
682,CDISCPILOT01,OE,01-701-1145,2,OPHTHALMIC ASSESSMENTS,SD-OCT CST SINGLE FORM,2013-09-05,SCREENING 1,1,-7,466,466,466,Center Subfield Thickness,CSUBTH,CENTER SUBFIELD THICKNESS,RIGHT,RETINA,,SD-OCT,um,um,,PRE-DOSE,-0.5
683,CDISCPILOT01,OE,01-701-1145,3,OPHTHALMIC ASSESSMENTS,FORM FOR CFP EVALUATION FOR 7M/4W,2013-09-05,SCREENING 1,1,-7,3,3,3,Diabetic Retinopathy Sev Recode Value,DRSSR,DIABETIC RETINOPATHY SEVERITY LEVEL RECODE VALUE (ETDRS SCALE),LEFT,RETINA,,COLOR FUNDUS PHOTOGRAPH,,,,PRE-DOSE,-0.5
684,CDISCPILOT01,OE,01-701-1145,4,OPHTHALMIC ASSESSMENTS,FORM FOR CFP EVALUATION FOR 7M/4W,2013-09-05,SCREENING 1,1,-7,1,1,1,Diabetic Retinopathy Sev Recode Value,DRSSR,DIABETIC RETINOPATHY SEVERITY LEVEL RECODE VALUE (ETDRS SCALE),RIGHT,RETINA,,COLOR FUNDUS PHOTOGRAPH,,,,PRE-DOSE,-0.5
685,CDISCPILOT01,OE,01-701-1145,5,INTRAOCULAR PRESSURE,,2013-09-05,SCREENING 1,1,-7,17,17,17,Intraocular Pressure,IOP,,LEFT,EYE,,APPLANATION TONOMETRY,mmHg,mmHg,,PRE-DOSE,-0.5
686,CDISCPILOT01,OE,01-701-1145,6,INTRAOCULAR PRESSURE,,2013-09-05,SCREENING 1,1,-7,17,17,17,Intraocular Pressure,IOP,,RIGHT,EYE,,APPLANATION TONOMETRY,mmHg,mmHg,,PRE-DOSE,-0.5
687,CDISCPILOT01,OE,01-701-1145,7,BEST CORRECTED VISUAL ACUITY,OVERALL EVALUATION,2013-09-05,SCREENING 1,1,-7,90,90,90,Visual Acuity Score,VACSCORE,,LEFT,EYE,,ETDRS EYE CHART,,,,PRE-DOSE,-0.5
688,CDISCPILOT01,OE,01-701-1145,8,BEST CORRECTED VISUAL ACUITY,OVERALL EVALUATION,2013-09-05,SCREENING 1,1,-7,18,18,18,Visual Acuity Score,VACSCORE,,RIGHT,EYE,,ETDRS EYE CHART,,,,PRE-DOSE,-0.5
689,CDISCPILOT01,OE,01-701-1146,1,OPHTHALMIC ASSESSMENTS,SD-OCT CST SINGLE FORM,2013-05-07,SCREENING 1,1,-7,21,21,21,Center Subfield Thickness,CSUBTH,CENTER SUBFIELD THICKNESS,LEFT,RETINA,-13,SD-OCT,um,um,,PRE-DOSE,-0.5
690,CDISCPILOT01,OE,01-701-1146,2,OPHTHALMIC ASSESSMENTS,SD-OCT CST SINGLE FORM,2013-05-07,SCREENING 1,1,-7,448,448,448,Center Subfield Thickness,CSUBTH,CENTER SUBFIELD THICKNESS,RIGHT,RETINA,-13,SD-OCT,um,um,,PRE-DOSE,-0.5
691,CDISCPILOT01,OE,01-701-1146,3,OPHTHALMIC ASSESSMENTS,FORM FOR CFP EVALUATION FOR 7M/4W,2013-05-07,SCREENING 1,1,-7,9,9,9,Diabetic Retinopathy Sev Recode Value,DRSSR,DIABETIC RETINOPATHY SEVERITY LEVEL RECODE VALUE (ETDRS SCALE),LEFT,RETINA,-13,COLOR FUNDUS PHOTOGRAPH,,,,PRE-DOSE,-0.5
692,CDISCPILOT01,OE,01-701-1146,4,OPHTHALMIC ASSESSMENTS,FORM FOR CFP EVALUATION FOR 7M/4W,2013-05-07,SCREENING 1,1,-7,8,8,8,Diabetic Retinopathy Sev Recode Value,DRSSR,DIABETIC RETINOPATHY SEVERITY LEVEL RECODE VALUE (ETDRS SCALE),RIGHT,RETINA,-13,COLOR FUNDUS PHOTOGRAPH,,,,PRE-DOSE,-0.5
693,CDISCPILOT01,OE,01-701-1146,5,INTRAOCULAR PRESSURE,,2013-05-07,SCREENING 1,1,-7,17,17,17,Intraocular Pressure,IOP,,LEFT,EYE,-13,APPLANATION TONOMETRY,mmHg,mmHg,,PRE-DOSE,-0.5
694,CDISCPILOT01,OE,01-701-1146,6,INTRAOCULAR PRESSURE,,2013-05-07,SCREENING 1,1,-7,24,24,24,Intraocular Pressure,IOP,,RIGHT,EYE,-13,APPLANATION TONOMETRY,mmHg,mmHg,,PRE-DOSE,-0.5
695,CDISCPILOT01,OE,01-701-1146,7,BEST CORRECTED VISUAL ACUITY,OVERALL EVALUATION,2013-05-07,SCREENING 1,1,-7,69,69,69,Visual Acuity Score,VACSCORE,,LEFT,EYE,-13,ETDRS EYE CHART,,,,PRE-DOSE,-0.5
696,CDISCPILOT01,OE,01-701-1146,8,BEST CORRECTED VISUAL ACUITY,OVERALL EVALUATION,2013-05-07,SCREENING 1,1,-7,19,19,19,Visual Acuity Score,VACSCORE,,RIGHT,EYE,-13,ETDRS EYE CHART,,,,PRE-DOSE,-0.5
697,CDISCPILOT01,OE,01-701-1146,9,OPHTHALMIC ASSESSMENTS,SD-OCT CST SINGLE FORM,2013-05-20,BASELINE,3,1,195,195,195,Center Subfield Thickness,CSUBTH,CENTER SUBFIELD THICKNESS,LEFT,RETINA,1,SD-OCT,um,um,,PRE-DOSE,-0.5
698,CDISCPILOT01,OE,01-701-1146,10,OPHTHALMIC ASSESSMENTS,SD-OCT CST SINGLE FORM,2013-05-20,BASELINE,3,1,402,402,402,Center Subfield Thickness,CSUBTH,CENTER SUBFIELD THICKNESS,RIGHT,RETINA,1,SD-OCT,um,um,,PRE-DOSE,-0.5
699,CDISCPILOT01,OE,01-701-1146,11,OPHTHALMIC ASSESSMENTS,FORM FOR CFP EVALUATION FOR 7M/4W,2013-05-20,BASELINE,3,1,7,7,7,Diabetic Retinopathy Sev Recode Value,DRSSR,DIABETIC RETINOPATHY SEVERITY LEVEL RECODE VALUE (ETDRS SCALE),LEFT,RETINA,1,COLOR FUNDUS PHOTOGRAPH,,,,PRE-DOSE,-0.5
700,CDISCPILOT01,OE,01-701-1146,12,OPHTHALMIC ASSESSMENTS,FORM FOR CFP EVALUATION FOR 7M/4W,2013-05-20,BASELINE,3,1,6,6,6,Diabetic Retinopathy Sev Recode Value,DRSSR,DIABETIC RETINOPATHY SEVERITY LEVEL RECODE VALUE (ETDRS SCALE),RIGHT,RETINA,1,COLOR FUNDUS PHOTOGRAPH,,,,PRE-DOSE,-0.5
701,CDISCPILOT01,OE,01-701-1146,13,INTRAOCULAR PRESSURE,,2013-05-20,BASELINE,3,1,25,25,25,Intraocular Pressure,IOP,,LEFT,EYE,1,APPLANATION TONOMETRY,mmHg,mmHg,,PRE-DOSE,-0.5
702,CDISCPILOT01,OE,01-701-1146,14,INTRAOCULAR PRESSURE,,2013-05-20,BASELINE,3,1,13,13,13,Intraocular Pressure,IOP,,RIGHT,EYE,1,APPLANATION TONOMETRY,mmHg,mmHg,,PRE-DOSE,-0.5
703,CDISCPILOT01,OE,01-701-1146,15,BEST CORRECTED VISUAL ACUITY,OVERALL EVALUATION,2013-05-20,BASELINE,3,1,15,15,15,Visual Acuity Score,VACSCORE,,LEFT,EYE,1,ETDRS EYE CHART,,,,PRE-DOSE,-0.5
704,CDISCPILOT01,OE,01-701-1146,16,BEST CORRECTED VISUAL ACUITY,OVERALL EVALUATION,2013-05-20,BASELINE,3,1,1,1,1,Visual Acuity Score,VACSCORE,,RIGHT,EYE,1,ETDRS EYE CHART,,,,PRE-DOSE,-0.5
705,CDISCPILOT01,OE,01-701-1146,17,OPHTHALMIC ASSESSMENTS,SD-OCT CST SINGLE FORM,2013-06-16,WEEK 4,5,28,56,56,56,Center Subfield Thickness,CSUBTH,CENTER SUBFIELD THICKNESS,LEFT,RETINA,28,SD-OCT,um,um,,PRE-DOSE,-0.5
706,CDISCPILOT01,OE,01-701-1146,18,OPHTHALMIC ASSESSMENTS,SD-OCT CST SINGLE FORM,2013-06-16,WEEK 4,5,28,449,449,449,Center Subfield Thickness,CSUBTH,CENTER SUBFIELD THICKNESS,RIGHT,RETINA,28,SD-OCT,um,um,,PRE-DOSE,-0.5
707,CDISCPILOT01,OE,01-701-1146,19,OPHTHALMIC ASSESSMENTS,FORM FOR CFP EVALUATION FOR 7M/4W,2013-06-16,WEEK 4,5,28,6,6,6,Diabetic Retinopathy Sev Recode Value,DRSSR,DIABETIC RETINOPATHY SEVERITY LEVEL RECODE VALUE (ETDRS SCALE),LEFT,RETINA,28,COLOR FUNDUS PHOTOGRAPH,,,,PRE-DOSE,-0.5
708,CDISCPILOT01,OE,01-701-1146,20,OPHTHALMIC ASSESSMENTS,FORM FOR CFP EVALUATION FOR 7M/4W,2013-06-16,WEEK 4,5,28,6,6,6,Diabetic Retinopathy Sev Recode Value,DRSSR,DIABETIC RETINOPATHY SEVERITY LEVEL RECODE VALUE (ETDRS SCALE),RIGHT,RETINA,28,COLOR FUNDUS PHOTOGRAPH,,,,PRE-DOSE,-0.5
709,CDISCPILOT01,OE,01-701-1146,21,INTRAOCULAR PRESSURE,,2013-06-16,WEEK 4,5,28,10,10,10,Intraocular Pressure,IOP,,LEFT,EYE,28,APPLANATION TONOMETRY,mmHg,mmHg,,PRE-DOSE,-0.5
710,CDISCPILOT01,OE,01-701-1146,22,INTRAOCULAR PRESSURE,,2013-06-16,WEEK 4,5,28,28,28,28,Intraocular Pressure,IOP,,RIGHT,EYE,28,APPLANATION TONOMETRY,mmHg,mmHg,,PRE-DOSE,-0.5
711,CDISCPILOT01,OE,01-701-1146,23,BEST CORRECTED VISUAL ACUITY,OVERALL EVALUATION,2013-06-16,WEEK 4,5,28,56,56,56,Visual Acuity Score,VACSCORE,,LEFT,EYE,28,ETDRS EYE CHART,,,,PRE-DOSE,-0.5
712,CDISCPILOT01,OE,01-701-1146,24,BEST CORRECTED VISUAL ACUITY,OVERALL EVALUATION,2013-06-16,WEEK 4,5,28,61,61,61,Visual Acuity Score,VACSCORE,,RIGHT,EYE,28,ETDRS EYE CHART,,,,PRE-DOSE,-0.5
713,CDISCPILOT01,OE,01-701-1146,25,OPHTHALMIC ASSESSMENTS,SD-OCT CST SINGLE FORM,2013-06-30,WEEK 6,7,42,494,494,494,Center Subfield Thickness,CSUBTH,CENTER SUBFIELD THICKNESS,LEFT,RETINA,42,SD-OCT,um,um,,PRE-DOSE,-0.5
714,CDISCPILOT01,OE,01-701-1146,26,OPHTHALMIC ASSESSMENTS,SD-OCT CST SINGLE FORM,2013-06-30,WEEK 6,7,42,498,498,498,Center Subfield Thickness,CSUBTH,CENTER SUBFIELD THICKNESS,RIGHT,RETINA,42,SD-OCT,um,um,,PRE-DOSE,-0.5
715,CDISCPILOT01,OE,01-701-1146,27,OPHTHALMIC ASSESSMENTS,FORM FOR CFP EVALUATION FOR 7M/4W,2013-06-30,WEEK 6,7,42,12,12,12,Diabetic Retinopathy Sev Recode Value,DRSSR,DIABETIC RETINOPATHY SEVERITY LEVEL RECODE VALUE (ETDRS SCALE),LEFT,RETINA,42,COLOR FUNDUS PHOTOGRAPH,,,,PRE-DOSE,-0.5
716,CDISCPILOT01,OE,01-701-1146,28,OPHTHALMIC ASSESSMENTS,FORM FOR CFP EVALUATION FOR 7M/4W,2013-06-30,WEEK 6,7,42,2,2,2,Diabetic Retinopathy Sev Recode Value,DRSSR,DIABETIC RETINOPATHY SEVERITY LEVEL RECODE VALUE (ETDRS SCALE),RIGHT,RETINA,42,COLOR FUNDUS PHOTOGRAPH,,,,PRE-DOSE,-0.5
717,CDISCPILOT01,OE,01-701-1146,29,INTRAOCULAR PRESSURE,,2013-06-30,WEEK 6,7,42,10,10,10,Intraocular Pressure,IOP,,LEFT,EYE,42,APPLANATION TONOMETRY,mmHg,mmHg,,PRE-DOSE,-0.5
718,CDISCPILOT01,OE,01-701-1146,30,INTRAOCULAR PRESSURE,,2013-06-30,WEEK 6,7,42,8,8,8,Intraocular Pressure,IOP,,RIGHT,EYE,42,APPLANATION TONOMETRY,mmHg,mmHg,,PRE-DOSE,-0.5
719,CDISCPILOT01,OE,01-701-1146,31,BEST CORRECTED VISUAL ACUITY,OVERALL EVALUATION,2013-06-30,WEEK 6,7,42,51,51,51,Visual Acuity Score,VACSCORE,,LEFT,EYE,42,ETDRS EYE CHART,,,,PRE-DOSE,-0.5
720,CDISCPILOT01,OE,01-701-1146,32,BEST CORRECTED VISUAL ACUITY,OVERALL EVALUATION,2013-06-30,WEEK 6,7,42,33,33,33,Visual Acuity Score,VACSCORE,,RIGHT,EYE,42,ETDRS EYE CHART,,,,PRE-DOSE,-0.5
721,CDISCPILOT01,OE,01-701-1148,1,OPHTHALMIC ASSESSMENTS,SD-OCT CST SINGLE FORM,2013-08-14,SCREENING 1,1,-7,473,473,473,Center Subfield Thickness,CSUBTH,CENTER SUBFIELD THICKNESS,LEFT,RETINA,-9,SD-OCT,um,um,,PRE-DOSE,-0.5
722,CDISCPILOT01,OE,01-701-1148,2,OPHTHALMIC ASSESSMENTS,SD-OCT CST SINGLE FORM,2013-08-14,SCREENING 1,1,-7,348,348,348,Center Subfield Thickness,CSUBTH,CENTER SUBFIELD THICKNESS,RIGHT,RETINA,-9,SD-OCT,um,um,,PRE-DOSE,-0.5
723,CDISCPILOT01,OE,01-701-1148,3,OPHTHALMIC ASSESSMENTS,FORM FOR CFP EVALUATION FOR 7M/4W,2013-08-14,SCREENING 1,1,-7,2,2,2,Diabetic Retinopathy Sev Recode Value,DRSSR,DIABETIC RETINOPATHY SEVERITY LEVEL RECODE VALUE (ETDRS SCALE),LEFT,RETINA,-9,COLOR FUNDUS PHOTOGRAPH,,,,PRE-DOSE,-0.5
724,CDISCPILOT01,OE,01-701-1148,4,OPHTHALMIC ASSESSMENTS,FORM FOR CFP EVALUATION FOR 7M/4W,2013-08-14,SCREENING 1,1,-7,10,10,10,Diabetic Retinopathy Sev Recode Value,DRSSR,DIABETIC RETINOPATHY SEVERITY LEVEL RECODE VALUE (ETDRS SCALE),RIGHT,RETINA,-9,COLOR FUNDUS PHOTOGRAPH,,,,PRE-DOSE,-0.5
725,CDISCPILOT01,OE,01-701-1148,5,INTRAOCULAR PRESSURE,,2013-08-14,SCREENING 1,1,-7,17,17,17,Intraocular Pressure,IOP,,LEFT,EYE,-9,APPLANATION TONOMETRY,mmHg,mmHg,,PRE-DOSE,-0.5
726,CDISCPILOT01,OE,01-701-1148,6,INTRAOCULAR PRESSURE,,2013-08-14,SCREENING 1,1,-7,6,6,6,Intraocular Pressure,IOP,,RIGHT,EYE,-9,APPLANATION TONOMETRY,mmHg,mmHg,,PRE-DOSE,-0.5
727,CDISCPILOT01,OE,01-701-1148,7,BEST CORRECTED VISUAL ACUITY,OVERALL EVALUATION,2013-08-14,SCREENING 1,1,-7,22,22,22,Visual Acuity Score,VACSCORE,,LEFT,EYE,-9,ETDRS EYE CHART,,,,PRE-DOSE,-0.5
728,CDISCPILOT01,OE,01-701-1148,8,BEST CORRECTED VISUAL ACUITY,OVERALL EVALUATION,2013-08-14,SCREENING 1,1,-7,86,86,86,Visual Acuity Score,VACSCORE,,RIGHT,EYE,-9,ETDRS EYE CHART,,,,PRE-DOSE,-0.5
729,CDISCPILOT01,OE,01-701-1148,9,OPHTHALMIC ASSESSMENTS,SD-OCT CST SINGLE FORM,2013-08-23,BASELINE,3,1,408,408,408,Center Subfield Thickness,CSUBTH,CENTER SUBFIELD THICKNESS,LEFT,RETINA,1,SD-OCT,um,um,,PRE-DOSE,-0.5
730,CDISCPILOT01,OE,01-701-1148,10,OPHTHALMIC ASSESSMENTS,SD-OCT CST SINGLE FORM,2013-08-23,BASELINE,3,1,1,1,1,Center Subfield Thickness,CSUBTH,CENTER SUBFIELD THICKNESS,RIGHT,RETINA,1,SD-OCT,um,um,,PRE-DOSE,-0.5
731,CDISCPILOT01,OE,01-701-1148,11,OPHTHALMIC ASSESSMENTS,FORM FOR CFP EVALUATION FOR 7M/4W,2013-08-23,BASELINE,3,1,3,3,3,Diabetic Retinopathy Sev Recode Value,DRSSR,DIABETIC RETINOPATHY SEVERITY LEVEL RECODE VALUE (ETDRS SCALE),LEFT,RETINA,1,COLOR FUNDUS PHOTOGRAPH,,,,PRE-DOSE,-0.5
732,CDISCPILOT01,OE,01-701-1148,12,OPHTHALMIC ASSESSMENTS,FORM FOR CFP EVALUATION FOR 7M/4W,2013-08-23,BASELINE,3,1,4,4,4,Diabetic Retinopathy Sev Recode Value,DRSSR,DIABETIC RETINOPATHY SEVERITY LEVEL RECODE VALUE (ETDRS SCALE),RIGHT,RETINA,1,COLOR FUNDUS PHOTOGRAPH,,,,PRE-DOSE,-0.5
733,CDISCPILOT01,OE,01-701-1148,13,INTRAOCULAR PRESSURE,,2013-08-23,BASELINE,3,1,9,9,9,Intraocular Pressure,IOP,,LEFT,EYE,1,APPLANATION TONOMETRY,mmHg,mmHg,,PRE-DOSE,-0.5
734,CDISCPILOT01,OE,01-701-1148,14,INTRAOCULAR PRESSURE,,2013-08-23,BASELINE,3,1,19,19,19,Intraocular Pressure,IOP,,RIGHT,EYE,1,APPLANATION TONOMETRY,mmHg,mmHg,,PRE-DOSE,-0.5
735,CDISCPILOT01,OE,01-701-1148,15,BEST CORRECTED VISUAL ACUITY,OVERALL EVALUATION,2013-08-23,BASELINE,3,1,86,86,86,Visual Acuity Score,VACSCORE,,LEFT,EYE,1,ETDRS EYE CHART,,,,PRE-DOSE,-0.5
736,CDISCPILOT01,OE,01-701-1148,16,BEST CORRECTED VISUAL ACUITY,OVERALL EVALUATION,2013-08-23,BASELINE,3,1,47,47,47,Visual Acuity Score,VACSCORE,,RIGHT,EYE,1,ETDRS EYE CHART,,,,PRE-DOSE,-0.5
737,CDISCPILOT01,OE,01-701-1148,17,OPHTHALMIC ASSESSMENTS,SD-OCT CST SINGLE FORM,2013-09-19,WEEK 4,5,28,402,402,402,Center Subfield Thickness,CSUBTH,CENTER SUBFIELD THICKNESS,LEFT,RETINA,28,SD-OCT,um,um,,PRE-DOSE,-0.5
738,CDISCPILOT01,OE,01-701-1148,18,OPHTHALMIC ASSESSMENTS,SD-OCT CST SINGLE FORM,2013-09-19,WEEK 4,5,28,465,465,465,Center Subfield Thickness,CSUBTH,CENTER SUBFIELD THICKNESS,RIGHT,RETINA,28,SD-OCT,um,um,,PRE-DOSE,-0.5
739,CDISCPILOT01,OE,01-701-1148,19,OPHTHALMIC ASSESSMENTS,FORM FOR CFP EVALUATION FOR 7M/4W,2013-09-19,WEEK 4,5,28,6,6,6,Diabetic Retinopathy Sev Recode Value,DRSSR,DIABETIC RETINOPATHY SEVERITY LEVEL RECODE VALUE (ETDRS SCALE),LEFT,RETINA,28,COLOR FUNDUS PHOTOGRAPH,,,,PRE-DOSE,-0.5
740,CDISCPILOT01,OE,01-701-1148,20,OPHTHALMIC ASSESSMENTS,FORM FOR CFP EVALUATION FOR 7M/4W,2013-09-19,WEEK 4,5,28,7,7,7,Diabetic Retinopathy Sev Recode Value,DRSSR,DIABETIC RETINOPATHY SEVERITY LEVEL RECODE VALUE (ETDRS SCALE),RIGHT,RETINA,28,COLOR FUNDUS PHOTOGRAPH,,,,PRE-DOSE,-0.5
741,CDISCPILOT01,OE,01-701-1148,21,INTRAOCULAR PRESSURE,,2013-09-19,WEEK 4,5,28,15,15,15,Intraocular Pressure,IOP,,LEFT,EYE,28,APPLANATION TONOMETRY,mmHg,mmHg,,PRE-DOSE,-0.5
742,CDISCPILOT01,OE,01-701-1148,22,INTRAOCULAR PRESSURE,,2013-09-19,WEEK 4,5,28,17,17,17,Intraocular Pressure,IOP,,RIGHT,EYE,28,APPLANATION TONOMETRY,mmHg,mmHg,,PRE-DOSE,-0.5
743,CDISCPILOT01,OE,01-701-1148,23,BEST CORRECTED VISUAL ACUITY,OVERALL EVALUATION,2013-09-19,WEEK 4,5,28,59,59,59,Visual Acuity Score,VACSCORE,,LEFT,EYE,28,ETDRS EYE CHART,,,,PRE-DOSE,-0.5
744,CDISCPILOT01,OE,01-701-1148,24,BEST CORRECTED VISUAL ACUITY,OVERALL EVALUATION,2013-09-19,WEEK 4,5,28,31,31,31,Visual Acuity Score,VACSCORE,,RIGHT,EYE,28,ETDRS EYE CHART,,,,PRE-DOSE,-0.5
745,CDISCPILOT01,OE,01-701-1148,25,OPHTHALMIC ASSESSMENTS,SD-OCT CST SINGLE FORM,2013-10-03,WEEK 6,7,42,61,61,61,Center Subfield Thickness,CSUBTH,CENTER SUBFIELD THICKNESS,LEFT,RETINA,42,SD-OCT,um,um,,PRE-DOSE,-0.5
746,CDISCPILOT01,OE,01-701-1148,26,OPHTHALMIC ASSESSMENTS,SD-OCT CST SINGLE FORM,2013-10-03,WEEK 6,7,42,184,184,184,Center Subfield Thickness,CSUBTH,CENTER SUBFIELD THICKNESS,RIGHT,RETINA,42,SD-OCT,um,um,,PRE-DOSE,-0.5
747,CDISCPILOT01,OE,01-701-1148,27,OPHTHALMIC ASSESSMENTS,FORM FOR CFP EVALUATION FOR 7M/4W,2013-10-03,WEEK 6,7,42,4,4,4,Diabetic Retinopathy Sev Recode Value,DRSSR,DIABETIC RETINOPATHY SEVERITY LEVEL RECODE VALUE (ETDRS SCALE),LEFT,RETINA,42,COLOR FUNDUS PHOTOGRAPH,,,,PRE-DOSE,-0.5
748,CDISCPILOT01,OE,01-701-1148,28,OPHTHALMIC ASSESSMENTS,FORM FOR CFP EVALUATION FOR 7M/4W,2013-10-03,WEEK 6,7,42,6,6,6,Diabetic Retinopathy Sev Recode Value,DRSSR,DIABETIC RETINOPATHY SEVERITY LEVEL RECODE VALUE (ETDRS SCALE),RIGHT,RETINA,42,COLOR FUNDUS PHOTOGRAPH,,,,PRE-DOSE,-0.5
749,CDISCPILOT01,OE,01-701-1148,29,INTRAOCULAR PRESSURE,,2013-10-03,WEEK 6,7,42,26,26,26,Intraocular Pressure,IOP,,LEFT,EYE,42,APPLANATION TONOMETRY,mmHg,mmHg,,PRE-DOSE,-0.5
750,CDISCPILOT01,OE,01-701-1148,30,INTRAOCULAR PRESSURE,,2013-10-03,WEEK 6,7,42,30,30,30,Intraocular Pressure,IOP,,RIGHT,EYE,42,APPLANATION TONOMETRY,mmHg,mmHg,,PRE-DOSE,-0.5
751,CDISCPILOT01,OE,01-701-1148,31,BEST CORRECTED VISUAL ACUITY,OVERALL EVALUATION,2013-10-03,WEEK 6,7,42,17,17,17,Visual Acuity Score,VACSCORE,,LEFT,EYE,42,ETDRS EYE CHART,,,,PRE-DOSE,-0.5
752,CDISCPILOT01,OE,01-701-1148,32,BEST CORRECTED VISUAL ACUITY,OVERALL EVALUATION,2013-10-03,WEEK 6,7,42,21,21,21,Visual Acuity Score,VACSCORE,,RIGHT,EYE,42,ETDRS EYE CHART,,,,PRE-DOSE,-0.5
753,CDISCPILOT01,OE,01-701-1148,33,OPHTHALMIC ASSESSMENTS,SD-OCT CST SINGLE FORM,2013-10-18,WEEK 8,8,56,208,208,208,Center Subfield Thickness,CSUBTH,CENTER SUBFIELD THICKNESS,LEFT,RETINA,57,SD-OCT,um,um,,PRE-DOSE,-0.5
754,CDISCPILOT01,OE,01-701-1148,34,OPHTHALMIC ASSESSMENTS,SD-OCT CST SINGLE FORM,2013-10-18,WEEK 8,8,56,324,324,324,Center Subfield Thickness,CSUBTH,CENTER SUBFIELD THICKNESS,RIGHT,RETINA,57,SD-OCT,um,um,,PRE-DOSE,-0.5
755,CDISCPILOT01,OE,01-701-1148,35,OPHTHALMIC ASSESSMENTS,FORM FOR CFP EVALUATION FOR 7M/4W,2013-10-18,WEEK 8,8,56,10,10,10,Diabetic Retinopathy Sev Recode Value,DRSSR,DIABETIC RETINOPATHY SEVERITY LEVEL RECODE VALUE (ETDRS SCALE),LEFT,RETINA,57,COLOR FUNDUS PHOTOGRAPH,,,,PRE-DOSE,-0.5
756,CDISCPILOT01,OE,01-701-1148,36,OPHTHALMIC ASSESSMENTS,FORM FOR CFP EVALUATION FOR 7M/4W,2013-10-18,WEEK 8,8,56,1,1,1,Diabetic Retinopathy Sev Recode Value,DRSSR,DIABETIC RETINOPATHY SEVERITY LEVEL RECODE VALUE (ETDRS SCALE),RIGHT,RETINA,57,COLOR FUNDUS PHOTOGRAPH,,,,PRE-DOSE,-0.5
757,CDISCPILOT01,OE,01-701-1148,37,INTRAOCULAR PRESSURE,,2013-10-18,WEEK 8,8,56,26,26,26,Intraocular Pressure,IOP,,LEFT,EYE,57,APPLANATION TONOMETRY,mmHg,mmHg,,PRE-DOSE,-0.5
758,CDISCPILOT01,OE,01-701-1148,38,INTRAOCULAR PRESSURE,,2013-10-18,WEEK 8,8,56,27,27,27,Intraocular Pressure,IOP,,RIGHT,EYE,57,APPLANATION TONOMETRY,mmHg,mmHg,,PRE-DOSE,-0.5
759,CDISCPILOT01,OE,01-701-1148,39,BEST CORRECTED VISUAL ACUITY,OVERALL EVALUATION,2013-10-18,WEEK 8,8,56,76,76,76,Visual Acuity Score,VACSCORE,,LEFT,EYE,57,ETDRS EYE CHART,,,,PRE-DOSE,-0.5
760,CDISCPILOT01,OE,01-701-1148,40,BEST CORRECTED VISUAL ACUITY,OVERALL EVALUATION,2013-10-18,WEEK 8,8,56,87,87,87,Visual Acuity Score,VACSCORE,,RIGHT,EYE,57,ETDRS EYE CHART,,,,PRE-DOSE,-0.5
761,CDISCPILOT01,OE,01-701-1148,41,OPHTHALMIC ASSESSMENTS,SD-OCT CST SINGLE FORM,2013-11-01,WEEK 10 (T),8.1,70,45,45,45,Center Subfield Thickness,CSUBTH,CENTER SUBFIELD THICKNESS,LEFT,RETINA,71,SD-OCT,um,um,,PRE-DOSE,-0.5
762,CDISCPILOT01,OE,01-701-1148,42,OPHTHALMIC ASSESSMENTS,SD-OCT CST SINGLE FORM,2013-11-01,WEEK 10 (T),8.1,70,439,439,439,Center Subfield Thickness,CSUBTH,CENTER SUBFIELD THICKNESS,RIGHT,RETINA,71,SD-OCT,um,um,,PRE-DOSE,-0.5
763,CDISCPILOT01,OE,01-701-1148,43,OPHTHALMIC ASSESSMENTS,FORM FOR CFP EVALUATION FOR 7M/4W,2013-11-01,WEEK 10 (T),8.1,70,10,10,10,Diabetic Retinopathy Sev Recode Value,DRSSR,DIABETIC RETINOPATHY SEVERITY LEVEL RECODE VALUE (ETDRS SCALE),LEFT,RETINA,71,COLOR FUNDUS PHOTOGRAPH,,,,PRE-DOSE,-0.5
764,CDISCPILOT01,OE,01-701-1148,44,OPHTHALMIC ASSESSMENTS,FORM FOR CFP EVALUATION FOR 7M/4W,2013-11-01,WEEK 10 (T),8.1,70,10,10,10,Diabetic Retinopathy Sev Recode Value,DRSSR,DIABETIC RETINOPATHY SEVERITY LEVEL RECODE VALUE (ETDRS SCALE),RIGHT,RETINA,71,COLOR FUNDUS PHOTOGRAPH,,,,PRE-DOSE,-0.5
765,CDISCPILOT01,OE,01-701-1148,45,INTRAOCULAR PRESSURE,,2013-11-01,WEEK 10 (T),8.1,70,28,28,28,Intraocular Pressure,IOP,,LEFT,EYE,71,APPLANATION TONOMETRY,mmHg,mmHg,,PRE-DOSE,-0.5
766,CDISCPILOT01,OE,01-701-1148,46,INTRAOCULAR PRESSURE,,2013-11-01,WEEK 10 (T),8.1,70,20,20,20,Intraocular Pressure,IOP,,RIGHT,EYE,71,APPLANATION TONOMETRY,mmHg,mmHg,,PRE-DOSE,-0.5
767,CDISCPILOT01,OE,01-701-1148,47,BEST CORRECTED VISUAL ACUITY,OVERALL EVALUATION,2013-11-01,WEEK 10 (T),8.1,70,82,82,82,Visual Acuity Score,VACSCORE,,LEFT,EYE,71,ETDRS EYE CHART,,,,PRE-DOSE,-0.5
768,CDISCPILOT01,OE,01-701-1148,48,BEST CORRECTED VISUAL ACUITY,OVERALL EVALUATION,2013-11-01,WEEK 10 (T),8.1,70,100,100,100,Visual Acuity Score,VACSCORE,,RIGHT,EYE,71,ETDRS EYE CHART,,,,PRE-DOSE,-0.5
769,CDISCPILOT01,OE,01-701-1148,49,OPHTHALMIC ASSESSMENTS,SD-OCT CST SINGLE FORM,2013-11-17,WEEK 12,9,84,17,17,17,Center Subfield Thickness,CSUBTH,CENTER SUBFIELD THICKNESS,LEFT,RETINA,87,SD-OCT,um,um,,PRE-DOSE,-0.5
770,CDISCPILOT01,OE,01-701-1148,50,OPHTHALMIC ASSESSMENTS,SD-OCT CST SINGLE FORM,2013-11-17,WEEK 12,9,84,34,34,34,Center Subfield Thickness,CSUBTH,CENTER SUBFIELD THICKNESS,RIGHT,RETINA,87,SD-OCT,um,um,,PRE-DOSE,-0.5
771,CDISCPILOT01,OE,01-701-1148,51,OPHTHALMIC ASSESSMENTS,FORM FOR CFP EVALUATION FOR 7M/4W,2013-11-17,WEEK 12,9,84,4,4,4,Diabetic Retinopathy Sev Recode Value,DRSSR,DIABETIC RETINOPATHY SEVERITY LEVEL RECODE VALUE (ETDRS SCALE),LEFT,RETINA,87,COLOR FUNDUS PHOTOGRAPH,,,,PRE-DOSE,-0.5
772,CDISCPILOT01,OE,01-701-1148,52,OPHTHALMIC ASSESSMENTS,FORM FOR CFP EVALUATION FOR 7M/4W,2013-11-17,WEEK 12,9,84,9,9,9,Diabetic Retinopathy Sev Recode Value,DRSSR,DIABETIC RETINOPATHY SEVERITY LEVEL RECODE VALUE (ETDRS SCALE),RIGHT,RETINA,87,COLOR FUNDUS PHOTOGRAPH,,,,PRE-DOSE,-0.5
773,CDISCPILOT01,OE,01-701-1148,53,INTRAOCULAR PRESSURE,,2013-11-17,WEEK 12,9,84,17,17,17,Intraocular Pressure,IOP,,LEFT,EYE,87,APPLANATION TONOMETRY,mmHg,mmHg,,PRE-DOSE,-0.5
774,CDISCPILOT01,OE,01-701-1148,54,INTRAOCULAR PRESSURE,,2013-11-17,WEEK 12,9,84,13,13,13,Intraocular Pressure,IOP,,RIGHT,EYE,87,APPLANATION TONOMETRY,mmHg,mmHg,,PRE-DOSE,-0.5
775,CDISCPILOT01,OE,01-701-1148,55,BEST CORRECTED VISUAL ACUITY,OVERALL EVALUATION,2013-11-17,WEEK 12,9,84,18,18,18,Visual Acuity Score,VACSCORE,,LEFT,EYE,87,ETDRS EYE CHART,,,,PRE-DOSE,-0.5
776,CDISCPILOT01,OE,01-701-1148,56,BEST CORRECTED VISUAL ACUITY,OVERALL EVALUATION,2013-11-17,WEEK 12,9,84,85,85,85,Visual Acuity Score,VACSCORE,,RIGHT,EYE,87,ETDRS EYE CHART,,,,PRE-DOSE,-0.5
777,CDISCPILOT01,OE,01-701-1148,57,OPHTHALMIC ASSESSMENTS,SD-OCT CST SINGLE FORM,2013-12-13,WEEK 16,10,112,497,497,497,Center Subfield Thickness,CSUBTH,CENTER SUBFIELD THICKNESS,LEFT,RETINA,113,SD-OCT,um,um,,PRE-DOSE,-0.5
778,CDISCPILOT01,OE,01-701-1148,58,OPHTHALMIC ASSESSMENTS,SD-OCT CST SINGLE FORM,2013-12-13,WEEK 16,10,112,450,450,450,Center Subfield Thickness,CSUBTH,CENTER SUBFIELD THICKNESS,RIGHT,RETINA,113,SD-OCT,um,um,,PRE-DOSE,-0.5
779,CDISCPILOT01,OE,01-701-1148,59,OPHTHALMIC ASSESSMENTS,FORM FOR CFP EVALUATION FOR 7M/4W,2013-12-13,WEEK 16,10,112,9,9,9,Diabetic Retinopathy Sev Recode Value,DRSSR,DIABETIC RETINOPATHY SEVERITY LEVEL RECODE VALUE (ETDRS SCALE),LEFT,RETINA,113,COLOR FUNDUS PHOTOGRAPH,,,,PRE-DOSE,-0.5
780,CDISCPILOT01,OE,01-701-1148,60,OPHTHALMIC ASSESSMENTS,FORM FOR CFP EVALUATION FOR 7M/4W,2013-12-13,WEEK 16,10,112,4,4,4,Diabetic Retinopathy Sev Recode Value,DRSSR,DIABETIC RETINOPATHY SEVERITY LEVEL RECODE VALUE (ETDRS SCALE),RIGHT,RETINA,113,COLOR FUNDUS PHOTOGRAPH,,,,PRE-DOSE,-0.5
781,CDISCPILOT01,OE,01-701-1148,61,INTRAOCULAR PRESSURE,,2013-12-13,WEEK 16,10,112,29,29,29,Intraocular Pressure,IOP,,LEFT,EYE,113,APPLANATION TONOMETRY,mmHg,mmHg,,PRE-DOSE,-0.5
782,CDISCPILOT01,OE,01-701-1148,62,INTRAOCULAR PRESSURE,,2013-12-13,WEEK 16,10,112,30,30,30,Intraocular Pressure,IOP,,RIGHT,EYE,113,APPLANATION TONOMETRY,mmHg,mmHg,,PRE-DOSE,-0.5
783,CDISCPILOT01,OE,01-701-1148,63,BEST CORRECTED VISUAL ACUITY,OVERALL EVALUATION,2013-12-13,WEEK 16,10,112,19,19,19,Visual Acuity Score,VACSCORE,,LEFT,EYE,113,ETDRS EYE CHART,,,,PRE-DOSE,-0.5
784,CDISCPILOT01,OE,01-701-1148,64,BEST CORRECTED VISUAL ACUITY,OVERALL EVALUATION,2013-12-13,WEEK 16,10,112,22,22,22,Visual Acuity Score,VACSCORE,,RIGHT,EYE,113,ETDRS EYE CHART,,,,PRE-DOSE,-0.5
785,CDISCPILOT01,OE,01-701-1148,65,OPHTHALMIC ASSESSMENTS,SD-OCT CST SINGLE FORM,2014-01-10,WEEK 20,11,140,59,59,59,Center Subfield Thickness,CSUBTH,CENTER SUBFIELD THICKNESS,LEFT,RETINA,141,SD-OCT,um,um,,PRE-DOSE,-0.5
786,CDISCPILOT01,OE,01-701-1148,66,OPHTHALMIC ASSESSMENTS,SD-OCT CST SINGLE FORM,2014-01-10,WEEK 20,11,140,154,154,154,Center Subfield Thickness,CSUBTH,CENTER SUBFIELD THICKNESS,RIGHT,RETINA,141,SD-OCT,um,um,,PRE-DOSE,-0.5
787,CDISCPILOT01,OE,01-701-1148,67,OPHTHALMIC ASSESSMENTS,FORM FOR CFP EVALUATION FOR 7M/4W,2014-01-10,WEEK 20,11,140,1,1,1,Diabetic Retinopathy Sev Recode Value,DRSSR,DIABETIC RETINOPATHY SEVERITY LEVEL RECODE VALUE (ETDRS SCALE),LEFT,RETINA,141,COLOR FUNDUS PHOTOGRAPH,,,,PRE-DOSE,-0.5
788,CDISCPILOT01,OE,01-701-1148,68,OPHTHALMIC ASSESSMENTS,FORM FOR CFP EVALUATION FOR 7M/4W,2014-01-10,WEEK 20,11,140,7,7,7,Diabetic Retinopathy Sev Recode Value,DRSSR,DIABETIC RETINOPATHY SEVERITY LEVEL RECODE VALUE (ETDRS SCALE),RIGHT,RETINA,141,COLOR FUNDUS PHOTOGRAPH,,,,PRE-DOSE,-0.5
789,CDISCPILOT01,OE,01-701-1148,69,INTRAOCULAR PRESSURE,,2014-01-10,WEEK 20,11,140,13,13,13,Intraocular Pressure,IOP,,LEFT,EYE,141,APPLANATION TONOMETRY,mmHg,mmHg,,PRE-DOSE,-0.5
790,CDISCPILOT01,OE,01-701-1148,70,INTRAOCULAR PRESSURE,,2014-01-10,WEEK 20,11,140,29,29,29,Intraocular Pressure,IOP,,RIGHT,EYE,141,APPLANATION TONOMETRY,mmHg,mmHg,,PRE-DOSE,-0.5
791,CDISCPILOT01,OE,01-701-1148,71,BEST CORRECTED VISUAL ACUITY,OVERALL EVALUATION,2014-01-10,WEEK 20,11,140,9,9,9,Visual Acuity Score,VACSCORE,,LEFT,EYE,141,ETDRS EYE CHART,,,,PRE-DOSE,-0.5
792,CDISCPILOT01,OE,01-701-1148,72,BEST CORRECTED VISUAL ACUITY,OVERALL EVALUATION,2014-01-10,WEEK 20,11,140,54,54,54,Visual Acuity Score,VACSCORE,,RIGHT,EYE,141,ETDRS EYE CHART,,,,PRE-DOSE,-0.5
793,CDISCPILOT01,OE,01-701-1148,73,OPHTHALMIC ASSESSMENTS,SD-OCT CST SINGLE FORM,2014-02-08,WEEK 24,12,168,400,400,400,Center Subfield Thickness,CSUBTH,CENTER SUBFIELD THICKNESS,LEFT,RETINA,170,SD-OCT,um,um,,PRE-DOSE,-0.5
794,CDISCPILOT01,OE,01-701-1148,74,OPHTHALMIC ASSESSMENTS,SD-OCT CST SINGLE FORM,2014-02-08,WEEK 24,12,168,250,250,250,Center Subfield Thickness,CSUBTH,CENTER SUBFIELD THICKNESS,RIGHT,RETINA,170,SD-OCT,um,um,,PRE-DOSE,-0.5
795,CDISCPILOT01,OE,01-701-1148,75,OPHTHALMIC ASSESSMENTS,FORM FOR CFP EVALUATION FOR 7M/4W,2014-02-08,WEEK 24,12,168,12,12,12,Diabetic Retinopathy Sev Recode Value,DRSSR,DIABETIC RETINOPATHY SEVERITY LEVEL RECODE VALUE (ETDRS SCALE),LEFT,RETINA,170,COLOR FUNDUS PHOTOGRAPH,,,,PRE-DOSE,-0.5
796,CDISCPILOT01,OE,01-701-1148,76,OPHTHALMIC ASSESSMENTS,FORM FOR CFP EVALUATION FOR 7M/4W,2014-02-08,WEEK 24,12,168,3,3,3,Diabetic Retinopathy Sev Recode Value,DRSSR,DIABETIC RETINOPATHY SEVERITY LEVEL RECODE VALUE (ETDRS SCALE),RIGHT,RETINA,170,COLOR FUNDUS PHOTOGRAPH,,,,PRE-DOSE,-0.5
797,CDISCPILOT01,OE,01-701-1148,77,INTRAOCULAR PRESSURE,,2014-02-08,WEEK 24,12,168,24,24,24,Intraocular Pressure,IOP,,LEFT,EYE,170,APPLANATION TONOMETRY,mmHg,mmHg,,PRE-DOSE,-0.5
798,CDISCPILOT01,OE,01-701-1148,78,INTRAOCULAR PRESSURE,,2014-02-08,WEEK 24,12,168,18,18,18,Intraocular Pressure,IOP,,RIGHT,EYE,170,APPLANATION TONOMETRY,mmHg,mmHg,,PRE-DOSE,-0.5
799,CDISCPILOT01,OE,01-701-1148,79,BEST CORRECTED VISUAL ACUITY,OVERALL EVALUATION,2014-02-08,WEEK 24,12,168,23,23,23,Visual Acuity Score,VACSCORE,,LEFT,EYE,170,ETDRS EYE CHART,,,,PRE-DOSE,-0.5
800,CDISCPILOT01,OE,01-701-1148,80,BEST CORRECTED VISUAL ACUITY,OVERALL EVALUATION,2014-02-08,WEEK 24,12,168,71,71,71,Visual Acuity Score,VACSCORE,,RIGHT,EYE,170,ETDRS EYE CHART,,,,PRE-DOSE,-0.5
801,CDISCPILOT01,OE,01-701-1153,1,OPHTHALMIC ASSESSMENTS,SD-OCT CST SINGLE FORM,2013-09-06,SCREENING 1,1,-7,92,92,92,Center Subfield Thickness,CSUBTH,CENTER SUBFIELD THICKNESS,LEFT,RETINA,-17,SD-OCT,um,um,,PRE-DOSE,-0.5
802,CDISCPILOT01,OE,01-701-1153,2,OPHTHALMIC ASSESSMENTS,SD-OCT CST SINGLE FORM,2013-09-06,SCREENING 1,1,-7,434,434,434,Center Subfield Thickness,CSUBTH,CENTER SUBFIELD THICKNESS,RIGHT,RETINA,-17,SD-OCT,um,um,,PRE-DOSE,-0.5
803,CDISCPILOT01,OE,01-701-1153,3,OPHTHALMIC ASSESSMENTS,FORM FOR CFP EVALUATION FOR 7M/4W,2013-09-06,SCREENING 1,1,-7,2,2,2,Diabetic Retinopathy Sev Recode Value,DRSSR,DIABETIC RETINOPATHY SEVERITY LEVEL RECODE VALUE (ETDRS SCALE),LEFT,RETINA,-17,COLOR FUNDUS PHOTOGRAPH,,,,PRE-DOSE,-0.5
804,CDISCPILOT01,OE,01-701-1153,4,OPHTHALMIC ASSESSMENTS,FORM FOR CFP EVALUATION FOR 7M/4W,2013-09-06,SCREENING 1,1,-7,4,4,4,Diabetic Retinopathy Sev Recode Value,DRSSR,DIABETIC RETINOPATHY SEVERITY LEVEL RECODE VALUE (ETDRS SCALE),RIGHT,RETINA,-17,COLOR FUNDUS PHOTOGRAPH,,,,PRE-DOSE,-0.5
805,CDISCPILOT01,OE,01-701-1153,5,INTRAOCULAR PRESSURE,,2013-09-06,SCREENING 1,1,-7,5,5,5,Intraocular Pressure,IOP,,LEFT,EYE,-17,APPLANATION TONOMETRY,mmHg,mmHg,,PRE-DOSE,-0.5
806,CDISCPILOT01,OE,01-701-1153,6,INTRAOCULAR PRESSURE,,2013-09-06,SCREENING 1,1,-7,18,18,18,Intraocular Pressure,IOP,,RIGHT,EYE,-17,APPLANATION TONOMETRY,mmHg,mmHg,,PRE-DOSE,-0.5
807,CDISCPILOT01,OE,01-701-1153,7,BEST CORRECTED VISUAL ACUITY,OVERALL EVALUATION,2013-09-06,SCREENING 1,1,-7,5,5,5,Visual Acuity Score,VACSCORE,,LEFT,EYE,-17,ETDRS EYE CHART,,,,PRE-DOSE,-0.5
808,CDISCPILOT01,OE,01-701-1153,8,BEST CORRECTED VISUAL ACUITY,OVERALL EVALUATION,2013-09-06,SCREENING 1,1,-7,79,79,79,Visual Acuity Score,VACSCORE,,RIGHT,EYE,-17,ETDRS EYE CHART,,,,PRE-DOSE,-0.5
809,CDISCPILOT01,OE,01-701-1153,9,OPHTHALMIC ASSESSMENTS,SD-OCT CST SINGLE FORM,2013-09-23,BASELINE,3,1,247,247,247,Center Subfield Thickness,CSUBTH,CENTER SUBFIELD THICKNESS,LEFT,RETINA,1,SD-OCT,um,um,,PRE-DOSE,-0.5
810,CDISCPILOT01,OE,01-701-1153,10,OPHTHALMIC ASSESSMENTS,SD-OCT CST SINGLE FORM,2013-09-23,BASELINE,3,1,230,230,230,Center Subfield Thickness,CSUBTH,CENTER SUBFIELD THICKNESS,RIGHT,RETINA,1,SD-OCT,um,um,,PRE-DOSE,-0.5
811,CDISCPILOT01,OE,01-701-1153,11,OPHTHALMIC ASSESSMENTS,FORM FOR CFP EVALUATION FOR 7M/4W,2013-09-23,BASELINE,3,1,10,10,10,Diabetic Retinopathy Sev Recode Value,DRSSR,DIABETIC RETINOPATHY SEVERITY LEVEL RECODE VALUE (ETDRS SCALE),LEFT,RETINA,1,COLOR FUNDUS PHOTOGRAPH,,,,PRE-DOSE,-0.5
812,CDISCPILOT01,OE,01-701-1153,12,OPHTHALMIC ASSESSMENTS,FORM FOR CFP EVALUATION FOR 7M/4W,2013-09-23,BASELINE,3,1,6,6,6,Diabetic Retinopathy Sev Recode Value,DRSSR,DIABETIC RETINOPATHY SEVERITY LEVEL RECODE VALUE (ETDRS SCALE),RIGHT,RETINA,1,COLOR FUNDUS PHOTOGRAPH,,,,PRE-DOSE,-0.5
813,CDISCPILOT01,OE,01-701-1153,13,INTRAOCULAR PRESSURE,,2013-09-23,BASELINE,3,1,11,11,11,Intraocular Pressure,IOP,,LEFT,EYE,1,APPLANATION TONOMETRY,mmHg,mmHg,,PRE-DOSE,-0.5
814,CDISCPILOT01,OE,01-701-1153,14,INTRAOCULAR PRESSURE,,2013-09-23,BASELINE,3,1,8,8,8,Intraocular Pressure,IOP,,RIGHT,EYE,1,APPLANATION TONOMETRY,mmHg,mmHg,,PRE-DOSE,-0.5
815,CDISCPILOT01,OE,01-701-1153,15,BEST CORRECTED VISUAL ACUITY,OVERALL EVALUATION,2013-09-23,BASELINE,3,1,59,59,59,Visual Acuity Score,VACSCORE,,LEFT,EYE,1,ETDRS EYE CHART,,,,PRE-DOSE,-0.5
816,CDISCPILOT01,OE,01-701-1153,16,BEST CORRECTED VISUAL ACUITY,OVERALL EVALUATION,2013-09-23,BASELINE,3,1,7,7,7,Visual Acuity Score,VACSCORE,,RIGHT,EYE,1,ETDRS EYE CHART,,,,PRE-DOSE,-0.5
817,CDISCPILOT01,OE,01-701-1153,17,OPHTHALMIC ASSESSMENTS,SD-OCT CST SINGLE FORM,2013-10-19,WEEK 4,5,28,397,397,397,Center Subfield Thickness,CSUBTH,CENTER SUBFIELD THICKNESS,LEFT,RETINA,27,SD-OCT,um,um,,PRE-DOSE,-0.5
818,CDISCPILOT01,OE,01-701-1153,18,OPHTHALMIC ASSESSMENTS,SD-OCT CST SINGLE FORM,2013-10-19,WEEK 4,5,28,270,270,270,Center Subfield Thickness,CSUBTH,CENTER SUBFIELD THICKNESS,RIGHT,RETINA,27,SD-OCT,um,um,,PRE-DOSE,-0.5
819,CDISCPILOT01,OE,01-701-1153,19,OPHTHALMIC ASSESSMENTS,FORM FOR CFP EVALUATION FOR 7M/4W,2013-10-19,WEEK 4,5,28,9,9,9,Diabetic Retinopathy Sev Recode Value,DRSSR,DIABETIC RETINOPATHY SEVERITY LEVEL RECODE VALUE (ETDRS SCALE),LEFT,RETINA,27,COLOR FUNDUS PHOTOGRAPH,,,,PRE-DOSE,-0.5
820,CDISCPILOT01,OE,01-701-1153,20,OPHTHALMIC ASSESSMENTS,FORM FOR CFP EVALUATION FOR 7M/4W,2013-10-19,WEEK 4,5,28,2,2,2,Diabetic Retinopathy Sev Recode Value,DRSSR,DIABETIC RETINOPATHY SEVERITY LEVEL RECODE VALUE (ETDRS SCALE),RIGHT,RETINA,27,COLOR FUNDUS PHOTOGRAPH,,,,PRE-DOSE,-0.5
821,CDISCPILOT01,OE,01-701-1153,21,INTRAOCULAR PRESSURE,,2013-10-19,WEEK 4,5,28,27,27,27,Intraocular Pressure,IOP,,LEFT,EYE,27,APPLANATION TONOMETRY,mmHg,mmHg,,PRE-DOSE,-0.5
822,CDISCPILOT01,OE,01-701-1153,22,INTRAOCULAR PRESSURE,,2013-10-19,WEEK 4,5,28,9,9,9,Intraocular Pressure,IOP,,RIGHT,EYE,27,APPLANATION TONOMETRY,mmHg,mmHg,,PRE-DOSE,-0.5
823,CDISCPILOT01,OE,01-701-1153,23,BEST CORRECTED VISUAL ACUITY,OVERALL EVALUATION,2013-10-19,WEEK 4,5,28,99,99,99,Visual Acuity Score,VACSCORE,,LEFT,EYE,27,ETDRS EYE CHART,,,,PRE-DOSE,-0.5
824,CDISCPILOT01,OE,01-701-1153,24,BEST CORRECTED VISUAL ACUITY,OVERALL EVALUATION,2013-10-19,WEEK 4,5,28,78,78,78,Visual Acuity Score,VACSCORE,,RIGHT,EYE,27,ETDRS EYE CHART,,,,PRE-DOSE,-0.5
825,CDISCPILOT01,OE,01-701-1153,25,OPHTHALMIC ASSESSMENTS,SD-OCT CST SINGLE FORM,2013-11-04,WEEK 6,7,42,494,494,494,Center Subfield Thickness,CSUBTH,CENTER SUBFIELD THICKNESS,LEFT,RETINA,43,SD-OCT,um,um,,PRE-DOSE,-0.5
826,CDISCPILOT01,OE,01-701-1153,26,OPHTHALMIC ASSESSMENTS,SD-OCT CST SINGLE FORM,2013-11-04,WEEK 6,7,42,244,244,244,Center Subfield Thickness,CSUBTH,CENTER SUBFIELD THICKNESS,RIGHT,RETINA,43,SD-OCT,um,um,,PRE-DOSE,-0.5
827,CDISCPILOT01,OE,01-701-1153,27,OPHTHALMIC ASSESSMENTS,FORM FOR CFP EVALUATION FOR 7M/4W,2013-11-04,WEEK 6,7,42,5,5,5,Diabetic Retinopathy Sev Recode Value,DRSSR,DIABETIC RETINOPATHY SEVERITY LEVEL RECODE VALUE (ETDRS SCALE),LEFT,RETINA,43,COLOR FUNDUS PHOTOGRAPH,,,,PRE-DOSE,-0.5
828,CDISCPILOT01,OE,01-701-1153,28,OPHTHALMIC ASSESSMENTS,FORM FOR CFP EVALUATION FOR 7M/4W,2013-11-04,WEEK 6,7,42,5,5,5,Diabetic Retinopathy Sev Recode Value,DRSSR,DIABETIC RETINOPATHY SEVERITY LEVEL RECODE VALUE (ETDRS SCALE),RIGHT,RETINA,43,COLOR FUNDUS PHOTOGRAPH,,,,PRE-DOSE,-0.5
829,CDISCPILOT01,OE,01-701-1153,29,INTRAOCULAR PRESSURE,,2013-11-04,WEEK 6,7,42,25,25,25,Intraocular Pressure,IOP,,LEFT,EYE,43,APPLANATION TONOMETRY,mmHg,mmHg,,PRE-DOSE,-0.5
830,CDISCPILOT01,OE,01-701-1153,30,INTRAOCULAR PRESSURE,,2013-11-04,WEEK 6,7,42,20,20,20,Intraocular Pressure,IOP,,RIGHT,EYE,43,APPLANATION TONOMETRY,mmHg,mmHg,,PRE-DOSE,-0.5
831,CDISCPILOT01,OE,01-701-1153,31,BEST CORRECTED VISUAL ACUITY,OVERALL EVALUATION,2013-11-04,WEEK 6,7,42,92,92,92,Visual Acuity Score,VACSCORE,,LEFT,EYE,43,ETDRS EYE CHART,,,,PRE-DOSE,-0.5
832,CDISCPILOT01,OE,01-701-1153,32,BEST CORRECTED VISUAL ACUITY,OVERALL EVALUATION,2013-11-04,WEEK 6,7,42,98,98,98,Visual Acuity Score,VACSCORE,,RIGHT,EYE,43,ETDRS EYE CHART,,,,PRE-DOSE,-0.5
833,CDISCPILOT01,OE,01-701-1153,33,OPHTHALMIC ASSESSMENTS,SD-OCT CST SINGLE FORM,2013-11-18,WEEK 8,8,56,377,377,377,Center Subfield Thickness,CSUBTH,CENTER SUBFIELD THICKNESS,LEFT,RETINA,57,SD-OCT,um,um,,PRE-DOSE,-0.5
834,CDISCPILOT01,OE,01-701-1153,34,OPHTHALMIC ASSESSMENTS,SD-OCT CST SINGLE FORM,2013-11-18,WEEK 8,8,56,48,48,48,Center Subfield Thickness,CSUBTH,CENTER SUBFIELD THICKNESS,RIGHT,RETINA,57,SD-OCT,um,um,,PRE-DOSE,-0.5
835,CDISCPILOT01,OE,01-701-1153,35,OPHTHALMIC ASSESSMENTS,FORM FOR CFP EVALUATION FOR 7M/4W,2013-11-18,WEEK 8,8,56,3,3,3,Diabetic Retinopathy Sev Recode Value,DRSSR,DIABETIC RETINOPATHY SEVERITY LEVEL RECODE VALUE (ETDRS SCALE),LEFT,RETINA,57,COLOR FUNDUS PHOTOGRAPH,,,,PRE-DOSE,-0.5
836,CDISCPILOT01,OE,01-701-1153,36,OPHTHALMIC ASSESSMENTS,FORM FOR CFP EVALUATION FOR 7M/4W,2013-11-18,WEEK 8,8,56,,NOT APPLICABLE,NOT APPLICABLE,Diabetic Retinopathy Sev Recode Value,DRSSR,DIABETIC RETINOPATHY SEVERITY LEVEL RECODE VALUE (ETDRS SCALE),RIGHT,RETINA,57,COLOR FUNDUS PHOTOGRAPH,,,,PRE-DOSE,-0.5
837,CDISCPILOT01,OE,01-701-1153,37,INTRAOCULAR PRESSURE,,2013-11-18,WEEK 8,8,56,26,26,26,Intraocular Pressure,IOP,,LEFT,EYE,57,APPLANATION TONOMETRY,mmHg,mmHg,,PRE-DOSE,-0.5
838,CDISCPILOT01,OE,01-701-1153,38,INTRAOCULAR PRESSURE,,2013-11-18,WEEK 8,8,56,13,13,13,Intraocular Pressure,IOP,,RIGHT,EYE,57,APPLANATION TONOMETRY,mmHg,mmHg,,PRE-DOSE,-0.5
839,CDISCPILOT01,OE,01-701-1153,39,BEST CORRECTED VISUAL ACUITY,OVERALL EVALUATION,2013-11-18,WEEK 8,8,56,68,68,68,Visual Acuity Score,VACSCORE,,LEFT,EYE,57,ETDRS EYE CHART,,,,PRE-DOSE,-0.5
840,CDISCPILOT01,OE,01-701-1153,40,BEST CORRECTED VISUAL ACUITY,OVERALL EVALUATION,2013-11-18,WEEK 8,8,56,43,43,43,Visual Acuity Score,VACSCORE,,RIGHT,EYE,57,ETDRS EYE CHART,,,,PRE-DOSE,-0.5
841,CDISCPILOT01,OE,01-701-1153,41,OPHTHALMIC ASSESSMENTS,SD-OCT CST SINGLE FORM,2013-12-02,WEEK 10 (T),8.1,70,183,183,183,Center Subfield Thickness,CSUBTH,CENTER SUBFIELD THICKNESS,LEFT,RETINA,71,SD-OCT,um,um,,PRE-DOSE,-0.5
842,CDISCPILOT01,OE,01-701-1153,42,OPHTHALMIC ASSESSMENTS,SD-OCT CST SINGLE FORM,2013-12-02,WEEK 10 (T),8.1,70,346,346,346,Center Subfield Thickness,CSUBTH,CENTER SUBFIELD THICKNESS,RIGHT,RETINA,71,SD-OCT,um,um,,PRE-DOSE,-0.5
843,CDISCPILOT01,OE,01-701-1153,43,OPHTHALMIC ASSESSMENTS,FORM FOR CFP EVALUATION FOR 7M/4W,2013-12-02,WEEK 10 (T),8.1,70,4,4,4,Diabetic Retinopathy Sev Recode Value,DRSSR,DIABETIC RETINOPATHY SEVERITY LEVEL RECODE VALUE (ETDRS SCALE),LEFT,RETINA,71,COLOR FUNDUS PHOTOGRAPH,,,,PRE-DOSE,-0.5
844,CDISCPILOT01,OE,01-701-1153,44,OPHTHALMIC ASSESSMENTS,FORM FOR CFP EVALUATION FOR 7M/4W,2013-12-02,WEEK 10 (T),8.1,70,1,1,1,Diabetic Retinopathy Sev Recode Value,DRSSR,DIABETIC RETINOPATHY SEVERITY LEVEL RECODE VALUE (ETDRS SCALE),RIGHT,RETINA,71,COLOR FUNDUS PHOTOGRAPH,,,,PRE-DOSE,-0.5
845,CDISCPILOT01,OE,01-701-1153,45,INTRAOCULAR PRESSURE,,2013-12-02,WEEK 10 (T),8.1,70,9,9,9,Intraocular Pressure,IOP,,LEFT,EYE,71,APPLANATION TONOMETRY,mmHg,mmHg,,PRE-DOSE,-0.5
846,CDISCPILOT01,OE,01-701-1153,46,INTRAOCULAR PRESSURE,,2013-12-02,WEEK 10 (T),8.1,70,25,25,25,Intraocular Pressure,IOP,,RIGHT,EYE,71,APPLANATION TONOMETRY,mmHg,mmHg,,PRE-DOSE,-0.5
847,CDISCPILOT01,OE,01-701-1153,47,BEST CORRECTED VISUAL ACUITY,OVERALL EVALUATION,2013-12-02,WEEK 10 (T),8.1,70,35,35,35,Visual Acuity Score,VACSCORE,,LEFT,EYE,71,ETDRS EYE CHART,,,,PRE-DOSE,-0.5
848,CDISCPILOT01,OE,01-701-1153,48,BEST CORRECTED VISUAL ACUITY,OVERALL EVALUATION,2013-12-02,WEEK 10 (T),8.1,70,69,69,69,Visual Acuity Score,VACSCORE,,RIGHT,EYE,71,ETDRS EYE CHART,,,,PRE-DOSE,-0.5
849,CDISCPILOT01,OE,01-701-1153,49,OPHTHALMIC ASSESSMENTS,SD-OCT CST SINGLE FORM,2013-12-16,WEEK 12,9,84,139,139,139,Center Subfield Thickness,CSUBTH,CENTER SUBFIELD THICKNESS,LEFT,RETINA,85,SD-OCT,um,um,,PRE-DOSE,-0.5
850,CDISCPILOT01,OE,01-701-1153,50,OPHTHALMIC ASSESSMENTS,SD-OCT CST SINGLE FORM,2013-12-16,WEEK 12,9,84,155,155,155,Center Subfield Thickness,CSUBTH,CENTER SUBFIELD THICKNESS,RIGHT,RETINA,85,SD-OCT,um,um,,PRE-DOSE,-0.5
851,CDISCPILOT01,OE,01-701-1153,51,OPHTHALMIC ASSESSMENTS,FORM FOR CFP EVALUATION FOR 7M/4W,2013-12-16,WEEK 12,9,84,8,8,8,Diabetic Retinopathy Sev Recode Value,DRSSR,DIABETIC RETINOPATHY SEVERITY LEVEL RECODE VALUE (ETDRS SCALE),LEFT,RETINA,85,COLOR FUNDUS PHOTOGRAPH,,,,PRE-DOSE,-0.5
852,CDISCPILOT01,OE,01-701-1153,52,OPHTHALMIC ASSESSMENTS,FORM FOR CFP EVALUATION FOR 7M/4W,2013-12-16,WEEK 12,9,84,4,4,4,Diabetic Retinopathy Sev Recode Value,DRSSR,DIABETIC RETINOPATHY SEVERITY LEVEL RECODE VALUE (ETDRS SCALE),RIGHT,RETINA,85,COLOR FUNDUS PHOTOGRAPH,,,,PRE-DOSE,-0.5
853,CDISCPILOT01,OE,01-701-1153,53,INTRAOCULAR PRESSURE,,2013-12-16,WEEK 12,9,84,27,27,27,Intraocular Pressure,IOP,,LEFT,EYE,85,APPLANATION TONOMETRY,mmHg,mmHg,,PRE-DOSE,-0.5
854,CDISCPILOT01,OE,01-701-1153,54,INTRAOCULAR PRESSURE,,2013-12-16,WEEK 12,9,84,22,22,22,Intraocular Pressure,IOP,,RIGHT,EYE,85,APPLANATION TONOMETRY,mmHg,mmHg,,PRE-DOSE,-0.5
855,CDISCPILOT01,OE,01-701-1153,55,BEST CORRECTED VISUAL ACUITY,OVERALL EVALUATION,2013-12-16,WEEK 12,9,84,25,25,25,Visual Acuity Score,VACSCORE,,LEFT,EYE,85,ETDRS EYE CHART,,,,PRE-DOSE,-0.5
856,CDISCPILOT01,OE,01-701-1153,56,BEST CORRECTED VISUAL ACUITY,OVERALL EVALUATION,2013-12-16,WEEK 12,9,84,72,72,72,Visual Acuity Score,VACSCORE,,RIGHT,EYE,85,ETDRS EYE CHART,,,,PRE-DOSE,-0.5
857,CDISCPILOT01,OE,01-701-1153,57,OPHTHALMIC ASSESSMENTS,SD-OCT CST SINGLE FORM,2014-01-08,WEEK 16,10,112,244,244,244,Center Subfield Thickness,CSUBTH,CENTER SUBFIELD THICKNESS,LEFT,RETINA,108,SD-OCT,um,um,,PRE-DOSE,-0.5
858,CDISCPILOT01,OE,01-701-1153,58,OPHTHALMIC ASSESSMENTS,SD-OCT CST SINGLE FORM,2014-01-08,WEEK 16,10,112,367,367,367,Center Subfield Thickness,CSUBTH,CENTER SUBFIELD THICKNESS,RIGHT,RETINA,108,SD-OCT,um,um,,PRE-DOSE,-0.5
859,CDISCPILOT01,OE,01-701-1153,59,OPHTHALMIC ASSESSMENTS,FORM FOR CFP EVALUATION FOR 7M/4W,2014-01-08,WEEK 16,10,112,9,9,9,Diabetic Retinopathy Sev Recode Value,DRSSR,DIABETIC RETINOPATHY SEVERITY LEVEL RECODE VALUE (ETDRS SCALE),LEFT,RETINA,108,COLOR FUNDUS PHOTOGRAPH,,,,PRE-DOSE,-0.5
860,CDISCPILOT01,OE,01-701-1153,60,OPHTHALMIC ASSESSMENTS,FORM FOR CFP EVALUATION FOR 7M/4W,2014-01-08,WEEK 16,10,112,12,12,12,Diabetic Retinopathy Sev Recode Value,DRSSR,DIABETIC RETINOPATHY SEVERITY LEVEL RECODE VALUE (ETDRS SCALE),RIGHT,RETINA,108,COLOR FUNDUS PHOTOGRAPH,,,,PRE-DOSE,-0.5
861,CDISCPILOT01,OE,01-701-1153,61,INTRAOCULAR PRESSURE,,2014-01-08,WEEK 16,10,112,25,25,25,Intraocular Pressure,IOP,,LEFT,EYE,108,APPLANATION TONOMETRY,mmHg,mmHg,,PRE-DOSE,-0.5
862,CDISCPILOT01,OE,01-701-1153,62,INTRAOCULAR PRESSURE,,2014-01-08,WEEK 16,10,112,16,16,16,Intraocular Pressure,IOP,,RIGHT,EYE,108,APPLANATION TONOMETRY,mmHg,mmHg,,PRE-DOSE,-0.5
863,CDISCPILOT01,OE,01-701-1153,63,BEST CORRECTED VISUAL ACUITY,OVERALL EVALUATION,2014-01-08,WEEK 16,10,112,47,47,47,Visual Acuity Score,VACSCORE,,LEFT,EYE,108,ETDRS EYE CHART,,,,PRE-DOSE,-0.5
864,CDISCPILOT01,OE,01-701-1153,64,BEST CORRECTED VISUAL ACUITY,OVERALL EVALUATION,2014-01-08,WEEK 16,10,112,62,62,62,Visual Acuity Score,VACSCORE,,RIGHT,EYE,108,ETDRS EYE CHART,,,,PRE-DOSE,-0.5
865,CDISCPILOT01,OE,01-701-1153,65,OPHTHALMIC ASSESSMENTS,SD-OCT CST SINGLE FORM,2014-02-11,WEEK 20,11,140,125,125,125,Center Subfield Thickness,CSUBTH,CENTER SUBFIELD THICKNESS,LEFT,RETINA,142,SD-OCT,um,um,,PRE-DOSE,-0.5
866,CDISCPILOT01,OE,01-701-1153,66,OPHTHALMIC ASSESSMENTS,SD-OCT CST SINGLE FORM,2014-02-11,WEEK 20,11,140,13,13,13,Center Subfield Thickness,CSUBTH,CENTER SUBFIELD THICKNESS,RIGHT,RETINA,142,SD-OCT,um,um,,PRE-DOSE,-0.5
867,CDISCPILOT01,OE,01-701-1153,67,OPHTHALMIC ASSESSMENTS,FORM FOR CFP EVALUATION FOR 7M/4W,2014-02-11,WEEK 20,11,140,7,7,7,Diabetic Retinopathy Sev Recode Value,DRSSR,DIABETIC RETINOPATHY SEVERITY LEVEL RECODE VALUE (ETDRS SCALE),LEFT,RETINA,142,COLOR FUNDUS PHOTOGRAPH,,,,PRE-DOSE,-0.5
868,CDISCPILOT01,OE,01-701-1153,68,OPHTHALMIC ASSESSMENTS,FORM FOR CFP EVALUATION FOR 7M/4W,2014-02-11,WEEK 20,11,140,8,8,8,Diabetic Retinopathy Sev Recode Value,DRSSR,DIABETIC RETINOPATHY SEVERITY LEVEL RECODE VALUE (ETDRS SCALE),RIGHT,RETINA,142,COLOR FUNDUS PHOTOGRAPH,,,,PRE-DOSE,-0.5
869,CDISCPILOT01,OE,01-701-1153,69,INTRAOCULAR PRESSURE,,2014-02-11,WEEK 20,11,140,17,17,17,Intraocular Pressure,IOP,,LEFT,EYE,142,APPLANATION TONOMETRY,mmHg,mmHg,,PRE-DOSE,-0.5
870,CDISCPILOT01,OE,01-701-1153,70,INTRAOCULAR PRESSURE,,2014-02-11,WEEK 20,11,140,12,12,12,Intraocular Pressure,IOP,,RIGHT,EYE,142,APPLANATION TONOMETRY,mmHg,mmHg,,PRE-DOSE,-0.5
871,CDISCPILOT01,OE,01-701-1153,71,BEST CORRECTED VISUAL ACUITY,OVERALL EVALUATION,2014-02-11,WEEK 20,11,140,15,15,15,Visual Acuity Score,VACSCORE,,LEFT,EYE,142,ETDRS EYE CHART,,,,PRE-DOSE,-0.5
872,CDISCPILOT01,OE,01-701-1153,72,BEST CORRECTED VISUAL ACUITY,OVERALL EVALUATION,2014-02-11,WEEK 20,11,140,2,2,2,Visual Acuity Score,VACSCORE,,RIGHT,EYE,142,ETDRS EYE CHART,,,,PRE-DOSE,-0.5
873,CDISCPILOT01,OE,01-701-1153,73,OPHTHALMIC ASSESSMENTS,SD-OCT CST SINGLE FORM,2014-03-11,WEEK 24,12,168,164,164,164,Center Subfield Thickness,CSUBTH,CENTER SUBFIELD THICKNESS,LEFT,RETINA,170,SD-OCT,um,um,,PRE-DOSE,-0.5
874,CDISCPILOT01,OE,01-701-1153,74,OPHTHALMIC ASSESSMENTS,SD-OCT CST SINGLE FORM,2014-03-11,WEEK 24,12,168,253,253,253,Center Subfield Thickness,CSUBTH,CENTER SUBFIELD THICKNESS,RIGHT,RETINA,170,SD-OCT,um,um,,PRE-DOSE,-0.5
875,CDISCPILOT01,OE,01-701-1153,75,OPHTHALMIC ASSESSMENTS,FORM FOR CFP EVALUATION FOR 7M/4W,2014-03-11,WEEK 24,12,168,5,5,5,Diabetic Retinopathy Sev Recode Value,DRSSR,DIABETIC RETINOPATHY SEVERITY LEVEL RECODE VALUE (ETDRS SCALE),LEFT,RETINA,170,COLOR FUNDUS PHOTOGRAPH,,,,PRE-DOSE,-0.5
876,CDISCPILOT01,OE,01-701-1153,76,OPHTHALMIC ASSESSMENTS,FORM FOR CFP EVALUATION FOR 7M/4W,2014-03-11,WEEK 24,12,168,8,8,8,Diabetic Retinopathy Sev Recode Value,DRSSR,DIABETIC RETINOPATHY SEVERITY LEVEL RECODE VALUE (ETDRS SCALE),RIGHT,RETINA,170,COLOR FUNDUS PHOTOGRAPH,,,,PRE-DOSE,-0.5
877,CDISCPILOT01,OE,01-701-1153,77,INTRAOCULAR PRESSURE,,2014-03-11,WEEK 24,12,168,22,22,22,Intraocular Pressure,IOP,,LEFT,EYE,170,APPLANATION TONOMETRY,mmHg,mmHg,,PRE-DOSE,-0.5
878,CDISCPILOT01,OE,01-701-1153,78,INTRAOCULAR PRESSURE,,2014-03-11,WEEK 24,12,168,12,12,12,Intraocular Pressure,IOP,,RIGHT,EYE,170,APPLANATION TONOMETRY,mmHg,mmHg,,PRE-DOSE,-0.5
879,CDISCPILOT01,OE,01-701-1153,79,BEST CORRECTED VISUAL ACUITY,OVERALL EVALUATION,2014-03-11,WEEK 24,12,168,84,84,84,Visual Acuity Score,VACSCORE,,LEFT,EYE,170,ETDRS EYE CHART,,,,PRE-DOSE,-0.5
880,CDISCPILOT01,OE,01-701-1153,80,BEST CORRECTED VISUAL ACUITY,OVERALL EVALUATION,2014-03-11,WEEK 24,12,168,11,11,11,Visual Acuity Score,VACSCORE,,RIGHT,EYE,170,ETDRS EYE CHART,,,,PRE-DOSE,-0.5
881,CDISCPILOT01,OE,01-701-1162,1,OPHTHALMIC ASSESSMENTS,SD-OCT CST SINGLE FORM,2013-04-18,SCREENING 1,1,-7,374,374,374,Center Subfield Thickness,CSUBTH,CENTER SUBFIELD THICKNESS,LEFT,RETINA,,SD-OCT,um,um,,PRE-DOSE,-0.5
882,CDISCPILOT01,OE,01-701-1162,2,OPHTHALMIC ASSESSMENTS,SD-OCT CST SINGLE FORM,2013-04-18,SCREENING 1,1,-7,242,242,242,Center Subfield Thickness,CSUBTH,CENTER SUBFIELD THICKNESS,RIGHT,RETINA,,SD-OCT,um,um,,PRE-DOSE,-0.5
883,CDISCPILOT01,OE,01-701-1162,3,OPHTHALMIC ASSESSMENTS,FORM FOR CFP EVALUATION FOR 7M/4W,2013-04-18,SCREENING 1,1,-7,10,10,10,Diabetic Retinopathy Sev Recode Value,DRSSR,DIABETIC RETINOPATHY SEVERITY LEVEL RECODE VALUE (ETDRS SCALE),LEFT,RETINA,,COLOR FUNDUS PHOTOGRAPH,,,,PRE-DOSE,-0.5
884,CDISCPILOT01,OE,01-701-1162,4,OPHTHALMIC ASSESSMENTS,FORM FOR CFP EVALUATION FOR 7M/4W,2013-04-18,SCREENING 1,1,-7,9,9,9,Diabetic Retinopathy Sev Recode Value,DRSSR,DIABETIC RETINOPATHY SEVERITY LEVEL RECODE VALUE (ETDRS SCALE),RIGHT,RETINA,,COLOR FUNDUS PHOTOGRAPH,,,,PRE-DOSE,-0.5
885,CDISCPILOT01,OE,01-701-1162,5,INTRAOCULAR PRESSURE,,2013-04-18,SCREENING 1,1,-7,27,27,27,Intraocular Pressure,IOP,,LEFT,EYE,,APPLANATION TONOMETRY,mmHg,mmHg,,PRE-DOSE,-0.5
886,CDISCPILOT01,OE,01-701-1162,6,INTRAOCULAR PRESSURE,,2013-04-18,SCREENING 1,1,-7,24,24,24,Intraocular Pressure,IOP,,RIGHT,EYE,,APPLANATION TONOMETRY,mmHg,mmHg,,PRE-DOSE,-0.5
887,CDISCPILOT01,OE,01-701-1162,7,BEST CORRECTED VISUAL ACUITY,OVERALL EVALUATION,2013-04-18,SCREENING 1,1,-7,10,10,10,Visual Acuity Score,VACSCORE,,LEFT,EYE,,ETDRS EYE CHART,,,,PRE-DOSE,-0.5
888,CDISCPILOT01,OE,01-701-1162,8,BEST CORRECTED VISUAL ACUITY,OVERALL EVALUATION,2013-04-18,SCREENING 1,1,-7,28,28,28,Visual Acuity Score,VACSCORE,,RIGHT,EYE,,ETDRS EYE CHART,,,,PRE-DOSE,-0.5
889,CDISCPILOT01,OE,01-701-1176,1,OPHTHALMIC ASSESSMENTS,SD-OCT CST SINGLE FORM,2012-09-30,SCREENING 1,1,-7,430,430,430,Center Subfield Thickness,CSUBTH,CENTER SUBFIELD THICKNESS,LEFT,RETINA,,SD-OCT,um,um,,PRE-DOSE,-0.5
890,CDISCPILOT01,OE,01-701-1176,2,OPHTHALMIC ASSESSMENTS,SD-OCT CST SINGLE FORM,2012-09-30,SCREENING 1,1,-7,269,269,269,Center Subfield Thickness,CSUBTH,CENTER SUBFIELD THICKNESS,RIGHT,RETINA,,SD-OCT,um,um,,PRE-DOSE,-0.5
891,CDISCPILOT01,OE,01-701-1176,3,OPHTHALMIC ASSESSMENTS,FORM FOR CFP EVALUATION FOR 7M/4W,2012-09-30,SCREENING 1,1,-7,2,2,2,Diabetic Retinopathy Sev Recode Value,DRSSR,DIABETIC RETINOPATHY SEVERITY LEVEL RECODE VALUE (ETDRS SCALE),LEFT,RETINA,,COLOR FUNDUS PHOTOGRAPH,,,,PRE-DOSE,-0.5
892,CDISCPILOT01,OE,01-701-1176,4,OPHTHALMIC ASSESSMENTS,FORM FOR CFP EVALUATION FOR 7M/4W,2012-09-30,SCREENING 1,1,-7,3,3,3,Diabetic Retinopathy Sev Recode Value,DRSSR,DIABETIC RETINOPATHY SEVERITY LEVEL RECODE VALUE (ETDRS SCALE),RIGHT,RETINA,,COLOR FUNDUS PHOTOGRAPH,,,,PRE-DOSE,-0.5
893,CDISCPILOT01,OE,01-701-1176,5,INTRAOCULAR PRESSURE,,2012-09-30,SCREENING 1,1,-7,19,19,19,Intraocular Pressure,IOP,,LEFT,EYE,,APPLANATION TONOMETRY,mmHg,mmHg,,PRE-DOSE,-0.5
894,CDISCPILOT01,OE,01-701-1176,6,INTRAOCULAR PRESSURE,,2012-09-30,SCREENING 1,1,-7,8,8,8,Intraocular Pressure,IOP,,RIGHT,EYE,,APPLANATION TONOMETRY,mmHg,mmHg,,PRE-DOSE,-0.5
895,CDISCPILOT01,OE,01-701-1176,7,BEST CORRECTED VISUAL ACUITY,OVERALL EVALUATION,2012-09-30,SCREENING 1,1,-7,34,34,34,Visual Acuity Score,VACSCORE,,LEFT,EYE,,ETDRS EYE CHART,,,,PRE-DOSE,-0.5
896,CDISCPILOT01,OE,01-701-1176,8,BEST CORRECTED VISUAL ACUITY,OVERALL EVALUATION,2012-09-30,SCREENING 1,1,-7,35,35,35,Visual Acuity Score,VACSCORE,,RIGHT,EYE,,ETDRS EYE CHART,,,,PRE-DOSE,-0.5
897,CDISCPILOT01,OE,01-701-1180,1,OPHTHALMIC ASSESSMENTS,SD-OCT CST SINGLE FORM,2013-01-28,SCREENING 1,1,-7,210,210,210,Center Subfield Thickness,CSUBTH,CENTER SUBFIELD THICKNESS,LEFT,RETINA,-15,SD-OCT,um,um,,PRE-DOSE,-0.5
898,CDISCPILOT01,OE,01-701-1180,2,OPHTHALMIC ASSESSMENTS,SD-OCT CST SINGLE FORM,2013-01-28,SCREENING 1,1,-7,220,220,220,Center Subfield Thickness,CSUBTH,CENTER SUBFIELD THICKNESS,RIGHT,RETINA,-15,SD-OCT,um,um,,PRE-DOSE,-0.5
899,CDISCPILOT01,OE,01-701-1180,3,OPHTHALMIC ASSESSMENTS,FORM FOR CFP EVALUATION FOR 7M/4W,2013-01-28,SCREENING 1,1,-7,8,8,8,Diabetic Retinopathy Sev Recode Value,DRSSR,DIABETIC RETINOPATHY SEVERITY LEVEL RECODE VALUE (ETDRS SCALE),LEFT,RETINA,-15,COLOR FUNDUS PHOTOGRAPH,,,,PRE-DOSE,-0.5
900,CDISCPILOT01,OE,01-701-1180,4,OPHTHALMIC ASSESSMENTS,FORM FOR CFP EVALUATION FOR 7M/4W,2013-01-28,SCREENING 1,1,-7,11,11,11,Diabetic Retinopathy Sev Recode Value,DRSSR,DIABETIC RETINOPATHY SEVERITY LEVEL RECODE VALUE (ETDRS SCALE),RIGHT,RETINA,-15,COLOR FUNDUS PHOTOGRAPH,,,,PRE-DOSE,-0.5
901,CDISCPILOT01,OE,01-701-1180,5,INTRAOCULAR PRESSURE,,2013-01-28,SCREENING 1,1,-7,29,29,29,Intraocular Pressure,IOP,,LEFT,EYE,-15,APPLANATION TONOMETRY,mmHg,mmHg,,PRE-DOSE,-0.5
902,CDISCPILOT01,OE,01-701-1180,6,INTRAOCULAR PRESSURE,,2013-01-28,SCREENING 1,1,-7,13,13,13,Intraocular Pressure,IOP,,RIGHT,EYE,-15,APPLANATION TONOMETRY,mmHg,mmHg,,PRE-DOSE,-0.5
903,CDISCPILOT01,OE,01-701-1180,7,BEST CORRECTED VISUAL ACUITY,OVERALL EVALUATION,2013-01-28,SCREENING 1,1,-7,9,9,9,Visual Acuity Score,VACSCORE,,LEFT,EYE,-15,ETDRS EYE CHART,,,,PRE-DOSE,-0.5
904,CDISCPILOT01,OE,01-701-1180,8,BEST CORRECTED VISUAL ACUITY,OVERALL EVALUATION,2013-01-28,SCREENING 1,1,-7,23,23,23,Visual Acuity Score,VACSCORE,,RIGHT,EYE,-15,ETDRS EYE CHART,,,,PRE-DOSE,-0.5
905,CDISCPILOT01,OE,01-701-1180,9,OPHTHALMIC ASSESSMENTS,SD-OCT CST SINGLE FORM,2013-02-12,BASELINE,3,1,404,404,404,Center Subfield Thickness,CSUBTH,CENTER SUBFIELD THICKNESS,LEFT,RETINA,1,SD-OCT,um,um,,PRE-DOSE,-0.5
906,CDISCPILOT01,OE,01-701-1180,10,OPHTHALMIC ASSESSMENTS,SD-OCT CST SINGLE FORM,2013-02-12,BASELINE,3,1,174,174,174,Center Subfield Thickness,CSUBTH,CENTER SUBFIELD THICKNESS,RIGHT,RETINA,1,SD-OCT,um,um,,PRE-DOSE,-0.5
907,CDISCPILOT01,OE,01-701-1180,11,OPHTHALMIC ASSESSMENTS,FORM FOR CFP EVALUATION FOR 7M/4W,2013-02-12,BASELINE,3,1,11,11,11,Diabetic Retinopathy Sev Recode Value,DRSSR,DIABETIC RETINOPATHY SEVERITY LEVEL RECODE VALUE (ETDRS SCALE),LEFT,RETINA,1,COLOR FUNDUS PHOTOGRAPH,,,,PRE-DOSE,-0.5
908,CDISCPILOT01,OE,01-701-1180,12,OPHTHALMIC ASSESSMENTS,FORM FOR CFP EVALUATION FOR 7M/4W,2013-02-12,BASELINE,3,1,4,4,4,Diabetic Retinopathy Sev Recode Value,DRSSR,DIABETIC RETINOPATHY SEVERITY LEVEL RECODE VALUE (ETDRS SCALE),RIGHT,RETINA,1,COLOR FUNDUS PHOTOGRAPH,,,,PRE-DOSE,-0.5
909,CDISCPILOT01,OE,01-701-1180,13,INTRAOCULAR PRESSURE,,2013-02-12,BASELINE,3,1,24,24,24,Intraocular Pressure,IOP,,LEFT,EYE,1,APPLANATION TONOMETRY,mmHg,mmHg,,PRE-DOSE,-0.5
910,CDISCPILOT01,OE,01-701-1180,14,INTRAOCULAR PRESSURE,,2013-02-12,BASELINE,3,1,14,14,14,Intraocular Pressure,IOP,,RIGHT,EYE,1,APPLANATION TONOMETRY,mmHg,mmHg,,PRE-DOSE,-0.5
911,CDISCPILOT01,OE,01-701-1180,15,BEST CORRECTED VISUAL ACUITY,OVERALL EVALUATION,2013-02-12,BASELINE,3,1,6,6,6,Visual Acuity Score,VACSCORE,,LEFT,EYE,1,ETDRS EYE CHART,,,,PRE-DOSE,-0.5
912,CDISCPILOT01,OE,01-701-1180,16,BEST CORRECTED VISUAL ACUITY,OVERALL EVALUATION,2013-02-12,BASELINE,3,1,62,62,62,Visual Acuity Score,VACSCORE,,RIGHT,EYE,1,ETDRS EYE CHART,,,,PRE-DOSE,-0.5
913,CDISCPILOT01,OE,01-701-1180,17,OPHTHALMIC ASSESSMENTS,SD-OCT CST SINGLE FORM,2013-03-11,WEEK 4,5,28,267,267,267,Center Subfield Thickness,CSUBTH,CENTER SUBFIELD THICKNESS,LEFT,RETINA,28,SD-OCT,um,um,,PRE-DOSE,-0.5
