rownames,STUDYID,DOMAIN,USUBJID,PCSEQ,PCTESTCD,PCTEST,PCORRES,PCORRESU,PCSTRESC,PCSTRESN,PCSTRESU,PCNAM,PCSPEC,PCLLOQ,VISIT,VISITNUM,VISITDY,PCDTC,PCDY,PCTPT,PCTPTNUM
1,CDISCPILOT01,PC,01-701-1015,1,XAN,XANOMELINE,<BLQ,ug/ml,<BLQ,0,ug/ml,Imaginary Labs,PLASMA,0.01,BASELINE,3,1,2014-01-01T23:30:00,-1,Pre-dose,-0.5
2,CDISCPILOT01,PC,01-701-1015,2,XAN,XANOMELINE,<BLQ,ug/ml,<BLQ,,ug/ml,Imaginary Labs,PLASMA,0.01,BASELINE,3,1,2014-01-02T00:05:00,1,5 Min Post-dose,0.08
3,CDISCPILOT01,PC,01-701-1015,3,XAN,XANOMELINE,<BLQ,ug/ml,<BLQ,,ug/ml,Imaginary Labs,PLASMA,0.01,BASELINE,3,1,2014-01-02T00:30:00,1,30 Min Post-dose,0.5
4,CDISCPILOT01,PC,01-701-1015,4,XAN,XANOMELINE,<BLQ,ug/ml,<BLQ,,ug/ml,Imaginary Labs,PLASMA,0.01,BASELINE,3,1,2014-01-02T01:00:00,1,1h Post-dose,1
5,CDISCPILOT01,PC,01-701-1015,5,XAN,XANOMELINE,<BLQ,ug/ml,<BLQ,,ug/ml,Imaginary Labs,PLASMA,0.01,BASELINE,3,1,2014-01-02T01:30:00,1,1.5h Post-dose,1.5
6,CDISCPILOT01,PC,01-701-1015,6,XAN,XANOMELINE,<BLQ,ug/ml,<BLQ,,ug/ml,Imaginary Labs,PLASMA,0.01,BASELINE,3,1,2014-01-02T02:00:00,1,2h Post-dose,2
7,CDISCPILOT01,PC,01-701-1015,7,XAN,XANOMELINE,<BLQ,ug/ml,<BLQ,,ug/ml,Imaginary Labs,PLASMA,0.01,BASELINE,3,1,2014-01-02T04:00:00,1,4h Post-dose,4
8,CDISCPILOT01,PC,01-701-1015,8,XAN,XANOMELINE,<BLQ,ug/ml,<BLQ,,ug/ml,Imaginary Labs,PLASMA,0.01,BASELINE,3,1,2014-01-02T06:00:00,1,6h Post-dose,6
9,CDISCPILOT01,PC,01-701-1015,9,XAN,XANOMELINE,<BLQ,ug/ml,<BLQ,,ug/ml,Imaginary Labs,PLASMA,0.01,BASELINE,3,1,2014-01-02T08:00:00,1,8h Post-dose,8
10,CDISCPILOT01,PC,01-701-1015,10,XAN,XANOMELINE,<BLQ,ug/ml,<BLQ,,ug/ml,Imaginary Labs,PLASMA,0.01,BASELINE,3,1,2014-01-02T12:00:00,1,12h Post-dose,12
11,CDISCPILOT01,PC,01-701-1015,11,XAN,XANOMELINE,<BLQ,ug/ml,<BLQ,,ug/ml,Imaginary Labs,PLASMA,0.01,BASELINE,3,1,2014-01-02T16:00:00,1,16h Post-dose,16
12,CDISCPILOT01,PC,01-701-1015,12,XAN,XANOMELINE,<BLQ,ug/ml,<BLQ,,ug/ml,Imaginary Labs,PLASMA,0.01,BASELINE,3,1,2014-01-03T00:00:00,2,24h Post-dose,24
13,CDISCPILOT01,PC,01-701-1015,13,XAN,XANOMELINE,<BLQ,ug/ml,<BLQ,,ug/ml,Imaginary Labs,PLASMA,0.01,BASELINE,3,1,2014-01-03T12:00:00,2,36h Post-dose,36
14,CDISCPILOT01,PC,01-701-1015,14,XAN,XANOMELINE,<BLQ,ug/ml,<BLQ,,ug/ml,Imaginary Labs,PLASMA,0.01,BASELINE,3,1,2014-01-04T00:00:00,3,48h Post-dose,48
15,CDISCPILOT01,PC,01-701-1015,15,XAN,XANOMELINE,<BLQ,ug/ml,<BLQ,,ug/ml,Imaginary Labs,URINE,0.01,BASELINE,3,1,2014-01-02T06:00:00,1,0-6h Post-dose,3
16,CDISCPILOT01,PC,01-701-1015,16,XAN,XANOMELINE,<BLQ,ug/ml,<BLQ,,ug/ml,Imaginary Labs,URINE,0.01,BASELINE,3,1,2014-01-02T12:00:00,1,6-12h Post-dose,9
17,CDISCPILOT01,PC,01-701-1015,17,XAN,XANOMELINE,<BLQ,ug/ml,<BLQ,,ug/ml,Imaginary Labs,URINE,0.01,BASELINE,3,1,2014-01-03T00:00:00,2,12-24h Post-dose,18
18,CDISCPILOT01,PC,01-701-1015,18,XAN,XANOMELINE,<BLQ,ug/ml,<BLQ,,ug/ml,Imaginary Labs,URINE,0.01,BASELINE,3,1,2014-01-04T00:00:00,3,24-48h Post-dose,37
19,CDISCPILOT01,PC,01-701-1023,1,XAN,XANOMELINE,<BLQ,ug/ml,<BLQ,0,ug/ml,Imaginary Labs,PLASMA,0.01,BASELINE,3,1,2012-08-04T23:30:00,-1,Pre-dose,-0.5
20,CDISCPILOT01,PC,01-701-1023,2,XAN,XANOMELINE,<BLQ,ug/ml,<BLQ,,ug/ml,Imaginary Labs,PLASMA,0.01,BASELINE,3,1,2012-08-05T00:05:00,1,5 Min Post-dose,0.08
21,CDISCPILOT01,PC,01-701-1023,3,XAN,XANOMELINE,<BLQ,ug/ml,<BLQ,,ug/ml,Imaginary Labs,PLASMA,0.01,BASELINE,3,1,2012-08-05T00:30:00,1,30 Min Post-dose,0.5
22,CDISCPILOT01,PC,01-701-1023,4,XAN,XANOMELINE,<BLQ,ug/ml,<BLQ,,ug/ml,Imaginary Labs,PLASMA,0.01,BASELINE,3,1,2012-08-05T01:00:00,1,1h Post-dose,1
23,CDISCPILOT01,PC,01-701-1023,5,XAN,XANOMELINE,<BLQ,ug/ml,<BLQ,,ug/ml,Imaginary Labs,PLASMA,0.01,BASELINE,3,1,2012-08-05T01:30:00,1,1.5h Post-dose,1.5
24,CDISCPILOT01,PC,01-701-1023,6,XAN,XANOMELINE,<BLQ,ug/ml,<BLQ,,ug/ml,Imaginary Labs,PLASMA,0.01,BASELINE,3,1,2012-08-05T02:00:00,1,2h Post-dose,2
25,CDISCPILOT01,PC,01-701-1023,7,XAN,XANOMELINE,<BLQ,ug/ml,<BLQ,,ug/ml,Imaginary Labs,PLASMA,0.01,BASELINE,3,1,2012-08-05T04:00:00,1,4h Post-dose,4
26,CDISCPILOT01,PC,01-701-1023,8,XAN,XANOMELINE,<BLQ,ug/ml,<BLQ,,ug/ml,Imaginary Labs,PLASMA,0.01,BASELINE,3,1,2012-08-05T06:00:00,1,6h Post-dose,6
27,CDISCPILOT01,PC,01-701-1023,9,XAN,XANOMELINE,<BLQ,ug/ml,<BLQ,,ug/ml,Imaginary Labs,PLASMA,0.01,BASELINE,3,1,2012-08-05T08:00:00,1,8h Post-dose,8
28,CDISCPILOT01,PC,01-701-1023,10,XAN,XANOMELINE,<BLQ,ug/ml,<BLQ,,ug/ml,Imaginary Labs,PLASMA,0.01,BASELINE,3,1,2012-08-05T12:00:00,1,12h Post-dose,12
29,CDISCPILOT01,PC,01-701-1023,11,XAN,XANOMELINE,<BLQ,ug/ml,<BLQ,,ug/ml,Imaginary Labs,PLASMA,0.01,BASELINE,3,1,2012-08-05T16:00:00,1,16h Post-dose,16
30,CDISCPILOT01,PC,01-701-1023,12,XAN,XANOMELINE,<BLQ,ug/ml,<BLQ,,ug/ml,Imaginary Labs,PLASMA,0.01,BASELINE,3,1,2012-08-06T00:00:00,2,24h Post-dose,24
31,CDISCPILOT01,PC,01-701-1023,13,XAN,XANOMELINE,<BLQ,ug/ml,<BLQ,,ug/ml,Imaginary Labs,PLASMA,0.01,BASELINE,3,1,2012-08-06T12:00:00,2,36h Post-dose,36
32,CDISCPILOT01,PC,01-701-1023,14,XAN,XANOMELINE,<BLQ,ug/ml,<BLQ,,ug/ml,Imaginary Labs,PLASMA,0.01,BASELINE,3,1,2012-08-07T00:00:00,3,48h Post-dose,48
33,CDISCPILOT01,PC,01-701-1023,15,XAN,XANOMELINE,<BLQ,ug/ml,<BLQ,,ug/ml,Imaginary Labs,URINE,0.01,BASELINE,3,1,2012-08-05T06:00:00,1,0-6h Post-dose,3
34,CDISCPILOT01,PC,01-701-1023,16,XAN,XANOMELINE,<BLQ,ug/ml,<BLQ,,ug/ml,Imaginary Labs,URINE,0.01,BASELINE,3,1,2012-08-05T12:00:00,1,6-12h Post-dose,9
35,CDISCPILOT01,PC,01-701-1023,17,XAN,XANOMELINE,<BLQ,ug/ml,<BLQ,,ug/ml,Imaginary Labs,URINE,0.01,BASELINE,3,1,2012-08-06T00:00:00,2,12-24h Post-dose,18
36,CDISCPILOT01,PC,01-701-1023,18,XAN,XANOMELINE,<BLQ,ug/ml,<BLQ,,ug/ml,Imaginary Labs,URINE,0.01,BASELINE,3,1,2012-08-07T00:00:00,3,24-48h Post-dose,37
37,CDISCPILOT01,PC,01-701-1028,1,XAN,XANOMELINE,<BLQ,ug/ml,<BLQ,0,ug/ml,Imaginary Labs,PLASMA,0.01,BASELINE,3,1,2013-07-18T23:30:00,-1,Pre-dose,-0.5
38,CDISCPILOT01,PC,01-701-1028,2,XAN,XANOMELINE,0.101566224882241,ug/ml,0.101566224882241,0.10156622488224114,ug/ml,Imaginary Labs,PLASMA,0.01,BASELINE,3,1,2013-07-19T00:05:00,1,5 Min Post-dose,0.08
39,CDISCPILOT01,PC,01-701-1028,3,XAN,XANOMELINE,0.546901773708848,ug/ml,0.546901773708848,0.5469017737088481,ug/ml,Imaginary Labs,PLASMA,0.01,BASELINE,3,1,2013-07-19T00:30:00,1,30 Min Post-dose,0.5
40,CDISCPILOT01,PC,01-701-1028,4,XAN,XANOMELINE,0.925465387145289,ug/ml,0.925465387145289,0.9254653871452886,ug/ml,Imaginary Labs,PLASMA,0.01,BASELINE,3,1,2013-07-19T01:00:00,1,1h Post-dose,1
41,CDISCPILOT01,PC,01-701-1028,5,XAN,XANOMELINE,1.18750587834024,ug/ml,1.18750587834024,1.1875058783402361,ug/ml,Imaginary Labs,PLASMA,0.01,BASELINE,3,1,2013-07-19T01:30:00,1,1.5h Post-dose,1.5
42,CDISCPILOT01,PC,01-701-1028,6,XAN,XANOMELINE,1.36888944661923,ug/ml,1.36888944661923,1.3688894466192254,ug/ml,Imaginary Labs,PLASMA,0.01,BASELINE,3,1,2013-07-19T02:00:00,1,2h Post-dose,2
43,CDISCPILOT01,PC,01-701-1028,7,XAN,XANOMELINE,1.68314757616444,ug/ml,1.68314757616444,1.6831475761644397,ug/ml,Imaginary Labs,PLASMA,0.01,BASELINE,3,1,2013-07-19T04:00:00,1,4h Post-dose,4
44,CDISCPILOT01,PC,01-701-1028,8,XAN,XANOMELINE,1.75529231526602,ug/ml,1.75529231526602,1.755292315266024,ug/ml,Imaginary Labs,PLASMA,0.01,BASELINE,3,1,2013-07-19T06:00:00,1,6h Post-dose,6
45,CDISCPILOT01,PC,01-701-1028,9,XAN,XANOMELINE,1.77185469787668,ug/ml,1.77185469787668,1.7718546978766763,ug/ml,Imaginary Labs,PLASMA,0.01,BASELINE,3,1,2013-07-19T08:00:00,1,8h Post-dose,8
46,CDISCPILOT01,PC,01-701-1028,10,XAN,XANOMELINE,0.495035846465258,ug/ml,0.495035846465258,0.49503584646525783,ug/ml,Imaginary Labs,PLASMA,0.01,BASELINE,3,1,2013-07-19T12:00:00,1,12h Post-dose,12
47,CDISCPILOT01,PC,01-701-1028,11,XAN,XANOMELINE,0.13792316325323,ug/ml,0.13792316325323,0.13792316325323037,ug/ml,Imaginary Labs,PLASMA,0.01,BASELINE,3,1,2013-07-19T16:00:00,1,16h Post-dose,16
48,CDISCPILOT01,PC,01-701-1028,12,XAN,XANOMELINE,0.0107062734363561,ug/ml,0.0107062734363561,0.010706273436356134,ug/ml,Imaginary Labs,PLASMA,0.01,BASELINE,3,1,2013-07-20T00:00:00,2,24h Post-dose,24
49,CDISCPILOT01,PC,01-701-1028,13,XAN,XANOMELINE,<BLQ,ug/ml,<BLQ,,ug/ml,Imaginary Labs,PLASMA,0.01,BASELINE,3,1,2013-07-20T12:00:00,2,36h Post-dose,36
50,CDISCPILOT01,PC,01-701-1028,14,XAN,XANOMELINE,<BLQ,ug/ml,<BLQ,,ug/ml,Imaginary Labs,PLASMA,0.01,BASELINE,3,1,2013-07-21T00:00:00,3,48h Post-dose,48
51,CDISCPILOT01,PC,01-701-1028,15,XAN,XANOMELINE,24.9423721084785,ug/ml,24.9423721084785,24.94237210847847,ug/ml,Imaginary Labs,URINE,0.01,BASELINE,3,1,2013-07-19T06:00:00,1,0-6h Post-dose,3
52,CDISCPILOT01,PC,01-701-1028,16,XAN,XANOMELINE,20.527751057357,ug/ml,20.527751057357,20.527751057356966,ug/ml,Imaginary Labs,URINE,0.01,BASELINE,3,1,2013-07-19T12:00:00,1,6-12h Post-dose,9
53,CDISCPILOT01,PC,01-701-1028,17,XAN,XANOMELINE,11.698508955114,ug/ml,11.698508955114,11.698508955113962,ug/ml,Imaginary Labs,URINE,0.01,BASELINE,3,1,2013-07-20T00:00:00,2,12-24h Post-dose,18
54,CDISCPILOT01,PC,01-701-1028,18,XAN,XANOMELINE,<BLQ,ug/ml,<BLQ,,ug/ml,Imaginary Labs,URINE,0.01,BASELINE,3,1,2013-07-21T00:00:00,3,24-48h Post-dose,37
55,CDISCPILOT01,PC,01-701-1033,1,XAN,XANOMELINE,<BLQ,ug/ml,<BLQ,0,ug/ml,Imaginary Labs,PLASMA,0.01,BASELINE,3,1,2014-03-17T23:30:00,-1,Pre-dose,-0.5
56,CDISCPILOT01,PC,01-701-1033,2,XAN,XANOMELINE,0.100525498178961,ug/ml,0.100525498178961,0.10052549817896052,ug/ml,Imaginary Labs,PLASMA,0.01,BASELINE,3,1,2014-03-18T00:05:00,1,5 Min Post-dose,0.08
57,CDISCPILOT01,PC,01-701-1033,3,XAN,XANOMELINE,0.547963037065304,ug/ml,0.547963037065304,0.5479630370653037,ug/ml,Imaginary Labs,PLASMA,0.01,BASELINE,3,1,2014-03-18T00:30:00,1,30 Min Post-dose,0.5
58,CDISCPILOT01,PC,01-701-1033,4,XAN,XANOMELINE,0.939306678548877,ug/ml,0.939306678548877,0.9393066785488768,ug/ml,Imaginary Labs,PLASMA,0.01,BASELINE,3,1,2014-03-18T01:00:00,1,1h Post-dose,1
59,CDISCPILOT01,PC,01-701-1033,5,XAN,XANOMELINE,1.21879605168222,ug/ml,1.21879605168222,1.218796051682218,ug/ml,Imaginary Labs,PLASMA,0.01,BASELINE,3,1,2014-03-18T01:30:00,1,1.5h Post-dose,1.5
60,CDISCPILOT01,PC,01-701-1033,6,XAN,XANOMELINE,1.41840146598853,ug/ml,1.41840146598853,1.4184014659885265,ug/ml,Imaginary Labs,PLASMA,0.01,BASELINE,3,1,2014-03-18T02:00:00,1,2h Post-dose,2
61,CDISCPILOT01,PC,01-701-1033,7,XAN,XANOMELINE,1.78740221059809,ug/ml,1.78740221059809,1.787402210598094,ug/ml,Imaginary Labs,PLASMA,0.01,BASELINE,3,1,2014-03-18T04:00:00,1,4h Post-dose,4
62,CDISCPILOT01,PC,01-701-1033,8,XAN,XANOMELINE,1.8833986916984,ug/ml,1.8833986916984,1.8833986916984014,ug/ml,Imaginary Labs,PLASMA,0.01,BASELINE,3,1,2014-03-18T06:00:00,1,6h Post-dose,6
63,CDISCPILOT01,PC,01-701-1033,9,XAN,XANOMELINE,1.90837242012107,ug/ml,1.90837242012107,1.908372420121069,ug/ml,Imaginary Labs,PLASMA,0.01,BASELINE,3,1,2014-03-18T08:00:00,1,8h Post-dose,8
64,CDISCPILOT01,PC,01-701-1033,10,XAN,XANOMELINE,0.595418121736485,ug/ml,0.595418121736485,0.595418121736485,ug/ml,Imaginary Labs,PLASMA,0.01,BASELINE,3,1,2014-03-18T12:00:00,1,12h Post-dose,12
65,CDISCPILOT01,PC,01-701-1033,11,XAN,XANOMELINE,0.184921374265158,ug/ml,0.184921374265158,0.1849213742651578,ug/ml,Imaginary Labs,PLASMA,0.01,BASELINE,3,1,2014-03-18T16:00:00,1,16h Post-dose,16
66,CDISCPILOT01,PC,01-701-1033,12,XAN,XANOMELINE,0.0178368122132096,ug/ml,0.0178368122132096,0.01783681221320965,ug/ml,Imaginary Labs,PLASMA,0.01,BASELINE,3,1,2014-03-19T00:00:00,2,24h Post-dose,24
67,CDISCPILOT01,PC,01-701-1033,13,XAN,XANOMELINE,<BLQ,ug/ml,<BLQ,,ug/ml,Imaginary Labs,PLASMA,0.01,BASELINE,3,1,2014-03-19T12:00:00,2,36h Post-dose,36
68,CDISCPILOT01,PC,01-701-1033,14,XAN,XANOMELINE,<BLQ,ug/ml,<BLQ,,ug/ml,Imaginary Labs,PLASMA,0.01,BASELINE,3,1,2014-03-20T00:00:00,3,48h Post-dose,48
69,CDISCPILOT01,PC,01-701-1033,15,XAN,XANOMELINE,28.0440239764719,ug/ml,28.0440239764719,28.044023976471927,ug/ml,Imaginary Labs,URINE,0.01,BASELINE,3,1,2014-03-18T06:00:00,1,0-6h Post-dose,3
70,CDISCPILOT01,PC,01-701-1033,16,XAN,XANOMELINE,24.0045625973928,ug/ml,24.0045625973928,24.00456259739278,ug/ml,Imaginary Labs,URINE,0.01,BASELINE,3,1,2014-03-18T12:00:00,1,6-12h Post-dose,9
71,CDISCPILOT01,PC,01-701-1033,17,XAN,XANOMELINE,15.9256398392345,ug/ml,15.9256398392345,15.925639839234485,ug/ml,Imaginary Labs,URINE,0.01,BASELINE,3,1,2014-03-19T00:00:00,2,12-24h Post-dose,18
72,CDISCPILOT01,PC,01-701-1033,18,XAN,XANOMELINE,<BLQ,ug/ml,<BLQ,,ug/ml,Imaginary Labs,URINE,0.01,BASELINE,3,1,2014-03-20T00:00:00,3,24-48h Post-dose,37
73,CDISCPILOT01,PC,01-701-1034,1,XAN,XANOMELINE,<BLQ,ug/ml,<BLQ,0,ug/ml,Imaginary Labs,PLASMA,0.01,BASELINE,3,1,2014-06-30T23:30:00,-1,Pre-dose,-0.5
74,CDISCPILOT01,PC,01-701-1034,2,XAN,XANOMELINE,0.105029863593155,ug/ml,0.105029863593155,0.10502986359315457,ug/ml,Imaginary Labs,PLASMA,0.01,BASELINE,3,1,2014-07-01T00:05:00,1,5 Min Post-dose,0.08
75,CDISCPILOT01,PC,01-701-1034,3,XAN,XANOMELINE,0.568527191476215,ug/ml,0.568527191476215,0.5685271914762146,ug/ml,Imaginary Labs,PLASMA,0.01,BASELINE,3,1,2014-07-01T00:30:00,1,30 Min Post-dose,0.5
76,CDISCPILOT01,PC,01-701-1034,4,XAN,XANOMELINE,0.967379251905314,ug/ml,0.967379251905314,0.9673792519053143,ug/ml,Imaginary Labs,PLASMA,0.01,BASELINE,3,1,2014-07-01T01:00:00,1,1h Post-dose,1
77,CDISCPILOT01,PC,01-701-1034,5,XAN,XANOMELINE,1.24719518418372,ug/ml,1.24719518418372,1.2471951841837159,ug/ml,Imaginary Labs,PLASMA,0.01,BASELINE,3,1,2014-07-01T01:30:00,1,1.5h Post-dose,1.5
78,CDISCPILOT01,PC,01-701-1034,6,XAN,XANOMELINE,1.44350094194412,ug/ml,1.44350094194412,1.4435009419441154,ug/ml,Imaginary Labs,PLASMA,0.01,BASELINE,3,1,2014-07-01T02:00:00,1,2h Post-dose,2
79,CDISCPILOT01,PC,01-701-1034,7,XAN,XANOMELINE,1.79317182280164,ug/ml,1.79317182280164,1.7931718228016391,ug/ml,Imaginary Labs,PLASMA,0.01,BASELINE,3,1,2014-07-01T04:00:00,1,4h Post-dose,4
80,CDISCPILOT01,PC,01-701-1034,8,XAN,XANOMELINE,1.87787542178579,ug/ml,1.87787542178579,1.877875421785789,ug/ml,Imaginary Labs,PLASMA,0.01,BASELINE,3,1,2014-07-01T06:00:00,1,6h Post-dose,6
81,CDISCPILOT01,PC,01-701-1034,9,XAN,XANOMELINE,1.89839385804583,ug/ml,1.89839385804583,1.8983938580458302,ug/ml,Imaginary Labs,PLASMA,0.01,BASELINE,3,1,2014-07-01T08:00:00,1,8h Post-dose,8
82,CDISCPILOT01,PC,01-701-1034,10,XAN,XANOMELINE,0.556083982494217,ug/ml,0.556083982494217,0.5560839824942169,ug/ml,Imaginary Labs,PLASMA,0.01,BASELINE,3,1,2014-07-01T12:00:00,1,12h Post-dose,12
83,CDISCPILOT01,PC,01-701-1034,11,XAN,XANOMELINE,0.162329138205261,ug/ml,0.162329138205261,0.16232913820526063,ug/ml,Imaginary Labs,PLASMA,0.01,BASELINE,3,1,2014-07-01T16:00:00,1,16h Post-dose,16
84,CDISCPILOT01,PC,01-701-1034,12,XAN,XANOMELINE,0.0138327547613956,ug/ml,0.0138327547613956,0.013832754761395649,ug/ml,Imaginary Labs,PLASMA,0.01,BASELINE,3,1,2014-07-02T00:00:00,2,24h Post-dose,24
85,CDISCPILOT01,PC,01-701-1034,13,XAN,XANOMELINE,<BLQ,ug/ml,<BLQ,,ug/ml,Imaginary Labs,PLASMA,0.01,BASELINE,3,1,2014-07-02T12:00:00,2,36h Post-dose,36
86,CDISCPILOT01,PC,01-701-1034,14,XAN,XANOMELINE,<BLQ,ug/ml,<BLQ,,ug/ml,Imaginary Labs,PLASMA,0.01,BASELINE,3,1,2014-07-03T00:00:00,3,48h Post-dose,48
87,CDISCPILOT01,PC,01-701-1034,15,XAN,XANOMELINE,26.2155023255361,ug/ml,26.2155023255361,26.215502325536082,ug/ml,Imaginary Labs,URINE,0.01,BASELINE,3,1,2014-07-01T06:00:00,1,0-6h Post-dose,3
88,CDISCPILOT01,PC,01-701-1034,16,XAN,XANOMELINE,21.9619994856393,ug/ml,21.9619994856393,21.961999485639254,ug/ml,Imaginary Labs,URINE,0.01,BASELINE,3,1,2014-07-01T12:00:00,1,6-12h Post-dose,9
89,CDISCPILOT01,PC,01-701-1034,17,XAN,XANOMELINE,13.4549938058456,ug/ml,13.4549938058456,13.4549938058456,ug/ml,Imaginary Labs,URINE,0.01,BASELINE,3,1,2014-07-02T00:00:00,2,12-24h Post-dose,18
90,CDISCPILOT01,PC,01-701-1034,18,XAN,XANOMELINE,<BLQ,ug/ml,<BLQ,,ug/ml,Imaginary Labs,URINE,0.01,BASELINE,3,1,2014-07-03T00:00:00,3,24-48h Post-dose,37
91,CDISCPILOT01,PC,01-701-1047,1,XAN,XANOMELINE,<BLQ,ug/ml,<BLQ,0,ug/ml,Imaginary Labs,PLASMA,0.01,BASELINE,3,1,2013-02-11T23:30:00,-1,Pre-dose,-0.5
92,CDISCPILOT01,PC,01-701-1047,2,XAN,XANOMELINE,<BLQ,ug/ml,<BLQ,,ug/ml,Imaginary Labs,PLASMA,0.01,BASELINE,3,1,2013-02-12T00:05:00,1,5 Min Post-dose,0.08
93,CDISCPILOT01,PC,01-701-1047,3,XAN,XANOMELINE,<BLQ,ug/ml,<BLQ,,ug/ml,Imaginary Labs,PLASMA,0.01,BASELINE,3,1,2013-02-12T00:30:00,1,30 Min Post-dose,0.5
94,CDISCPILOT01,PC,01-701-1047,4,XAN,XANOMELINE,<BLQ,ug/ml,<BLQ,,ug/ml,Imaginary Labs,PLASMA,0.01,BASELINE,3,1,2013-02-12T01:00:00,1,1h Post-dose,1
95,CDISCPILOT01,PC,01-701-1047,5,XAN,XANOMELINE,<BLQ,ug/ml,<BLQ,,ug/ml,Imaginary Labs,PLASMA,0.01,BASELINE,3,1,2013-02-12T01:30:00,1,1.5h Post-dose,1.5
96,CDISCPILOT01,PC,01-701-1047,6,XAN,XANOMELINE,<BLQ,ug/ml,<BLQ,,ug/ml,Imaginary Labs,PLASMA,0.01,BASELINE,3,1,2013-02-12T02:00:00,1,2h Post-dose,2
97,CDISCPILOT01,PC,01-701-1047,7,XAN,XANOMELINE,<BLQ,ug/ml,<BLQ,,ug/ml,Imaginary Labs,PLASMA,0.01,BASELINE,3,1,2013-02-12T04:00:00,1,4h Post-dose,4
98,CDISCPILOT01,PC,01-701-1047,8,XAN,XANOMELINE,<BLQ,ug/ml,<BLQ,,ug/ml,Imaginary Labs,PLASMA,0.01,BASELINE,3,1,2013-02-12T06:00:00,1,6h Post-dose,6
99,CDISCPILOT01,PC,01-701-1047,9,XAN,XANOMELINE,<BLQ,ug/ml,<BLQ,,ug/ml,Imaginary Labs,PLASMA,0.01,BASELINE,3,1,2013-02-12T08:00:00,1,8h Post-dose,8
100,CDISCPILOT01,PC,01-701-1047,10,XAN,XANOMELINE,<BLQ,ug/ml,<BLQ,,ug/ml,Imaginary Labs,PLASMA,0.01,BASELINE,3,1,2013-02-12T12:00:00,1,12h Post-dose,12
101,CDISCPILOT01,PC,01-701-1047,11,XAN,XANOMELINE,<BLQ,ug/ml,<BLQ,,ug/ml,Imaginary Labs,PLASMA,0.01,BASELINE,3,1,2013-02-12T16:00:00,1,16h Post-dose,16
102,CDISCPILOT01,PC,01-701-1047,12,XAN,XANOMELINE,<BLQ,ug/ml,<BLQ,,ug/ml,Imaginary Labs,PLASMA,0.01,BASELINE,3,1,2013-02-13T00:00:00,2,24h Post-dose,24
103,CDISCPILOT01,PC,01-701-1047,13,XAN,XANOMELINE,<BLQ,ug/ml,<BLQ,,ug/ml,Imaginary Labs,PLASMA,0.01,BASELINE,3,1,2013-02-13T12:00:00,2,36h Post-dose,36
104,CDISCPILOT01,PC,01-701-1047,14,XAN,XANOMELINE,<BLQ,ug/ml,<BLQ,,ug/ml,Imaginary Labs,PLASMA,0.01,BASELINE,3,1,2013-02-14T00:00:00,3,48h Post-dose,48
105,CDISCPILOT01,PC,01-701-1047,15,XAN,XANOMELINE,<BLQ,ug/ml,<BLQ,,ug/ml,Imaginary Labs,URINE,0.01,BASELINE,3,1,2013-02-12T06:00:00,1,0-6h Post-dose,3
106,CDISCPILOT01,PC,01-701-1047,16,XAN,XANOMELINE,<BLQ,ug/ml,<BLQ,,ug/ml,Imaginary Labs,URINE,0.01,BASELINE,3,1,2013-02-12T12:00:00,1,6-12h Post-dose,9
107,CDISCPILOT01,PC,01-701-1047,17,XAN,XANOMELINE,<BLQ,ug/ml,<BLQ,,ug/ml,Imaginary Labs,URINE,0.01,BASELINE,3,1,2013-02-13T00:00:00,2,12-24h Post-dose,18
108,CDISCPILOT01,PC,01-701-1047,18,XAN,XANOMELINE,<BLQ,ug/ml,<BLQ,,ug/ml,Imaginary Labs,URINE,0.01,BASELINE,3,1,2013-02-14T00:00:00,3,24-48h Post-dose,37
109,CDISCPILOT01,PC,01-701-1097,1,XAN,XANOMELINE,<BLQ,ug/ml,<BLQ,0,ug/ml,Imaginary Labs,PLASMA,0.01,BASELINE,3,1,2013-12-31T23:30:00,-1,Pre-dose,-0.5
110,CDISCPILOT01,PC,01-701-1097,2,XAN,XANOMELINE,0.099494877890023,ug/ml,0.099494877890023,0.09949487789002295,ug/ml,Imaginary Labs,PLASMA,0.01,BASELINE,3,1,2014-01-01T00:05:00,1,5 Min Post-dose,0.08
111,CDISCPILOT01,PC,01-701-1097,3,XAN,XANOMELINE,0.54132546276376,ug/ml,0.54132546276376,0.54132546276376,ug/ml,Imaginary Labs,PLASMA,0.01,BASELINE,3,1,2014-01-01T00:30:00,1,30 Min Post-dose,0.5
112,CDISCPILOT01,PC,01-701-1097,4,XAN,XANOMELINE,0.926079621425326,ug/ml,0.926079621425326,0.9260796214253261,ug/ml,Imaginary Labs,PLASMA,0.01,BASELINE,3,1,2014-01-01T01:00:00,1,1h Post-dose,1
113,CDISCPILOT01,PC,01-701-1097,5,XAN,XANOMELINE,1.19954867616287,ug/ml,1.19954867616287,1.1995486761628706,ug/ml,Imaginary Labs,PLASMA,0.01,BASELINE,3,1,2014-01-01T01:30:00,1,1.5h Post-dose,1.5
114,CDISCPILOT01,PC,01-701-1097,6,XAN,XANOMELINE,1.39392038655373,ug/ml,1.39392038655373,1.393920386553734,ug/ml,Imaginary Labs,PLASMA,0.01,BASELINE,3,1,2014-01-01T02:00:00,1,2h Post-dose,2
115,CDISCPILOT01,PC,01-701-1097,7,XAN,XANOMELINE,1.74966426625696,ug/ml,1.74966426625696,1.7496642662569635,ug/ml,Imaginary Labs,PLASMA,0.01,BASELINE,3,1,2014-01-01T04:00:00,1,4h Post-dose,4
116,CDISCPILOT01,PC,01-701-1097,8,XAN,XANOMELINE,1.84045403385566,ug/ml,1.84045403385566,1.8404540338556648,ug/ml,Imaginary Labs,PLASMA,0.01,BASELINE,3,1,2014-01-01T06:00:00,1,6h Post-dose,6
117,CDISCPILOT01,PC,01-701-1097,9,XAN,XANOMELINE,1.86362458539826,ug/ml,1.86362458539826,1.8636245853982596,ug/ml,Imaginary Labs,PLASMA,0.01,BASELINE,3,1,2014-01-01T08:00:00,1,8h Post-dose,8
118,CDISCPILOT01,PC,01-701-1097,10,XAN,XANOMELINE,0.571658909665199,ug/ml,0.571658909665199,0.5716589096651994,ug/ml,Imaginary Labs,PLASMA,0.01,BASELINE,3,1,2014-01-01T12:00:00,1,12h Post-dose,12
119,CDISCPILOT01,PC,01-701-1097,11,XAN,XANOMELINE,0.174610039461187,ug/ml,0.174610039461187,0.1746100394611873,ug/ml,Imaginary Labs,PLASMA,0.01,BASELINE,3,1,2014-01-01T16:00:00,1,16h Post-dose,16
120,CDISCPILOT01,PC,01-701-1097,12,XAN,XANOMELINE,0.016290472392322,ug/ml,0.016290472392322,0.016290472392322015,ug/ml,Imaginary Labs,PLASMA,0.01,BASELINE,3,1,2014-01-02T00:00:00,2,24h Post-dose,24
121,CDISCPILOT01,PC,01-701-1097,13,XAN,XANOMELINE,<BLQ,ug/ml,<BLQ,,ug/ml,Imaginary Labs,PLASMA,0.01,BASELINE,3,1,2014-01-02T12:00:00,2,36h Post-dose,36
122,CDISCPILOT01,PC,01-701-1097,14,XAN,XANOMELINE,<BLQ,ug/ml,<BLQ,,ug/ml,Imaginary Labs,PLASMA,0.01,BASELINE,3,1,2014-01-03T00:00:00,3,48h Post-dose,48
123,CDISCPILOT01,PC,01-701-1097,15,XAN,XANOMELINE,27.5359602415957,ug/ml,27.5359602415957,27.535960241595685,ug/ml,Imaginary Labs,URINE,0.01,BASELINE,3,1,2014-01-01T06:00:00,1,0-6h Post-dose,3
124,CDISCPILOT01,PC,01-701-1097,16,XAN,XANOMELINE,23.438966905747,ug/ml,23.438966905747,23.43896690574701,ug/ml,Imaginary Labs,URINE,0.01,BASELINE,3,1,2014-01-01T12:00:00,1,6-12h Post-dose,9
125,CDISCPILOT01,PC,01-701-1097,17,XAN,XANOMELINE,15.2449802340497,ug/ml,15.2449802340497,15.244980234049663,ug/ml,Imaginary Labs,URINE,0.01,BASELINE,3,1,2014-01-02T00:00:00,2,12-24h Post-dose,18
126,CDISCPILOT01,PC,01-701-1097,18,XAN,XANOMELINE,<BLQ,ug/ml,<BLQ,,ug/ml,Imaginary Labs,URINE,0.01,BASELINE,3,1,2014-01-03T00:00:00,3,24-48h Post-dose,37
127,CDISCPILOT01,PC,01-701-1111,1,XAN,XANOMELINE,<BLQ,ug/ml,<BLQ,0,ug/ml,Imaginary Labs,PLASMA,0.01,BASELINE,3,1,2012-09-06T23:30:00,-1,Pre-dose,-0.5
128,CDISCPILOT01,PC,01-701-1111,2,XAN,XANOMELINE,0.0909851670359752,ug/ml,0.0909851670359752,0.09098516703597516,ug/ml,Imaginary Labs,PLASMA,0.01,BASELINE,3,1,2012-09-07T00:05:00,1,5 Min Post-dose,0.08
129,CDISCPILOT01,PC,01-701-1111,3,XAN,XANOMELINE,0.497443678055976,ug/ml,0.497443678055976,0.49744367805597567,ug/ml,Imaginary Labs,PLASMA,0.01,BASELINE,3,1,2012-09-07T00:30:00,1,30 Min Post-dose,0.5
130,CDISCPILOT01,PC,01-701-1111,4,XAN,XANOMELINE,0.85541995611284,ug/ml,0.85541995611284,0.8554199561128405,ug/ml,Imaginary Labs,PLASMA,0.01,BASELINE,3,1,2012-09-07T01:00:00,1,1h Post-dose,1
131,CDISCPILOT01,PC,01-701-1111,5,XAN,XANOMELINE,1.11303106125795,ug/ml,1.11303106125795,1.113031061257945,ug/ml,Imaginary Labs,PLASMA,0.01,BASELINE,3,1,2012-09-07T01:30:00,1,1.5h Post-dose,1.5
132,CDISCPILOT01,PC,01-701-1111,6,XAN,XANOMELINE,1.29841619865954,ug/ml,1.29841619865954,1.298416198659537,ug/ml,Imaginary Labs,PLASMA,0.01,BASELINE,3,1,2012-09-07T02:00:00,1,2h Post-dose,2
133,CDISCPILOT01,PC,01-701-1111,7,XAN,XANOMELINE,1.64663743631036,ug/ml,1.64663743631036,1.6466374363103622,ug/ml,Imaginary Labs,PLASMA,0.01,BASELINE,3,1,2012-09-07T04:00:00,1,4h Post-dose,4
134,CDISCPILOT01,PC,01-701-1111,8,XAN,XANOMELINE,1.74002662113127,ug/ml,1.74002662113127,1.7400266211312674,ug/ml,Imaginary Labs,PLASMA,0.01,BASELINE,3,1,2012-09-07T06:00:00,1,6h Post-dose,6
135,CDISCPILOT01,PC,01-701-1111,9,XAN,XANOMELINE,1.76507259449105,ug/ml,1.76507259449105,1.7650725944910504,ug/ml,Imaginary Labs,PLASMA,0.01,BASELINE,3,1,2012-09-07T08:00:00,1,8h Post-dose,8
136,CDISCPILOT01,PC,01-701-1111,10,XAN,XANOMELINE,0.565789669880058,ug/ml,0.565789669880058,0.5657896698800575,ug/ml,Imaginary Labs,PLASMA,0.01,BASELINE,3,1,2012-09-07T12:00:00,1,12h Post-dose,12
137,CDISCPILOT01,PC,01-701-1111,11,XAN,XANOMELINE,0.180424246733336,ug/ml,0.180424246733336,0.18042424673333615,ug/ml,Imaginary Labs,PLASMA,0.01,BASELINE,3,1,2012-09-07T16:00:00,1,16h Post-dose,16
138,CDISCPILOT01,PC,01-701-1111,12,XAN,XANOMELINE,0.0183474061386845,ug/ml,0.0183474061386845,0.018347406138684474,ug/ml,Imaginary Labs,PLASMA,0.01,BASELINE,3,1,2012-09-08T00:00:00,2,24h Post-dose,24
139,CDISCPILOT01,PC,01-701-1111,13,XAN,XANOMELINE,<BLQ,ug/ml,<BLQ,,ug/ml,Imaginary Labs,PLASMA,0.01,BASELINE,3,1,2012-09-08T12:00:00,2,36h Post-dose,36
140,CDISCPILOT01,PC,01-701-1111,14,XAN,XANOMELINE,<BLQ,ug/ml,<BLQ,,ug/ml,Imaginary Labs,PLASMA,0.01,BASELINE,3,1,2012-09-09T00:00:00,3,48h Post-dose,48
141,CDISCPILOT01,PC,01-701-1111,15,XAN,XANOMELINE,28.8770020045234,ug/ml,28.8770020045234,28.8770020045234,ug/ml,Imaginary Labs,URINE,0.01,BASELINE,3,1,2012-09-07T06:00:00,1,0-6h Post-dose,3
142,CDISCPILOT01,PC,01-701-1111,16,XAN,XANOMELINE,24.9288145830283,ug/ml,24.9288145830283,24.928814583028306,ug/ml,Imaginary Labs,URINE,0.01,BASELINE,3,1,2012-09-07T12:00:00,1,6-12h Post-dose,9
143,CDISCPILOT01,PC,01-701-1111,17,XAN,XANOMELINE,17.0324397400381,ug/ml,17.0324397400381,17.032439740038118,ug/ml,Imaginary Labs,URINE,0.01,BASELINE,3,1,2012-09-08T00:00:00,2,12-24h Post-dose,18
144,CDISCPILOT01,PC,01-701-1111,18,XAN,XANOMELINE,1.23969005405774,ug/ml,1.23969005405774,1.2396900540577391,ug/ml,Imaginary Labs,URINE,0.01,BASELINE,3,1,2012-09-09T00:00:00,3,24-48h Post-dose,37
145,CDISCPILOT01,PC,01-701-1115,1,XAN,XANOMELINE,<BLQ,ug/ml,<BLQ,0,ug/ml,Imaginary Labs,PLASMA,0.01,BASELINE,3,1,2012-11-29T23:30:00,-1,Pre-dose,-0.5
146,CDISCPILOT01,PC,01-701-1115,2,XAN,XANOMELINE,0.0988425681025821,ug/ml,0.0988425681025821,0.09884256810258212,ug/ml,Imaginary Labs,PLASMA,0.01,BASELINE,3,1,2012-11-30T00:05:00,1,5 Min Post-dose,0.08
147,CDISCPILOT01,PC,01-701-1115,3,XAN,XANOMELINE,0.536659260184877,ug/ml,0.536659260184877,0.5366592601848771,ug/ml,Imaginary Labs,PLASMA,0.01,BASELINE,3,1,2012-11-30T00:30:00,1,30 Min Post-dose,0.5
148,CDISCPILOT01,PC,01-701-1115,4,XAN,XANOMELINE,0.91607932743287,ug/ml,0.91607932743287,0.9160793274328698,ug/ml,Imaginary Labs,PLASMA,0.01,BASELINE,3,1,2012-11-30T01:00:00,1,1h Post-dose,1
149,CDISCPILOT01,PC,01-701-1115,5,XAN,XANOMELINE,1.18433070798461,ug/ml,1.18433070798461,1.1843307079846144,ug/ml,Imaginary Labs,PLASMA,0.01,BASELINE,3,1,2012-11-30T01:30:00,1,1.5h Post-dose,1.5
150,CDISCPILOT01,PC,01-701-1115,6,XAN,XANOMELINE,1.37398541889605,ug/ml,1.37398541889605,1.3739854188960539,ug/ml,Imaginary Labs,PLASMA,0.01,BASELINE,3,1,2012-11-30T02:00:00,1,2h Post-dose,2
151,CDISCPILOT01,PC,01-701-1115,7,XAN,XANOMELINE,1.71728146392731,ug/ml,1.71728146392731,1.7172814639273133,ug/ml,Imaginary Labs,PLASMA,0.01,BASELINE,3,1,2012-11-30T04:00:00,1,4h Post-dose,4
152,CDISCPILOT01,PC,01-701-1115,8,XAN,XANOMELINE,1.80305542696456,ug/ml,1.80305542696456,1.803055426964559,ug/ml,Imaginary Labs,PLASMA,0.01,BASELINE,3,1,2012-11-30T06:00:00,1,6h Post-dose,6
153,CDISCPILOT01,PC,01-701-1115,9,XAN,XANOMELINE,1.82448641296513,ug/ml,1.82448641296513,1.8244864129651253,ug/ml,Imaginary Labs,PLASMA,0.01,BASELINE,3,1,2012-11-30T08:00:00,1,8h Post-dose,8
154,CDISCPILOT01,PC,01-701-1115,10,XAN,XANOMELINE,0.549247382690298,ug/ml,0.549247382690298,0.5492473826902978,ug/ml,Imaginary Labs,PLASMA,0.01,BASELINE,3,1,2012-11-30T12:00:00,1,12h Post-dose,12
155,CDISCPILOT01,PC,01-701-1115,11,XAN,XANOMELINE,0.164702254109438,ug/ml,0.164702254109438,0.16470225410943776,ug/ml,Imaginary Labs,PLASMA,0.01,BASELINE,3,1,2012-11-30T16:00:00,1,16h Post-dose,16
156,CDISCPILOT01,PC,01-701-1115,12,XAN,XANOMELINE,0.0148102584282986,ug/ml,0.0148102584282986,0.014810258428298619,ug/ml,Imaginary Labs,PLASMA,0.01,BASELINE,3,1,2012-12-01T00:00:00,2,24h Post-dose,24
157,CDISCPILOT01,PC,01-701-1115,13,XAN,XANOMELINE,<BLQ,ug/ml,<BLQ,,ug/ml,Imaginary Labs,PLASMA,0.01,BASELINE,3,1,2012-12-01T12:00:00,2,36h Post-dose,36
158,CDISCPILOT01,PC,01-701-1115,14,XAN,XANOMELINE,<BLQ,ug/ml,<BLQ,,ug/ml,Imaginary Labs,PLASMA,0.01,BASELINE,3,1,2012-12-02T00:00:00,3,48h Post-dose,48
159,CDISCPILOT01,PC,01-701-1115,15,XAN,XANOMELINE,26.9884730428329,ug/ml,26.9884730428329,26.988473042832915,ug/ml,Imaginary Labs,URINE,0.01,BASELINE,3,1,2012-11-30T06:00:00,1,0-6h Post-dose,3
160,CDISCPILOT01,PC,01-701-1115,16,XAN,XANOMELINE,22.8278400009836,ug/ml,22.8278400009836,22.827840000983556,ug/ml,Imaginary Labs,URINE,0.01,BASELINE,3,1,2012-11-30T12:00:00,1,6-12h Post-dose,9
161,CDISCPILOT01,PC,01-701-1115,17,XAN,XANOMELINE,14.5065739172848,ug/ml,14.5065739172848,14.506573917284836,ug/ml,Imaginary Labs,URINE,0.01,BASELINE,3,1,2012-12-01T00:00:00,2,12-24h Post-dose,18
162,CDISCPILOT01,PC,01-701-1115,18,XAN,XANOMELINE,<BLQ,ug/ml,<BLQ,,ug/ml,Imaginary Labs,URINE,0.01,BASELINE,3,1,2012-12-02T00:00:00,3,24-48h Post-dose,37
163,CDISCPILOT01,PC,01-701-1118,1,XAN,XANOMELINE,<BLQ,ug/ml,<BLQ,0,ug/ml,Imaginary Labs,PLASMA,0.01,BASELINE,3,1,2014-03-11T23:30:00,-1,Pre-dose,-0.5
164,CDISCPILOT01,PC,01-701-1118,2,XAN,XANOMELINE,<BLQ,ug/ml,<BLQ,,ug/ml,Imaginary Labs,PLASMA,0.01,BASELINE,3,1,2014-03-12T00:05:00,1,5 Min Post-dose,0.08
165,CDISCPILOT01,PC,01-701-1118,3,XAN,XANOMELINE,<BLQ,ug/ml,<BLQ,,ug/ml,Imaginary Labs,PLASMA,0.01,BASELINE,3,1,2014-03-12T00:30:00,1,30 Min Post-dose,0.5
166,CDISCPILOT01,PC,01-701-1118,4,XAN,XANOMELINE,<BLQ,ug/ml,<BLQ,,ug/ml,Imaginary Labs,PLASMA,0.01,BASELINE,3,1,2014-03-12T01:00:00,1,1h Post-dose,1
167,CDISCPILOT01,PC,01-701-1118,5,XAN,XANOMELINE,<BLQ,ug/ml,<BLQ,,ug/ml,Imaginary Labs,PLASMA,0.01,BASELINE,3,1,2014-03-12T01:30:00,1,1.5h Post-dose,1.5
168,CDISCPILOT01,PC,01-701-1118,6,XAN,XANOMELINE,<BLQ,ug/ml,<BLQ,,ug/ml,Imaginary Labs,PLASMA,0.01,BASELINE,3,1,2014-03-12T02:00:00,1,2h Post-dose,2
169,CDISCPILOT01,PC,01-701-1118,7,XAN,XANOMELINE,<BLQ,ug/ml,<BLQ,,ug/ml,Imaginary Labs,PLASMA,0.01,BASELINE,3,1,2014-03-12T04:00:00,1,4h Post-dose,4
170,CDISCPILOT01,PC,01-701-1118,8,XAN,XANOMELINE,<BLQ,ug/ml,<BLQ,,ug/ml,Imaginary Labs,PLASMA,0.01,BASELINE,3,1,2014-03-12T06:00:00,1,6h Post-dose,6
171,CDISCPILOT01,PC,01-701-1118,9,XAN,XANOMELINE,<BLQ,ug/ml,<BLQ,,ug/ml,Imaginary Labs,PLASMA,0.01,BASELINE,3,1,2014-03-12T08:00:00,1,8h Post-dose,8
172,CDISCPILOT01,PC,01-701-1118,10,XAN,XANOMELINE,<BLQ,ug/ml,<BLQ,,ug/ml,Imaginary Labs,PLASMA,0.01,BASELINE,3,1,2014-03-12T12:00:00,1,12h Post-dose,12
173,CDISCPILOT01,PC,01-701-1118,11,XAN,XANOMELINE,<BLQ,ug/ml,<BLQ,,ug/ml,Imaginary Labs,PLASMA,0.01,BASELINE,3,1,2014-03-12T16:00:00,1,16h Post-dose,16
174,CDISCPILOT01,PC,01-701-1118,12,XAN,XANOMELINE,<BLQ,ug/ml,<BLQ,,ug/ml,Imaginary Labs,PLASMA,0.01,BASELINE,3,1,2014-03-13T00:00:00,2,24h Post-dose,24
175,CDISCPILOT01,PC,01-701-1118,13,XAN,XANOMELINE,<BLQ,ug/ml,<BLQ,,ug/ml,Imaginary Labs,PLASMA,0.01,BASELINE,3,1,2014-03-13T12:00:00,2,36h Post-dose,36
176,CDISCPILOT01,PC,01-701-1118,14,XAN,XANOMELINE,<BLQ,ug/ml,<BLQ,,ug/ml,Imaginary Labs,PLASMA,0.01,BASELINE,3,1,2014-03-14T00:00:00,3,48h Post-dose,48
177,CDISCPILOT01,PC,01-701-1118,15,XAN,XANOMELINE,<BLQ,ug/ml,<BLQ,,ug/ml,Imaginary Labs,URINE,0.01,BASELINE,3,1,2014-03-12T06:00:00,1,0-6h Post-dose,3
178,CDISCPILOT01,PC,01-701-1118,16,XAN,XANOMELINE,<BLQ,ug/ml,<BLQ,,ug/ml,Imaginary Labs,URINE,0.01,BASELINE,3,1,2014-03-12T12:00:00,1,6-12h Post-dose,9
179,CDISCPILOT01,PC,01-701-1118,17,XAN,XANOMELINE,<BLQ,ug/ml,<BLQ,,ug/ml,Imaginary Labs,URINE,0.01,BASELINE,3,1,2014-03-13T00:00:00,2,12-24h Post-dose,18
180,CDISCPILOT01,PC,01-701-1118,18,XAN,XANOMELINE,<BLQ,ug/ml,<BLQ,,ug/ml,Imaginary Labs,URINE,0.01,BASELINE,3,1,2014-03-14T00:00:00,3,24-48h Post-dose,37
181,CDISCPILOT01,PC,01-701-1130,1,XAN,XANOMELINE,<BLQ,ug/ml,<BLQ,0,ug/ml,Imaginary Labs,PLASMA,0.01,BASELINE,3,1,2014-02-14T23:30:00,-1,Pre-dose,-0.5
182,CDISCPILOT01,PC,01-701-1130,2,XAN,XANOMELINE,<BLQ,ug/ml,<BLQ,,ug/ml,Imaginary Labs,PLASMA,0.01,BASELINE,3,1,2014-02-15T00:05:00,1,5 Min Post-dose,0.08
183,CDISCPILOT01,PC,01-701-1130,3,XAN,XANOMELINE,<BLQ,ug/ml,<BLQ,,ug/ml,Imaginary Labs,PLASMA,0.01,BASELINE,3,1,2014-02-15T00:30:00,1,30 Min Post-dose,0.5
184,CDISCPILOT01,PC,01-701-1130,4,XAN,XANOMELINE,<BLQ,ug/ml,<BLQ,,ug/ml,Imaginary Labs,PLASMA,0.01,BASELINE,3,1,2014-02-15T01:00:00,1,1h Post-dose,1
185,CDISCPILOT01,PC,01-701-1130,5,XAN,XANOMELINE,<BLQ,ug/ml,<BLQ,,ug/ml,Imaginary Labs,PLASMA,0.01,BASELINE,3,1,2014-02-15T01:30:00,1,1.5h Post-dose,1.5
186,CDISCPILOT01,PC,01-701-1130,6,XAN,XANOMELINE,<BLQ,ug/ml,<BLQ,,ug/ml,Imaginary Labs,PLASMA,0.01,BASELINE,3,1,2014-02-15T02:00:00,1,2h Post-dose,2
187,CDISCPILOT01,PC,01-701-1130,7,XAN,XANOMELINE,<BLQ,ug/ml,<BLQ,,ug/ml,Imaginary Labs,PLASMA,0.01,BASELINE,3,1,2014-02-15T04:00:00,1,4h Post-dose,4
188,CDISCPILOT01,PC,01-701-1130,8,XAN,XANOMELINE,<BLQ,ug/ml,<BLQ,,ug/ml,Imaginary Labs,PLASMA,0.01,BASELINE,3,1,2014-02-15T06:00:00,1,6h Post-dose,6
189,CDISCPILOT01,PC,01-701-1130,9,XAN,XANOMELINE,<BLQ,ug/ml,<BLQ,,ug/ml,Imaginary Labs,PLASMA,0.01,BASELINE,3,1,2014-02-15T08:00:00,1,8h Post-dose,8
190,CDISCPILOT01,PC,01-701-1130,10,XAN,XANOMELINE,<BLQ,ug/ml,<BLQ,,ug/ml,Imaginary Labs,PLASMA,0.01,BASELINE,3,1,2014-02-15T12:00:00,1,12h Post-dose,12
191,CDISCPILOT01,PC,01-701-1130,11,XAN,XANOMELINE,<BLQ,ug/ml,<BLQ,,ug/ml,Imaginary Labs,PLASMA,0.01,BASELINE,3,1,2014-02-15T16:00:00,1,16h Post-dose,16
192,CDISCPILOT01,PC,01-701-1130,12,XAN,XANOMELINE,<BLQ,ug/ml,<BLQ,,ug/ml,Imaginary Labs,PLASMA,0.01,BASELINE,3,1,2014-02-16T00:00:00,2,24h Post-dose,24
193,CDISCPILOT01,PC,01-701-1130,13,XAN,XANOMELINE,<BLQ,ug/ml,<BLQ,,ug/ml,Imaginary Labs,PLASMA,0.01,BASELINE,3,1,2014-02-16T12:00:00,2,36h Post-dose,36
194,CDISCPILOT01,PC,01-701-1130,14,XAN,XANOMELINE,<BLQ,ug/ml,<BLQ,,ug/ml,Imaginary Labs,PLASMA,0.01,BASELINE,3,1,2014-02-17T00:00:00,3,48h Post-dose,48
195,CDISCPILOT01,PC,01-701-1130,15,XAN,XANOMELINE,<BLQ,ug/ml,<BLQ,,ug/ml,Imaginary Labs,URINE,0.01,BASELINE,3,1,2014-02-15T06:00:00,1,0-6h Post-dose,3
196,CDISCPILOT01,PC,01-701-1130,16,XAN,XANOMELINE,<BLQ,ug/ml,<BLQ,,ug/ml,Imaginary Labs,URINE,0.01,BASELINE,3,1,2014-02-15T12:00:00,1,6-12h Post-dose,9
197,CDISCPILOT01,PC,01-701-1130,17,XAN,XANOMELINE,<BLQ,ug/ml,<BLQ,,ug/ml,Imaginary Labs,URINE,0.01,BASELINE,3,1,2014-02-16T00:00:00,2,12-24h Post-dose,18
198,CDISCPILOT01,PC,01-701-1130,18,XAN,XANOMELINE,<BLQ,ug/ml,<BLQ,,ug/ml,Imaginary Labs,URINE,0.01,BASELINE,3,1,2014-02-17T00:00:00,3,24-48h Post-dose,37
199,CDISCPILOT01,PC,01-701-1133,1,XAN,XANOMELINE,<BLQ,ug/ml,<BLQ,0,ug/ml,Imaginary Labs,PLASMA,0.01,BASELINE,3,1,2012-10-27T23:30:00,-1,Pre-dose,-0.5
200,CDISCPILOT01,PC,01-701-1133,2,XAN,XANOMELINE,0.0971863457467728,ug/ml,0.0971863457467728,0.09718634574677276,ug/ml,Imaginary Labs,PLASMA,0.01,BASELINE,3,1,2012-10-28T00:05:00,1,5 Min Post-dose,0.08
201,CDISCPILOT01,PC,01-701-1133,3,XAN,XANOMELINE,0.53006481166812,ug/ml,0.53006481166812,0.5300648116681201,ug/ml,Imaginary Labs,PLASMA,0.01,BASELINE,3,1,2012-10-28T00:30:00,1,30 Min Post-dose,0.5
202,CDISCPILOT01,PC,01-701-1133,4,XAN,XANOMELINE,0.909178227769616,ug/ml,0.909178227769616,0.9091782277696162,ug/ml,Imaginary Labs,PLASMA,0.01,BASELINE,3,1,2012-10-28T01:00:00,1,1h Post-dose,1
203,CDISCPILOT01,PC,01-701-1133,5,XAN,XANOMELINE,1.18032805530832,ug/ml,1.18032805530832,1.1803280553083193,ug/ml,Imaginary Labs,PLASMA,0.01,BASELINE,3,1,2012-10-28T01:30:00,1,1.5h Post-dose,1.5
204,CDISCPILOT01,PC,01-701-1133,6,XAN,XANOMELINE,1.37426007103679,ug/ml,1.37426007103679,1.374260071036787,ug/ml,Imaginary Labs,PLASMA,0.01,BASELINE,3,1,2012-10-28T02:00:00,1,2h Post-dose,2
205,CDISCPILOT01,PC,01-701-1133,7,XAN,XANOMELINE,1.73386831910854,ug/ml,1.73386831910854,1.733868319108538,ug/ml,Imaginary Labs,PLASMA,0.01,BASELINE,3,1,2012-10-28T04:00:00,1,4h Post-dose,4
206,CDISCPILOT01,PC,01-701-1133,8,XAN,XANOMELINE,1.82796847875567,ug/ml,1.82796847875567,1.8279684787556651,ug/ml,Imaginary Labs,PLASMA,0.01,BASELINE,3,1,2012-10-28T06:00:00,1,6h Post-dose,6
207,CDISCPILOT01,PC,01-701-1133,9,XAN,XANOMELINE,1.85259205202768,ug/ml,1.85259205202768,1.8525920520276775,ug/ml,Imaginary Labs,PLASMA,0.01,BASELINE,3,1,2012-10-28T08:00:00,1,8h Post-dose,8
208,CDISCPILOT01,PC,01-701-1133,10,XAN,XANOMELINE,0.581012280106216,ug/ml,0.581012280106216,0.581012280106216,ug/ml,Imaginary Labs,PLASMA,0.01,BASELINE,3,1,2012-10-28T12:00:00,1,12h Post-dose,12
209,CDISCPILOT01,PC,01-701-1133,11,XAN,XANOMELINE,0.181363465864559,ug/ml,0.181363465864559,0.18136346586455898,ug/ml,Imaginary Labs,PLASMA,0.01,BASELINE,3,1,2012-10-28T16:00:00,1,16h Post-dose,16
210,CDISCPILOT01,PC,01-701-1133,12,XAN,XANOMELINE,0.0176717189751012,ug/ml,0.0176717189751012,0.017671718975101242,ug/ml,Imaginary Labs,PLASMA,0.01,BASELINE,3,1,2012-10-29T00:00:00,2,24h Post-dose,24
211,CDISCPILOT01,PC,01-701-1133,13,XAN,XANOMELINE,<BLQ,ug/ml,<BLQ,,ug/ml,Imaginary Labs,PLASMA,0.01,BASELINE,3,1,2012-10-29T12:00:00,2,36h Post-dose,36
212,CDISCPILOT01,PC,01-701-1133,14,XAN,XANOMELINE,<BLQ,ug/ml,<BLQ,,ug/ml,Imaginary Labs,PLASMA,0.01,BASELINE,3,1,2012-10-30T00:00:00,3,48h Post-dose,48
213,CDISCPILOT01,PC,01-701-1133,15,XAN,XANOMELINE,28.2010767396803,ug/ml,28.2010767396803,28.201076739680257,ug/ml,Imaginary Labs,URINE,0.01,BASELINE,3,1,2012-10-28T06:00:00,1,0-6h Post-dose,3
214,CDISCPILOT01,PC,01-701-1133,16,XAN,XANOMELINE,24.1791102517659,ug/ml,24.1791102517659,24.179110251765934,ug/ml,Imaginary Labs,URINE,0.01,BASELINE,3,1,2012-10-28T12:00:00,1,6-12h Post-dose,9
215,CDISCPILOT01,PC,01-701-1133,17,XAN,XANOMELINE,16.1351772759373,ug/ml,16.1351772759373,16.135177275937288,ug/ml,Imaginary Labs,URINE,0.01,BASELINE,3,1,2012-10-29T00:00:00,2,12-24h Post-dose,18
216,CDISCPILOT01,PC,01-701-1133,18,XAN,XANOMELINE,0.0473113242799954,ug/ml,0.0473113242799954,0.047311324279995404,ug/ml,Imaginary Labs,URINE,0.01,BASELINE,3,1,2012-10-30T00:00:00,3,24-48h Post-dose,37
217,CDISCPILOT01,PC,01-701-1146,1,XAN,XANOMELINE,<BLQ,ug/ml,<BLQ,0,ug/ml,Imaginary Labs,PLASMA,0.01,BASELINE,3,1,2013-05-19T23:30:00,-1,Pre-dose,-0.5
218,CDISCPILOT01,PC,01-701-1146,2,XAN,XANOMELINE,0.0937830239315385,ug/ml,0.0937830239315385,0.0937830239315385,ug/ml,Imaginary Labs,PLASMA,0.01,BASELINE,3,1,2013-05-20T00:05:00,1,5 Min Post-dose,0.08
219,CDISCPILOT01,PC,01-701-1146,3,XAN,XANOMELINE,0.51027747762276,ug/ml,0.51027747762276,0.5102774776227601,ug/ml,Imaginary Labs,PLASMA,0.01,BASELINE,3,1,2013-05-20T00:30:00,1,30 Min Post-dose,0.5
220,CDISCPILOT01,PC,01-701-1146,4,XAN,XANOMELINE,0.87301589091222,ug/ml,0.87301589091222,0.8730158909122198,ug/ml,Imaginary Labs,PLASMA,0.01,BASELINE,3,1,2013-05-20T01:00:00,1,1h Post-dose,1
221,CDISCPILOT01,PC,01-701-1146,5,XAN,XANOMELINE,1.13087394314048,ug/ml,1.13087394314048,1.1308739431404804,ug/ml,Imaginary Labs,PLASMA,0.01,BASELINE,3,1,2013-05-20T01:30:00,1,1.5h Post-dose,1.5
222,CDISCPILOT01,PC,01-701-1146,6,XAN,XANOMELINE,1.31417621459276,ug/ml,1.31417621459276,1.3141762145927567,ug/ml,Imaginary Labs,PLASMA,0.01,BASELINE,3,1,2013-05-20T02:00:00,1,2h Post-dose,2
223,CDISCPILOT01,PC,01-701-1146,7,XAN,XANOMELINE,1.64976095002993,ug/ml,1.64976095002993,1.6497609500299304,ug/ml,Imaginary Labs,PLASMA,0.01,BASELINE,3,1,2013-05-20T04:00:00,1,4h Post-dose,4
224,CDISCPILOT01,PC,01-701-1146,8,XAN,XANOMELINE,1.73545502469657,ug/ml,1.73545502469657,1.7354550246965734,ug/ml,Imaginary Labs,PLASMA,0.01,BASELINE,3,1,2013-05-20T06:00:00,1,6h Post-dose,6
225,CDISCPILOT01,PC,01-701-1146,9,XAN,XANOMELINE,1.75733764824143,ug/ml,1.75733764824143,1.7573376482414305,ug/ml,Imaginary Labs,PLASMA,0.01,BASELINE,3,1,2013-05-20T08:00:00,1,8h Post-dose,8
226,CDISCPILOT01,PC,01-701-1146,10,XAN,XANOMELINE,0.539329728939347,ug/ml,0.539329728939347,0.5393297289393474,ug/ml,Imaginary Labs,PLASMA,0.01,BASELINE,3,1,2013-05-20T12:00:00,1,12h Post-dose,12
227,CDISCPILOT01,PC,01-701-1146,11,XAN,XANOMELINE,0.164817356802327,ug/ml,0.164817356802327,0.16481735680232676,ug/ml,Imaginary Labs,PLASMA,0.01,BASELINE,3,1,2013-05-20T16:00:00,1,16h Post-dose,16
228,CDISCPILOT01,PC,01-701-1146,12,XAN,XANOMELINE,0.0153921793382467,ug/ml,0.0153921793382467,0.015392179338246673,ug/ml,Imaginary Labs,PLASMA,0.01,BASELINE,3,1,2013-05-21T00:00:00,2,24h Post-dose,24
229,CDISCPILOT01,PC,01-701-1146,13,XAN,XANOMELINE,<BLQ,ug/ml,<BLQ,,ug/ml,Imaginary Labs,PLASMA,0.01,BASELINE,3,1,2013-05-21T12:00:00,2,36h Post-dose,36
230,CDISCPILOT01,PC,01-701-1146,14,XAN,XANOMELINE,<BLQ,ug/ml,<BLQ,,ug/ml,Imaginary Labs,PLASMA,0.01,BASELINE,3,1,2013-05-22T00:00:00,3,48h Post-dose,48
231,CDISCPILOT01,PC,01-701-1146,15,XAN,XANOMELINE,27.550973968792,ug/ml,27.550973968792,27.550973968791983,ug/ml,Imaginary Labs,URINE,0.01,BASELINE,3,1,2013-05-20T06:00:00,1,0-6h Post-dose,3
232,CDISCPILOT01,PC,01-701-1146,16,XAN,XANOMELINE,23.4557015497025,ug/ml,23.4557015497025,23.455701549702532,ug/ml,Imaginary Labs,URINE,0.01,BASELINE,3,1,2013-05-20T12:00:00,1,6-12h Post-dose,9
233,CDISCPILOT01,PC,01-701-1146,17,XAN,XANOMELINE,15.2651567115236,ug/ml,15.2651567115236,15.26515671152363,ug/ml,Imaginary Labs,URINE,0.01,BASELINE,3,1,2013-05-21T00:00:00,2,12-24h Post-dose,18
234,CDISCPILOT01,PC,01-701-1146,18,XAN,XANOMELINE,<BLQ,ug/ml,<BLQ,,ug/ml,Imaginary Labs,URINE,0.01,BASELINE,3,1,2013-05-22T00:00:00,3,24-48h Post-dose,37
235,CDISCPILOT01,PC,01-701-1148,1,XAN,XANOMELINE,<BLQ,ug/ml,<BLQ,0,ug/ml,Imaginary Labs,PLASMA,0.01,BASELINE,3,1,2013-08-22T23:30:00,-1,Pre-dose,-0.5
236,CDISCPILOT01,PC,01-701-1148,2,XAN,XANOMELINE,0.104559278211833,ug/ml,0.104559278211833,0.10455927821183313,ug/ml,Imaginary Labs,PLASMA,0.01,BASELINE,3,1,2013-08-23T00:05:00,1,5 Min Post-dose,0.08
237,CDISCPILOT01,PC,01-701-1148,3,XAN,XANOMELINE,0.567884607617903,ug/ml,0.567884607617903,0.5678846076179033,ug/ml,Imaginary Labs,PLASMA,0.01,BASELINE,3,1,2013-08-23T00:30:00,1,30 Min Post-dose,0.5
238,CDISCPILOT01,PC,01-701-1148,4,XAN,XANOMELINE,0.969718348234013,ug/ml,0.969718348234013,0.9697183482340127,ug/ml,Imaginary Labs,PLASMA,0.01,BASELINE,3,1,2013-08-23T01:00:00,1,1h Post-dose,1
239,CDISCPILOT01,PC,01-701-1148,5,XAN,XANOMELINE,1.25405490698466,ug/ml,1.25405490698466,1.2540549069846567,ug/ml,Imaginary Labs,PLASMA,0.01,BASELINE,3,1,2013-08-23T01:30:00,1,1.5h Post-dose,1.5
240,CDISCPILOT01,PC,01-701-1148,6,XAN,XANOMELINE,1.45525075111213,ug/ml,1.45525075111213,1.4552507511121315,ug/ml,Imaginary Labs,PLASMA,0.01,BASELINE,3,1,2013-08-23T02:00:00,1,2h Post-dose,2
241,CDISCPILOT01,PC,01-701-1148,7,XAN,XANOMELINE,1.82007445083211,ug/ml,1.82007445083211,1.8200744508321083,ug/ml,Imaginary Labs,PLASMA,0.01,BASELINE,3,1,2013-08-23T04:00:00,1,4h Post-dose,4
242,CDISCPILOT01,PC,01-701-1148,8,XAN,XANOMELINE,1.9115338311318,ug/ml,1.9115338311318,1.911533831131797,ug/ml,Imaginary Labs,PLASMA,0.01,BASELINE,3,1,2013-08-23T06:00:00,1,6h Post-dose,6
243,CDISCPILOT01,PC,01-701-1148,9,XAN,XANOMELINE,1.93446221613316,ug/ml,1.93446221613316,1.9344622161331648,ug/ml,Imaginary Labs,PLASMA,0.01,BASELINE,3,1,2013-08-23T08:00:00,1,8h Post-dose,8
244,CDISCPILOT01,PC,01-701-1148,10,XAN,XANOMELINE,0.584086587056904,ug/ml,0.584086587056904,0.5840865870569039,ug/ml,Imaginary Labs,PLASMA,0.01,BASELINE,3,1,2013-08-23T12:00:00,1,12h Post-dose,12
245,CDISCPILOT01,PC,01-701-1148,11,XAN,XANOMELINE,0.175661027681222,ug/ml,0.175661027681222,0.17566102768122235,ug/ml,Imaginary Labs,PLASMA,0.01,BASELINE,3,1,2013-08-23T16:00:00,1,16h Post-dose,16
246,CDISCPILOT01,PC,01-701-1148,12,XAN,XANOMELINE,0.0158880936539872,ug/ml,0.0158880936539872,0.015888093653987235,ug/ml,Imaginary Labs,PLASMA,0.01,BASELINE,3,1,2013-08-24T00:00:00,2,24h Post-dose,24
247,CDISCPILOT01,PC,01-701-1148,13,XAN,XANOMELINE,<BLQ,ug/ml,<BLQ,,ug/ml,Imaginary Labs,PLASMA,0.01,BASELINE,3,1,2013-08-24T12:00:00,2,36h Post-dose,36
248,CDISCPILOT01,PC,01-701-1148,14,XAN,XANOMELINE,<BLQ,ug/ml,<BLQ,,ug/ml,Imaginary Labs,PLASMA,0.01,BASELINE,3,1,2013-08-25T00:00:00,3,48h Post-dose,48
249,CDISCPILOT01,PC,01-701-1148,15,XAN,XANOMELINE,27.0741606220529,ug/ml,27.0741606220529,27.074160622052926,ug/ml,Imaginary Labs,URINE,0.01,BASELINE,3,1,2013-08-23T06:00:00,1,0-6h Post-dose,3
250,CDISCPILOT01,PC,01-701-1148,16,XAN,XANOMELINE,22.9236027824619,ug/ml,22.9236027824619,22.92360278246187,ug/ml,Imaginary Labs,URINE,0.01,BASELINE,3,1,2013-08-23T12:00:00,1,6-12h Post-dose,9
251,CDISCPILOT01,PC,01-701-1148,17,XAN,XANOMELINE,14.6224871032798,ug/ml,14.6224871032798,14.62248710327976,ug/ml,Imaginary Labs,URINE,0.01,BASELINE,3,1,2013-08-24T00:00:00,2,12-24h Post-dose,18
252,CDISCPILOT01,PC,01-701-1148,18,XAN,XANOMELINE,<BLQ,ug/ml,<BLQ,,ug/ml,Imaginary Labs,URINE,0.01,BASELINE,3,1,2013-08-25T00:00:00,3,24-48h Post-dose,37
253,CDISCPILOT01,PC,01-701-1153,1,XAN,XANOMELINE,<BLQ,ug/ml,<BLQ,0,ug/ml,Imaginary Labs,PLASMA,0.01,BASELINE,3,1,2013-09-22T23:30:00,-1,Pre-dose,-0.5
254,CDISCPILOT01,PC,01-701-1153,2,XAN,XANOMELINE,<BLQ,ug/ml,<BLQ,,ug/ml,Imaginary Labs,PLASMA,0.01,BASELINE,3,1,2013-09-23T00:05:00,1,5 Min Post-dose,0.08
255,CDISCPILOT01,PC,01-701-1153,3,XAN,XANOMELINE,<BLQ,ug/ml,<BLQ,,ug/ml,Imaginary Labs,PLASMA,0.01,BASELINE,3,1,2013-09-23T00:30:00,1,30 Min Post-dose,0.5
256,CDISCPILOT01,PC,01-701-1153,4,XAN,XANOMELINE,<BLQ,ug/ml,<BLQ,,ug/ml,Imaginary Labs,PLASMA,0.01,BASELINE,3,1,2013-09-23T01:00:00,1,1h Post-dose,1
257,CDISCPILOT01,PC,01-701-1153,5,XAN,XANOMELINE,<BLQ,ug/ml,<BLQ,,ug/ml,Imaginary Labs,PLASMA,0.01,BASELINE,3,1,2013-09-23T01:30:00,1,1.5h Post-dose,1.5
258,CDISCPILOT01,PC,01-701-1153,6,XAN,XANOMELINE,<BLQ,ug/ml,<BLQ,,ug/ml,Imaginary Labs,PLASMA,0.01,BASELINE,3,1,2013-09-23T02:00:00,1,2h Post-dose,2
259,CDISCPILOT01,PC,01-701-1153,7,XAN,XANOMELINE,<BLQ,ug/ml,<BLQ,,ug/ml,Imaginary Labs,PLASMA,0.01,BASELINE,3,1,2013-09-23T04:00:00,1,4h Post-dose,4
260,CDISCPILOT01,PC,01-701-1153,8,XAN,XANOMELINE,<BLQ,ug/ml,<BLQ,,ug/ml,Imaginary Labs,PLASMA,0.01,BASELINE,3,1,2013-09-23T06:00:00,1,6h Post-dose,6
261,CDISCPILOT01,PC,01-701-1153,9,XAN,XANOMELINE,<BLQ,ug/ml,<BLQ,,ug/ml,Imaginary Labs,PLASMA,0.01,BASELINE,3,1,2013-09-23T08:00:00,1,8h Post-dose,8
262,CDISCPILOT01,PC,01-701-1153,10,XAN,XANOMELINE,<BLQ,ug/ml,<BLQ,,ug/ml,Imaginary Labs,PLASMA,0.01,BASELINE,3,1,2013-09-23T12:00:00,1,12h Post-dose,12
263,CDISCPILOT01,PC,01-701-1153,11,XAN,XANOMELINE,<BLQ,ug/ml,<BLQ,,ug/ml,Imaginary Labs,PLASMA,0.01,BASELINE,3,1,2013-09-23T16:00:00,1,16h Post-dose,16
264,CDISCPILOT01,PC,01-701-1153,12,XAN,XANOMELINE,<BLQ,ug/ml,<BLQ,,ug/ml,Imaginary Labs,PLASMA,0.01,BASELINE,3,1,2013-09-24T00:00:00,2,24h Post-dose,24
265,CDISCPILOT01,PC,01-701-1153,13,XAN,XANOMELINE,<BLQ,ug/ml,<BLQ,,ug/ml,Imaginary Labs,PLASMA,0.01,BASELINE,3,1,2013-09-24T12:00:00,2,36h Post-dose,36
266,CDISCPILOT01,PC,01-701-1153,14,XAN,XANOMELINE,<BLQ,ug/ml,<BLQ,,ug/ml,Imaginary Labs,PLASMA,0.01,BASELINE,3,1,2013-09-25T00:00:00,3,48h Post-dose,48
267,CDISCPILOT01,PC,01-701-1153,15,XAN,XANOMELINE,<BLQ,ug/ml,<BLQ,,ug/ml,Imaginary Labs,URINE,0.01,BASELINE,3,1,2013-09-23T06:00:00,1,0-6h Post-dose,3
268,CDISCPILOT01,PC,01-701-1153,16,XAN,XANOMELINE,<BLQ,ug/ml,<BLQ,,ug/ml,Imaginary Labs,URINE,0.01,BASELINE,3,1,2013-09-23T12:00:00,1,6-12h Post-dose,9
269,CDISCPILOT01,PC,01-701-1153,17,XAN,XANOMELINE,<BLQ,ug/ml,<BLQ,,ug/ml,Imaginary Labs,URINE,0.01,BASELINE,3,1,2013-09-24T00:00:00,2,12-24h Post-dose,18
270,CDISCPILOT01,PC,01-701-1153,18,XAN,XANOMELINE,<BLQ,ug/ml,<BLQ,,ug/ml,Imaginary Labs,URINE,0.01,BASELINE,3,1,2013-09-25T00:00:00,3,24-48h Post-dose,37
271,CDISCPILOT01,PC,01-701-1180,1,XAN,XANOMELINE,<BLQ,ug/ml,<BLQ,0,ug/ml,Imaginary Labs,PLASMA,0.01,BASELINE,3,1,2013-02-11T23:30:00,-1,Pre-dose,-0.5
272,CDISCPILOT01,PC,01-701-1180,2,XAN,XANOMELINE,0.107041858776793,ug/ml,0.107041858776793,0.1070418587767935,ug/ml,Imaginary Labs,PLASMA,0.01,BASELINE,3,1,2013-02-12T00:05:00,1,5 Min Post-dose,0.08
273,CDISCPILOT01,PC,01-701-1180,3,XAN,XANOMELINE,0.577840440813555,ug/ml,0.577840440813555,0.5778404408135546,ug/ml,Imaginary Labs,PLASMA,0.01,BASELINE,3,1,2013-02-12T00:30:00,1,30 Min Post-dose,0.5
274,CDISCPILOT01,PC,01-701-1180,4,XAN,XANOMELINE,0.980409142292515,ug/ml,0.980409142292515,0.9804091422925154,ug/ml,Imaginary Labs,PLASMA,0.01,BASELINE,3,1,2013-02-12T01:00:00,1,1h Post-dose,1
275,CDISCPILOT01,PC,01-701-1180,5,XAN,XANOMELINE,1.26086988536942,ug/ml,1.26086988536942,1.2608698853694218,ug/ml,Imaginary Labs,PLASMA,0.01,BASELINE,3,1,2013-02-12T01:30:00,1,1.5h Post-dose,1.5
276,CDISCPILOT01,PC,01-701-1180,6,XAN,XANOMELINE,1.45626070467126,ug/ml,1.45626070467126,1.4562607046712577,ug/ml,Imaginary Labs,PLASMA,0.01,BASELINE,3,1,2013-02-12T02:00:00,1,2h Post-dose,2
277,CDISCPILOT01,PC,01-701-1180,7,XAN,XANOMELINE,1.7993186049844,ug/ml,1.7993186049844,1.7993186049843957,ug/ml,Imaginary Labs,PLASMA,0.01,BASELINE,3,1,2013-02-12T04:00:00,1,4h Post-dose,4
278,CDISCPILOT01,PC,01-701-1180,8,XAN,XANOMELINE,1.88013430137018,ug/ml,1.88013430137018,1.8801343013701786,ug/ml,Imaginary Labs,PLASMA,0.01,BASELINE,3,1,2013-02-12T06:00:00,1,6h Post-dose,6
279,CDISCPILOT01,PC,01-701-1180,9,XAN,XANOMELINE,1.89917241935655,ug/ml,1.89917241935655,1.8991724193565522,ug/ml,Imaginary Labs,PLASMA,0.01,BASELINE,3,1,2013-02-12T08:00:00,1,8h Post-dose,8
280,CDISCPILOT01,PC,01-701-1180,10,XAN,XANOMELINE,0.542799936054903,ug/ml,0.542799936054903,0.5427999360549028,ug/ml,Imaginary Labs,PLASMA,0.01,BASELINE,3,1,2013-02-12T12:00:00,1,12h Post-dose,12
281,CDISCPILOT01,PC,01-701-1180,11,XAN,XANOMELINE,0.154659145304016,ug/ml,0.154659145304016,0.15465914530401584,ug/ml,Imaginary Labs,PLASMA,0.01,BASELINE,3,1,2013-02-12T16:00:00,1,16h Post-dose,16
282,CDISCPILOT01,PC,01-701-1180,12,XAN,XANOMELINE,0.0125558824680814,ug/ml,0.0125558824680814,0.01255588246808136,ug/ml,Imaginary Labs,PLASMA,0.01,BASELINE,3,1,2013-02-13T00:00:00,2,24h Post-dose,24
283,CDISCPILOT01,PC,01-701-1180,13,XAN,XANOMELINE,<BLQ,ug/ml,<BLQ,,ug/ml,Imaginary Labs,PLASMA,0.01,BASELINE,3,1,2013-02-13T12:00:00,2,36h Post-dose,36
284,CDISCPILOT01,PC,01-701-1180,14,XAN,XANOMELINE,<BLQ,ug/ml,<BLQ,,ug/ml,Imaginary Labs,PLASMA,0.01,BASELINE,3,1,2013-02-14T00:00:00,3,48h Post-dose,48
285,CDISCPILOT01,PC,01-701-1180,15,XAN,XANOMELINE,25.543954765994,ug/ml,25.543954765994,25.54395476599401,ug/ml,Imaginary Labs,URINE,0.01,BASELINE,3,1,2013-02-12T06:00:00,1,0-6h Post-dose,3
286,CDISCPILOT01,PC,01-701-1180,16,XAN,XANOMELINE,21.206770677084,ug/ml,21.206770677084,21.206770677084013,ug/ml,Imaginary Labs,URINE,0.01,BASELINE,3,1,2013-02-12T12:00:00,1,6-12h Post-dose,9
287,CDISCPILOT01,PC,01-701-1180,17,XAN,XANOMELINE,12.532402499264,ug/ml,12.532402499264,12.532402499264016,ug/ml,Imaginary Labs,URINE,0.01,BASELINE,3,1,2013-02-13T00:00:00,2,12-24h Post-dose,18
288,CDISCPILOT01,PC,01-701-1180,18,XAN,XANOMELINE,<BLQ,ug/ml,<BLQ,,ug/ml,Imaginary Labs,URINE,0.01,BASELINE,3,1,2013-02-14T00:00:00,3,24-48h Post-dose,37
289,CDISCPILOT01,PC,01-701-1181,1,XAN,XANOMELINE,<BLQ,ug/ml,<BLQ,0,ug/ml,Imaginary Labs,PLASMA,0.01,BASELINE,3,1,2013-12-04T23:30:00,-1,Pre-dose,-0.5
290,CDISCPILOT01,PC,01-701-1181,2,XAN,XANOMELINE,0.100554574185598,ug/ml,0.100554574185598,0.10055457418559832,ug/ml,Imaginary Labs,PLASMA,0.01,BASELINE,3,1,2013-12-05T00:05:00,1,5 Min Post-dose,0.08
291,CDISCPILOT01,PC,01-701-1181,3,XAN,XANOMELINE,0.542843452148912,ug/ml,0.542843452148912,0.542843452148912,ug/ml,Imaginary Labs,PLASMA,0.01,BASELINE,3,1,2013-12-05T00:30:00,1,30 Min Post-dose,0.5
292,CDISCPILOT01,PC,01-701-1181,4,XAN,XANOMELINE,0.921071714582407,ug/ml,0.921071714582407,0.9210717145824074,ug/ml,Imaginary Labs,PLASMA,0.01,BASELINE,3,1,2013-12-05T01:00:00,1,1h Post-dose,1
293,CDISCPILOT01,PC,01-701-1181,5,XAN,XANOMELINE,1.18460371066186,ug/ml,1.18460371066186,1.1846037106618554,ug/ml,Imaginary Labs,PLASMA,0.01,BASELINE,3,1,2013-12-05T01:30:00,1,1.5h Post-dose,1.5
294,CDISCPILOT01,PC,01-701-1181,6,XAN,XANOMELINE,1.3682206421698,ug/ml,1.3682206421698,1.3682206421697953,ug/ml,Imaginary Labs,PLASMA,0.01,BASELINE,3,1,2013-12-05T02:00:00,1,2h Post-dose,2
295,CDISCPILOT01,PC,01-701-1181,7,XAN,XANOMELINE,1.69067899706649,ug/ml,1.69067899706649,1.6906789970664904,ug/ml,Imaginary Labs,PLASMA,0.01,BASELINE,3,1,2013-12-05T04:00:00,1,4h Post-dose,4
296,CDISCPILOT01,PC,01-701-1181,8,XAN,XANOMELINE,1.76667506629534,ug/ml,1.76667506629534,1.7666750662953443,ug/ml,Imaginary Labs,PLASMA,0.01,BASELINE,3,1,2013-12-05T06:00:00,1,6h Post-dose,6
297,CDISCPILOT01,PC,01-701-1181,9,XAN,XANOMELINE,1.78458560404552,ug/ml,1.78458560404552,1.78458560404552,ug/ml,Imaginary Labs,PLASMA,0.01,BASELINE,3,1,2013-12-05T08:00:00,1,8h Post-dose,8
298,CDISCPILOT01,PC,01-701-1181,10,XAN,XANOMELINE,0.510245786438864,ug/ml,0.510245786438864,0.5102457864388636,ug/ml,Imaginary Labs,PLASMA,0.01,BASELINE,3,1,2013-12-05T12:00:00,1,12h Post-dose,12
299,CDISCPILOT01,PC,01-701-1181,11,XAN,XANOMELINE,0.145438555869458,ug/ml,0.145438555869458,0.14543855586945814,ug/ml,Imaginary Labs,PLASMA,0.01,BASELINE,3,1,2013-12-05T16:00:00,1,16h Post-dose,16
300,CDISCPILOT01,PC,01-701-1181,12,XAN,XANOMELINE,0.0118162536934347,ug/ml,0.0118162536934347,0.011816253693434716,ug/ml,Imaginary Labs,PLASMA,0.01,BASELINE,3,1,2013-12-06T00:00:00,2,24h Post-dose,24
301,CDISCPILOT01,PC,01-701-1181,13,XAN,XANOMELINE,<BLQ,ug/ml,<BLQ,,ug/ml,Imaginary Labs,PLASMA,0.01,BASELINE,3,1,2013-12-06T12:00:00,2,36h Post-dose,36
302,CDISCPILOT01,PC,01-701-1181,14,XAN,XANOMELINE,<BLQ,ug/ml,<BLQ,,ug/ml,Imaginary Labs,PLASMA,0.01,BASELINE,3,1,2013-12-07T00:00:00,3,48h Post-dose,48
303,CDISCPILOT01,PC,01-701-1181,15,XAN,XANOMELINE,25.5542687451753,ug/ml,25.5542687451753,25.554268745175307,ug/ml,Imaginary Labs,URINE,0.01,BASELINE,3,1,2013-12-05T06:00:00,1,0-6h Post-dose,3
304,CDISCPILOT01,PC,01-701-1181,16,XAN,XANOMELINE,21.2183916126198,ug/ml,21.2183916126198,21.21839161261984,ug/ml,Imaginary Labs,URINE,0.01,BASELINE,3,1,2013-12-05T12:00:00,1,6-12h Post-dose,9
305,CDISCPILOT01,PC,01-701-1181,17,XAN,XANOMELINE,12.5466373475089,ug/ml,12.5466373475089,12.546637347508899,ug/ml,Imaginary Labs,URINE,0.01,BASELINE,3,1,2013-12-06T00:00:00,2,12-24h Post-dose,18
306,CDISCPILOT01,PC,01-701-1181,18,XAN,XANOMELINE,<BLQ,ug/ml,<BLQ,,ug/ml,Imaginary Labs,URINE,0.01,BASELINE,3,1,2013-12-07T00:00:00,3,24-48h Post-dose,37
307,CDISCPILOT01,PC,01-701-1188,1,XAN,XANOMELINE,<BLQ,ug/ml,<BLQ,0,ug/ml,Imaginary Labs,PLASMA,0.01,BASELINE,3,1,2013-02-14T23:30:00,-1,Pre-dose,-0.5
308,CDISCPILOT01,PC,01-701-1188,2,XAN,XANOMELINE,0.107526685938658,ug/ml,0.107526685938658,0.10752668593865779,ug/ml,Imaginary Labs,PLASMA,0.01,BASELINE,3,1,2013-02-15T00:05:00,1,5 Min Post-dose,0.08
309,CDISCPILOT01,PC,01-701-1188,3,XAN,XANOMELINE,0.580355058212473,ug/ml,0.580355058212473,0.5803550582124729,ug/ml,Imaginary Labs,PLASMA,0.01,BASELINE,3,1,2013-02-15T00:30:00,1,30 Min Post-dose,0.5
310,CDISCPILOT01,PC,01-701-1188,4,XAN,XANOMELINE,0.984492728275569,ug/ml,0.984492728275569,0.9844927282755687,ug/ml,Imaginary Labs,PLASMA,0.01,BASELINE,3,1,2013-02-15T01:00:00,1,1h Post-dose,1
311,CDISCPILOT01,PC,01-701-1188,5,XAN,XANOMELINE,1.26591916551053,ug/ml,1.26591916551053,1.2659191655105346,ug/ml,Imaginary Labs,PLASMA,0.01,BASELINE,3,1,2013-02-15T01:30:00,1,1.5h Post-dose,1.5
312,CDISCPILOT01,PC,01-701-1188,6,XAN,XANOMELINE,1.46189406575282,ug/ml,1.46189406575282,1.4618940657528239,ug/ml,Imaginary Labs,PLASMA,0.01,BASELINE,3,1,2013-02-15T02:00:00,1,2h Post-dose,2
313,CDISCPILOT01,PC,01-701-1188,7,XAN,XANOMELINE,1.80565628200267,ug/ml,1.80565628200267,1.8056562820026743,ug/ml,Imaginary Labs,PLASMA,0.01,BASELINE,3,1,2013-02-15T04:00:00,1,4h Post-dose,4
314,CDISCPILOT01,PC,01-701-1188,8,XAN,XANOMELINE,1.88649145610276,ug/ml,1.88649145610276,1.8864914561027584,ug/ml,Imaginary Labs,PLASMA,0.01,BASELINE,3,1,2013-02-15T06:00:00,1,6h Post-dose,6
315,CDISCPILOT01,PC,01-701-1188,9,XAN,XANOMELINE,1.90549972711949,ug/ml,1.90549972711949,1.9054997271194938,ug/ml,Imaginary Labs,PLASMA,0.01,BASELINE,3,1,2013-02-15T08:00:00,1,8h Post-dose,8
316,CDISCPILOT01,PC,01-701-1188,10,XAN,XANOMELINE,0.543740858525282,ug/ml,0.543740858525282,0.5437408585252824,ug/ml,Imaginary Labs,PLASMA,0.01,BASELINE,3,1,2013-02-15T12:00:00,1,12h Post-dose,12
317,CDISCPILOT01,PC,01-701-1188,11,XAN,XANOMELINE,0.154683912775694,ug/ml,0.154683912775694,0.15468391277569377,ug/ml,Imaginary Labs,PLASMA,0.01,BASELINE,3,1,2013-02-15T16:00:00,1,16h Post-dose,16
318,CDISCPILOT01,PC,01-701-1188,12,XAN,XANOMELINE,0.0125184774188472,ug/ml,0.0125184774188472,0.012518477418847228,ug/ml,Imaginary Labs,PLASMA,0.01,BASELINE,3,1,2013-02-16T00:00:00,2,24h Post-dose,24
319,CDISCPILOT01,PC,01-701-1188,13,XAN,XANOMELINE,<BLQ,ug/ml,<BLQ,,ug/ml,Imaginary Labs,PLASMA,0.01,BASELINE,3,1,2013-02-16T12:00:00,2,36h Post-dose,36
320,CDISCPILOT01,PC,01-701-1188,14,XAN,XANOMELINE,<BLQ,ug/ml,<BLQ,,ug/ml,Imaginary Labs,PLASMA,0.01,BASELINE,3,1,2013-02-17T00:00:00,3,48h Post-dose,48
321,CDISCPILOT01,PC,01-701-1188,15,XAN,XANOMELINE,25.501162294145,ug/ml,25.501162294145,25.501162294144958,ug/ml,Imaginary Labs,URINE,0.01,BASELINE,3,1,2013-02-15T06:00:00,1,0-6h Post-dose,3
322,CDISCPILOT01,PC,01-701-1188,16,XAN,XANOMELINE,21.1585483160198,ug/ml,21.1585483160198,21.158548316019804,ug/ml,Imaginary Labs,URINE,0.01,BASELINE,3,1,2013-02-15T12:00:00,1,6-12h Post-dose,9
323,CDISCPILOT01,PC,01-701-1188,17,XAN,XANOMELINE,12.4733203597695,ug/ml,12.4733203597695,12.473320359769495,ug/ml,Imaginary Labs,URINE,0.01,BASELINE,3,1,2013-02-16T00:00:00,2,12-24h Post-dose,18
324,CDISCPILOT01,PC,01-701-1188,18,XAN,XANOMELINE,<BLQ,ug/ml,<BLQ,,ug/ml,Imaginary Labs,URINE,0.01,BASELINE,3,1,2013-02-17T00:00:00,3,24-48h Post-dose,37
325,CDISCPILOT01,PC,01-701-1192,1,XAN,XANOMELINE,<BLQ,ug/ml,<BLQ,0,ug/ml,Imaginary Labs,PLASMA,0.01,BASELINE,3,1,2012-07-21T23:30:00,-1,Pre-dose,-0.5
326,CDISCPILOT01,PC,01-701-1192,2,XAN,XANOMELINE,0.0916508452442413,ug/ml,0.0916508452442413,0.09165084524424127,ug/ml,Imaginary Labs,PLASMA,0.01,BASELINE,3,1,2012-07-22T00:05:00,1,5 Min Post-dose,0.08
327,CDISCPILOT01,PC,01-701-1192,3,XAN,XANOMELINE,0.500945502534247,ug/ml,0.500945502534247,0.5009455025342466,ug/ml,Imaginary Labs,PLASMA,0.01,BASELINE,3,1,2012-07-22T00:30:00,1,30 Min Post-dose,0.5
328,CDISCPILOT01,PC,01-701-1192,4,XAN,XANOMELINE,0.861190084157951,ug/ml,0.861190084157951,0.8611900841579506,ug/ml,Imaginary Labs,PLASMA,0.01,BASELINE,3,1,2012-07-22T01:00:00,1,1h Post-dose,1
329,CDISCPILOT01,PC,01-701-1192,5,XAN,XANOMELINE,1.12025251297049,ug/ml,1.12025251297049,1.120252512970485,ug/ml,Imaginary Labs,PLASMA,0.01,BASELINE,3,1,2012-07-22T01:30:00,1,1.5h Post-dose,1.5
330,CDISCPILOT01,PC,01-701-1192,6,XAN,XANOMELINE,1.30655189246359,ug/ml,1.30655189246359,1.3065518924635906,ug/ml,Imaginary Labs,PLASMA,0.01,BASELINE,3,1,2012-07-22T02:00:00,1,2h Post-dose,2
331,CDISCPILOT01,PC,01-701-1192,7,XAN,XANOMELINE,1.65597736837586,ug/ml,1.65597736837586,1.6559773683758559,ug/ml,Imaginary Labs,PLASMA,0.01,BASELINE,3,1,2012-07-22T04:00:00,1,4h Post-dose,4
332,CDISCPILOT01,PC,01-701-1192,8,XAN,XANOMELINE,1.74942804869004,ug/ml,1.74942804869004,1.7494280486900446,ug/ml,Imaginary Labs,PLASMA,0.01,BASELINE,3,1,2012-07-22T06:00:00,1,6h Post-dose,6
333,CDISCPILOT01,PC,01-701-1192,9,XAN,XANOMELINE,1.77442058716591,ug/ml,1.77442058716591,1.7744205871659093,ug/ml,Imaginary Labs,PLASMA,0.01,BASELINE,3,1,2012-07-22T08:00:00,1,8h Post-dose,8
334,CDISCPILOT01,PC,01-701-1192,10,XAN,XANOMELINE,0.567374914917422,ug/ml,0.567374914917422,0.5673749149174215,ug/ml,Imaginary Labs,PLASMA,0.01,BASELINE,3,1,2012-07-22T12:00:00,1,12h Post-dose,12
335,CDISCPILOT01,PC,01-701-1192,11,XAN,XANOMELINE,0.180491285234702,ug/ml,0.180491285234702,0.18049128523470206,ug/ml,Imaginary Labs,PLASMA,0.01,BASELINE,3,1,2012-07-22T16:00:00,1,16h Post-dose,16
336,CDISCPILOT01,PC,01-701-1192,12,XAN,XANOMELINE,0.0182653690333239,ug/ml,0.0182653690333239,0.018265369033323854,ug/ml,Imaginary Labs,PLASMA,0.01,BASELINE,3,1,2012-07-23T00:00:00,2,24h Post-dose,24
337,CDISCPILOT01,PC,01-701-1192,13,XAN,XANOMELINE,<BLQ,ug/ml,<BLQ,,ug/ml,Imaginary Labs,PLASMA,0.01,BASELINE,3,1,2012-07-23T12:00:00,2,36h Post-dose,36
338,CDISCPILOT01,PC,01-701-1192,14,XAN,XANOMELINE,<BLQ,ug/ml,<BLQ,,ug/ml,Imaginary Labs,PLASMA,0.01,BASELINE,3,1,2012-07-24T00:00:00,3,48h Post-dose,48
339,CDISCPILOT01,PC,01-701-1192,15,XAN,XANOMELINE,28.7990792016381,ug/ml,28.7990792016381,28.799079201638065,ug/ml,Imaginary Labs,URINE,0.01,BASELINE,3,1,2012-07-22T06:00:00,1,0-6h Post-dose,3
340,CDISCPILOT01,PC,01-701-1192,16,XAN,XANOMELINE,24.8425097181344,ug/ml,24.8425097181344,24.842509718134366,ug/ml,Imaginary Labs,URINE,0.01,BASELINE,3,1,2012-07-22T12:00:00,1,6-12h Post-dose,9
341,CDISCPILOT01,PC,01-701-1192,17,XAN,XANOMELINE,16.929370751127,ug/ml,16.929370751127,16.929370751126967,ug/ml,Imaginary Labs,URINE,0.01,BASELINE,3,1,2012-07-23T00:00:00,2,12-24h Post-dose,18
342,CDISCPILOT01,PC,01-701-1192,18,XAN,XANOMELINE,1.10309281711217,ug/ml,1.10309281711217,1.10309281711217,ug/ml,Imaginary Labs,URINE,0.01,BASELINE,3,1,2012-07-24T00:00:00,3,24-48h Post-dose,37
343,CDISCPILOT01,PC,01-701-1203,1,XAN,XANOMELINE,<BLQ,ug/ml,<BLQ,0,ug/ml,Imaginary Labs,PLASMA,0.01,BASELINE,3,1,2013-02-01T23:30:00,-1,Pre-dose,-0.5
344,CDISCPILOT01,PC,01-701-1203,2,XAN,XANOMELINE,<BLQ,ug/ml,<BLQ,,ug/ml,Imaginary Labs,PLASMA,0.01,BASELINE,3,1,2013-02-02T00:05:00,1,5 Min Post-dose,0.08
345,CDISCPILOT01,PC,01-701-1203,3,XAN,XANOMELINE,<BLQ,ug/ml,<BLQ,,ug/ml,Imaginary Labs,PLASMA,0.01,BASELINE,3,1,2013-02-02T00:30:00,1,30 Min Post-dose,0.5
346,CDISCPILOT01,PC,01-701-1203,4,XAN,XANOMELINE,<BLQ,ug/ml,<BLQ,,ug/ml,Imaginary Labs,PLASMA,0.01,BASELINE,3,1,2013-02-02T01:00:00,1,1h Post-dose,1
347,CDISCPILOT01,PC,01-701-1203,5,XAN,XANOMELINE,<BLQ,ug/ml,<BLQ,,ug/ml,Imaginary Labs,PLASMA,0.01,BASELINE,3,1,2013-02-02T01:30:00,1,1.5h Post-dose,1.5
348,CDISCPILOT01,PC,01-701-1203,6,XAN,XANOMELINE,<BLQ,ug/ml,<BLQ,,ug/ml,Imaginary Labs,PLASMA,0.01,BASELINE,3,1,2013-02-02T02:00:00,1,2h Post-dose,2
349,CDISCPILOT01,PC,01-701-1203,7,XAN,XANOMELINE,<BLQ,ug/ml,<BLQ,,ug/ml,Imaginary Labs,PLASMA,0.01,BASELINE,3,1,2013-02-02T04:00:00,1,4h Post-dose,4
350,CDISCPILOT01,PC,01-701-1203,8,XAN,XANOMELINE,<BLQ,ug/ml,<BLQ,,ug/ml,Imaginary Labs,PLASMA,0.01,BASELINE,3,1,2013-02-02T06:00:00,1,6h Post-dose,6
351,CDISCPILOT01,PC,01-701-1203,9,XAN,XANOMELINE,<BLQ,ug/ml,<BLQ,,ug/ml,Imaginary Labs,PLASMA,0.01,BASELINE,3,1,2013-02-02T08:00:00,1,8h Post-dose,8
352,CDISCPILOT01,PC,01-701-1203,10,XAN,XANOMELINE,<BLQ,ug/ml,<BLQ,,ug/ml,Imaginary Labs,PLASMA,0.01,BASELINE,3,1,2013-02-02T12:00:00,1,12h Post-dose,12
353,CDISCPILOT01,PC,01-701-1203,11,XAN,XANOMELINE,<BLQ,ug/ml,<BLQ,,ug/ml,Imaginary Labs,PLASMA,0.01,BASELINE,3,1,2013-02-02T16:00:00,1,16h Post-dose,16
354,CDISCPILOT01,PC,01-701-1203,12,XAN,XANOMELINE,<BLQ,ug/ml,<BLQ,,ug/ml,Imaginary Labs,PLASMA,0.01,BASELINE,3,1,2013-02-03T00:00:00,2,24h Post-dose,24
355,CDISCPILOT01,PC,01-701-1203,13,XAN,XANOMELINE,<BLQ,ug/ml,<BLQ,,ug/ml,Imaginary Labs,PLASMA,0.01,BASELINE,3,1,2013-02-03T12:00:00,2,36h Post-dose,36
356,CDISCPILOT01,PC,01-701-1203,14,XAN,XANOMELINE,<BLQ,ug/ml,<BLQ,,ug/ml,Imaginary Labs,PLASMA,0.01,BASELINE,3,1,2013-02-04T00:00:00,3,48h Post-dose,48
357,CDISCPILOT01,PC,01-701-1203,15,XAN,XANOMELINE,<BLQ,ug/ml,<BLQ,,ug/ml,Imaginary Labs,URINE,0.01,BASELINE,3,1,2013-02-02T06:00:00,1,0-6h Post-dose,3
358,CDISCPILOT01,PC,01-701-1203,16,XAN,XANOMELINE,<BLQ,ug/ml,<BLQ,,ug/ml,Imaginary Labs,URINE,0.01,BASELINE,3,1,2013-02-02T12:00:00,1,6-12h Post-dose,9
359,CDISCPILOT01,PC,01-701-1203,17,XAN,XANOMELINE,<BLQ,ug/ml,<BLQ,,ug/ml,Imaginary Labs,URINE,0.01,BASELINE,3,1,2013-02-03T00:00:00,2,12-24h Post-dose,18
360,CDISCPILOT01,PC,01-701-1203,18,XAN,XANOMELINE,<BLQ,ug/ml,<BLQ,,ug/ml,Imaginary Labs,URINE,0.01,BASELINE,3,1,2013-02-04T00:00:00,3,24-48h Post-dose,37
361,CDISCPILOT01,PC,01-701-1211,1,XAN,XANOMELINE,<BLQ,ug/ml,<BLQ,0,ug/ml,Imaginary Labs,PLASMA,0.01,BASELINE,3,1,2012-11-14T23:30:00,-1,Pre-dose,-0.5
362,CDISCPILOT01,PC,01-701-1211,2,XAN,XANOMELINE,0.10042081860065,ug/ml,0.10042081860065,0.10042081860065007,ug/ml,Imaginary Labs,PLASMA,0.01,BASELINE,3,1,2012-11-15T00:05:00,1,5 Min Post-dose,0.08
363,CDISCPILOT01,PC,01-701-1211,3,XAN,XANOMELINE,0.547861572340737,ug/ml,0.547861572340737,0.5478615723407371,ug/ml,Imaginary Labs,PLASMA,0.01,BASELINE,3,1,2012-11-15T00:30:00,1,30 Min Post-dose,0.5
364,CDISCPILOT01,PC,01-701-1211,4,XAN,XANOMELINE,0.939987013188115,ug/ml,0.939987013188115,0.9399870131881151,ug/ml,Imaginary Labs,PLASMA,0.01,BASELINE,3,1,2012-11-15T01:00:00,1,1h Post-dose,1
365,CDISCPILOT01,PC,01-701-1211,5,XAN,XANOMELINE,1.22064615980941,ug/ml,1.22064615980941,1.2206461598094074,ug/ml,Imaginary Labs,PLASMA,0.01,BASELINE,3,1,2012-11-15T01:30:00,1,1.5h Post-dose,1.5
366,CDISCPILOT01,PC,01-701-1211,6,XAN,XANOMELINE,1.42152462464957,ug/ml,1.42152462464957,1.4215246246495665,ug/ml,Imaginary Labs,PLASMA,0.01,BASELINE,3,1,2012-11-15T02:00:00,1,2h Post-dose,2
367,CDISCPILOT01,PC,01-701-1211,7,XAN,XANOMELINE,1.79457811596449,ug/ml,1.79457811596449,1.7945781159644876,ug/ml,Imaginary Labs,PLASMA,0.01,BASELINE,3,1,2012-11-15T04:00:00,1,4h Post-dose,4
368,CDISCPILOT01,PC,01-701-1211,8,XAN,XANOMELINE,1.89247927431872,ug/ml,1.89247927431872,1.8924792743187155,ug/ml,Imaginary Labs,PLASMA,0.01,BASELINE,3,1,2012-11-15T06:00:00,1,6h Post-dose,6
369,CDISCPILOT01,PC,01-701-1211,9,XAN,XANOMELINE,1.91817166704587,ug/ml,1.91817166704587,1.9181716670458715,ug/ml,Imaginary Labs,PLASMA,0.01,BASELINE,3,1,2012-11-15T08:00:00,1,8h Post-dose,8
370,CDISCPILOT01,PC,01-701-1211,10,XAN,XANOMELINE,0.603125301250231,ug/ml,0.603125301250231,0.6031253012502306,ug/ml,Imaginary Labs,PLASMA,0.01,BASELINE,3,1,2012-11-15T12:00:00,1,12h Post-dose,12
371,CDISCPILOT01,PC,01-701-1211,11,XAN,XANOMELINE,0.188739499318474,ug/ml,0.188739499318474,0.18873949931847378,ug/ml,Imaginary Labs,PLASMA,0.01,BASELINE,3,1,2012-11-15T16:00:00,1,16h Post-dose,16
372,CDISCPILOT01,PC,01-701-1211,12,XAN,XANOMELINE,0.0184830356286786,ug/ml,0.0184830356286786,0.01848303562867863,ug/ml,Imaginary Labs,PLASMA,0.01,BASELINE,3,1,2012-11-16T00:00:00,2,24h Post-dose,24
373,CDISCPILOT01,PC,01-701-1211,13,XAN,XANOMELINE,<BLQ,ug/ml,<BLQ,,ug/ml,Imaginary Labs,PLASMA,0.01,BASELINE,3,1,2012-11-16T12:00:00,2,36h Post-dose,36
374,CDISCPILOT01,PC,01-701-1211,14,XAN,XANOMELINE,<BLQ,ug/ml,<BLQ,,ug/ml,Imaginary Labs,PLASMA,0.01,BASELINE,3,1,2012-11-17T00:00:00,3,48h Post-dose,48
375,CDISCPILOT01,PC,01-701-1211,15,XAN,XANOMELINE,28.2794146868057,ug/ml,28.2794146868057,28.279414686805712,ug/ml,Imaginary Labs,URINE,0.01,BASELINE,3,1,2012-11-15T06:00:00,1,0-6h Post-dose,3
376,CDISCPILOT01,PC,01-701-1211,16,XAN,XANOMELINE,24.2661243781104,ug/ml,24.2661243781104,24.266124378110426,ug/ml,Imaginary Labs,URINE,0.01,BASELINE,3,1,2012-11-15T12:00:00,1,6-12h Post-dose,9
377,CDISCPILOT01,PC,01-701-1211,17,XAN,XANOMELINE,16.2395437607199,ug/ml,16.2395437607199,16.239543760719855,ug/ml,Imaginary Labs,URINE,0.01,BASELINE,3,1,2012-11-16T00:00:00,2,12-24h Post-dose,18
378,CDISCPILOT01,PC,01-701-1211,18,XAN,XANOMELINE,0.186382525938711,ug/ml,0.186382525938711,0.1863825259387113,ug/ml,Imaginary Labs,URINE,0.01,BASELINE,3,1,2012-11-17T00:00:00,3,24-48h Post-dose,37
379,CDISCPILOT01,PC,01-701-1234,1,XAN,XANOMELINE,<BLQ,ug/ml,<BLQ,0,ug/ml,Imaginary Labs,PLASMA,0.01,BASELINE,3,1,2013-03-29T23:30:00,-1,Pre-dose,-0.5
380,CDISCPILOT01,PC,01-701-1234,2,XAN,XANOMELINE,<BLQ,ug/ml,<BLQ,,ug/ml,Imaginary Labs,PLASMA,0.01,BASELINE,3,1,2013-03-30T00:05:00,1,5 Min Post-dose,0.08
381,CDISCPILOT01,PC,01-701-1234,3,XAN,XANOMELINE,<BLQ,ug/ml,<BLQ,,ug/ml,Imaginary Labs,PLASMA,0.01,BASELINE,3,1,2013-03-30T00:30:00,1,30 Min Post-dose,0.5
382,CDISCPILOT01,PC,01-701-1234,4,XAN,XANOMELINE,<BLQ,ug/ml,<BLQ,,ug/ml,Imaginary Labs,PLASMA,0.01,BASELINE,3,1,2013-03-30T01:00:00,1,1h Post-dose,1
383,CDISCPILOT01,PC,01-701-1234,5,XAN,XANOMELINE,<BLQ,ug/ml,<BLQ,,ug/ml,Imaginary Labs,PLASMA,0.01,BASELINE,3,1,2013-03-30T01:30:00,1,1.5h Post-dose,1.5
384,CDISCPILOT01,PC,01-701-1234,6,XAN,XANOMELINE,<BLQ,ug/ml,<BLQ,,ug/ml,Imaginary Labs,PLASMA,0.01,BASELINE,3,1,2013-03-30T02:00:00,1,2h Post-dose,2
385,CDISCPILOT01,PC,01-701-1234,7,XAN,XANOMELINE,<BLQ,ug/ml,<BLQ,,ug/ml,Imaginary Labs,PLASMA,0.01,BASELINE,3,1,2013-03-30T04:00:00,1,4h Post-dose,4
386,CDISCPILOT01,PC,01-701-1234,8,XAN,XANOMELINE,<BLQ,ug/ml,<BLQ,,ug/ml,Imaginary Labs,PLASMA,0.01,BASELINE,3,1,2013-03-30T06:00:00,1,6h Post-dose,6
387,CDISCPILOT01,PC,01-701-1234,9,XAN,XANOMELINE,<BLQ,ug/ml,<BLQ,,ug/ml,Imaginary Labs,PLASMA,0.01,BASELINE,3,1,2013-03-30T08:00:00,1,8h Post-dose,8
388,CDISCPILOT01,PC,01-701-1234,10,XAN,XANOMELINE,<BLQ,ug/ml,<BLQ,,ug/ml,Imaginary Labs,PLASMA,0.01,BASELINE,3,1,2013-03-30T12:00:00,1,12h Post-dose,12
389,CDISCPILOT01,PC,01-701-1234,11,XAN,XANOMELINE,<BLQ,ug/ml,<BLQ,,ug/ml,Imaginary Labs,PLASMA,0.01,BASELINE,3,1,2013-03-30T16:00:00,1,16h Post-dose,16
390,CDISCPILOT01,PC,01-701-1234,12,XAN,XANOMELINE,<BLQ,ug/ml,<BLQ,,ug/ml,Imaginary Labs,PLASMA,0.01,BASELINE,3,1,2013-03-31T00:00:00,2,24h Post-dose,24
391,CDISCPILOT01,PC,01-701-1234,13,XAN,XANOMELINE,<BLQ,ug/ml,<BLQ,,ug/ml,Imaginary Labs,PLASMA,0.01,BASELINE,3,1,2013-03-31T12:00:00,2,36h Post-dose,36
392,CDISCPILOT01,PC,01-701-1234,14,XAN,XANOMELINE,<BLQ,ug/ml,<BLQ,,ug/ml,Imaginary Labs,PLASMA,0.01,BASELINE,3,1,2013-04-01T00:00:00,3,48h Post-dose,48
393,CDISCPILOT01,PC,01-701-1234,15,XAN,XANOMELINE,<BLQ,ug/ml,<BLQ,,ug/ml,Imaginary Labs,URINE,0.01,BASELINE,3,1,2013-03-30T06:00:00,1,0-6h Post-dose,3
394,CDISCPILOT01,PC,01-701-1234,16,XAN,XANOMELINE,<BLQ,ug/ml,<BLQ,,ug/ml,Imaginary Labs,URINE,0.01,BASELINE,3,1,2013-03-30T12:00:00,1,6-12h Post-dose,9
395,CDISCPILOT01,PC,01-701-1234,17,XAN,XANOMELINE,<BLQ,ug/ml,<BLQ,,ug/ml,Imaginary Labs,URINE,0.01,BASELINE,3,1,2013-03-31T00:00:00,2,12-24h Post-dose,18
396,CDISCPILOT01,PC,01-701-1234,18,XAN,XANOMELINE,<BLQ,ug/ml,<BLQ,,ug/ml,Imaginary Labs,URINE,0.01,BASELINE,3,1,2013-04-01T00:00:00,3,24-48h Post-dose,37
397,CDISCPILOT01,PC,01-701-1239,1,XAN,XANOMELINE,<BLQ,ug/ml,<BLQ,0,ug/ml,Imaginary Labs,PLASMA,0.01,BASELINE,3,1,2014-01-10T23:30:00,-1,Pre-dose,-0.5
398,CDISCPILOT01,PC,01-701-1239,2,XAN,XANOMELINE,0.0969194568848099,ug/ml,0.0969194568848099,0.096919456884809907,ug/ml,Imaginary Labs,PLASMA,0.01,BASELINE,3,1,2014-01-11T00:05:00,1,5 Min Post-dose,0.08
399,CDISCPILOT01,PC,01-701-1239,3,XAN,XANOMELINE,0.528820935810241,ug/ml,0.528820935810241,0.5288209358102409,ug/ml,Imaginary Labs,PLASMA,0.01,BASELINE,3,1,2014-01-11T00:30:00,1,30 Min Post-dose,0.5
400,CDISCPILOT01,PC,01-701-1239,4,XAN,XANOMELINE,0.90743049028531,ug/ml,0.90743049028531,0.9074304902853098,ug/ml,Imaginary Labs,PLASMA,0.01,BASELINE,3,1,2014-01-11T01:00:00,1,1h Post-dose,1
401,CDISCPILOT01,PC,01-701-1239,5,XAN,XANOMELINE,1.17849614792646,ug/ml,1.17849614792646,1.178496147926457,ug/ml,Imaginary Labs,PLASMA,0.01,BASELINE,3,1,2014-01-11T01:30:00,1,1.5h Post-dose,1.5
402,CDISCPILOT01,PC,01-701-1239,6,XAN,XANOMELINE,1.37256571084148,ug/ml,1.37256571084148,1.3725657108414793,ug/ml,Imaginary Labs,PLASMA,0.01,BASELINE,3,1,2014-01-11T02:00:00,1,2h Post-dose,2
403,CDISCPILOT01,PC,01-701-1239,7,XAN,XANOMELINE,1.73319821018411,ug/ml,1.73319821018411,1.7331982101841075,ug/ml,Imaginary Labs,PLASMA,0.01,BASELINE,3,1,2014-01-11T04:00:00,1,4h Post-dose,4
404,CDISCPILOT01,PC,01-701-1239,8,XAN,XANOMELINE,1.82795199760196,ug/ml,1.82795199760196,1.8279519976019627,ug/ml,Imaginary Labs,PLASMA,0.01,BASELINE,3,1,2014-01-11T06:00:00,1,6h Post-dose,6
405,CDISCPILOT01,PC,01-701-1239,9,XAN,XANOMELINE,1.85284792419314,ug/ml,1.85284792419314,1.8528479241931435,ug/ml,Imaginary Labs,PLASMA,0.01,BASELINE,3,1,2014-01-11T08:00:00,1,8h Post-dose,8
406,CDISCPILOT01,PC,01-701-1239,10,XAN,XANOMELINE,0.583199214283963,ug/ml,0.583199214283963,0.5831992142839633,ug/ml,Imaginary Labs,PLASMA,0.01,BASELINE,3,1,2014-01-11T12:00:00,1,12h Post-dose,12
407,CDISCPILOT01,PC,01-701-1239,11,XAN,XANOMELINE,0.182691953457567,ug/ml,0.182691953457567,0.18269195345756734,ug/ml,Imaginary Labs,PLASMA,0.01,BASELINE,3,1,2014-01-11T16:00:00,1,16h Post-dose,16
408,CDISCPILOT01,PC,01-701-1239,12,XAN,XANOMELINE,0.0179276926579535,ug/ml,0.0179276926579535,0.017927692657953482,ug/ml,Imaginary Labs,PLASMA,0.01,BASELINE,3,1,2014-01-12T00:00:00,2,24h Post-dose,24
409,CDISCPILOT01,PC,01-701-1239,13,XAN,XANOMELINE,<BLQ,ug/ml,<BLQ,,ug/ml,Imaginary Labs,PLASMA,0.01,BASELINE,3,1,2014-01-12T12:00:00,2,36h Post-dose,36
410,CDISCPILOT01,PC,01-701-1239,14,XAN,XANOMELINE,<BLQ,ug/ml,<BLQ,,ug/ml,Imaginary Labs,PLASMA,0.01,BASELINE,3,1,2014-01-13T00:00:00,3,48h Post-dose,48
411,CDISCPILOT01,PC,01-701-1239,15,XAN,XANOMELINE,28.3116224278038,ug/ml,28.3116224278038,28.31162242780383,ug/ml,Imaginary Labs,URINE,0.01,BASELINE,3,1,2014-01-11T06:00:00,1,0-6h Post-dose,3
412,CDISCPILOT01,PC,01-701-1239,16,XAN,XANOMELINE,24.3018895781873,ug/ml,24.3018895781873,24.30188957818727,ug/ml,Imaginary Labs,URINE,0.01,BASELINE,3,1,2014-01-11T12:00:00,1,6-12h Post-dose,9
413,CDISCPILOT01,PC,01-701-1239,17,XAN,XANOMELINE,16.2824238789542,ug/ml,16.2824238789542,16.28242387895416,ug/ml,Imaginary Labs,URINE,0.01,BASELINE,3,1,2014-01-12T00:00:00,2,12-24h Post-dose,18
414,CDISCPILOT01,PC,01-701-1239,18,XAN,XANOMELINE,0.24349248048793,ug/ml,0.24349248048793,0.24349248048793015,ug/ml,Imaginary Labs,URINE,0.01,BASELINE,3,1,2014-01-13T00:00:00,3,24-48h Post-dose,37
415,CDISCPILOT01,PC,01-701-1275,1,XAN,XANOMELINE,<BLQ,ug/ml,<BLQ,0,ug/ml,Imaginary Labs,PLASMA,0.01,BASELINE,3,1,2014-02-06T23:30:00,-1,Pre-dose,-0.5
416,CDISCPILOT01,PC,01-701-1275,2,XAN,XANOMELINE,0.102590487580723,ug/ml,0.102590487580723,0.10259048758072307,ug/ml,Imaginary Labs,PLASMA,0.01,BASELINE,3,1,2014-02-07T00:05:00,1,5 Min Post-dose,0.08
417,CDISCPILOT01,PC,01-701-1275,3,XAN,XANOMELINE,0.553669011169755,ug/ml,0.553669011169755,0.5536690111697548,ug/ml,Imaginary Labs,PLASMA,0.01,BASELINE,3,1,2014-02-07T00:30:00,1,30 Min Post-dose,0.5
418,CDISCPILOT01,PC,01-701-1275,4,XAN,XANOMELINE,0.939145369342354,ug/ml,0.939145369342354,0.9391453693423545,ug/ml,Imaginary Labs,PLASMA,0.01,BASELINE,3,1,2014-02-07T01:00:00,1,1h Post-dose,1
419,CDISCPILOT01,PC,01-701-1275,5,XAN,XANOMELINE,1.20752235940737,ug/ml,1.20752235940737,1.207522359407367,ug/ml,Imaginary Labs,PLASMA,0.01,BASELINE,3,1,2014-02-07T01:30:00,1,1.5h Post-dose,1.5
420,CDISCPILOT01,PC,01-701-1275,6,XAN,XANOMELINE,1.39437223299703,ug/ml,1.39437223299703,1.394372232997035,ug/ml,Imaginary Labs,PLASMA,0.01,BASELINE,3,1,2014-02-07T02:00:00,1,2h Post-dose,2
421,CDISCPILOT01,PC,01-701-1275,7,XAN,XANOMELINE,1.7219910576785,ug/ml,1.7219910576785,1.7219910576784998,ug/ml,Imaginary Labs,PLASMA,0.01,BASELINE,3,1,2014-02-07T04:00:00,1,4h Post-dose,4
422,CDISCPILOT01,PC,01-701-1275,8,XAN,XANOMELINE,1.79896770117847,ug/ml,1.79896770117847,1.7989677011784662,ug/ml,Imaginary Labs,PLASMA,0.01,BASELINE,3,1,2014-02-07T06:00:00,1,6h Post-dose,6
423,CDISCPILOT01,PC,01-701-1275,9,XAN,XANOMELINE,1.81705397461004,ug/ml,1.81705397461004,1.8170539746100431,ug/ml,Imaginary Labs,PLASMA,0.01,BASELINE,3,1,2014-02-07T08:00:00,1,8h Post-dose,8
424,CDISCPILOT01,PC,01-701-1275,10,XAN,XANOMELINE,0.518132464640056,ug/ml,0.518132464640056,0.5181324646400557,ug/ml,Imaginary Labs,PLASMA,0.01,BASELINE,3,1,2014-02-07T12:00:00,1,12h Post-dose,12
425,CDISCPILOT01,PC,01-701-1275,11,XAN,XANOMELINE,0.147295065194009,ug/ml,0.147295065194009,0.14729506519400892,ug/ml,Imaginary Labs,PLASMA,0.01,BASELINE,3,1,2014-02-07T16:00:00,1,16h Post-dose,16
426,CDISCPILOT01,PC,01-701-1275,12,XAN,XANOMELINE,0.0119037276371594,ug/ml,0.0119037276371594,0.011903727637159434,ug/ml,Imaginary Labs,PLASMA,0.01,BASELINE,3,1,2014-02-08T00:00:00,2,24h Post-dose,24
427,CDISCPILOT01,PC,01-701-1275,13,XAN,XANOMELINE,<BLQ,ug/ml,<BLQ,,ug/ml,Imaginary Labs,PLASMA,0.01,BASELINE,3,1,2014-02-08T12:00:00,2,36h Post-dose,36
428,CDISCPILOT01,PC,01-701-1275,14,XAN,XANOMELINE,<BLQ,ug/ml,<BLQ,,ug/ml,Imaginary Labs,PLASMA,0.01,BASELINE,3,1,2014-02-09T00:00:00,3,48h Post-dose,48
429,CDISCPILOT01,PC,01-701-1275,15,XAN,XANOMELINE,25.482023634244,ug/ml,25.482023634244,25.482023634244,ug/ml,Imaginary Labs,URINE,0.01,BASELINE,3,1,2014-02-07T06:00:00,1,0-6h Post-dose,3
430,CDISCPILOT01,PC,01-701-1275,16,XAN,XANOMELINE,21.1369773300777,ug/ml,21.1369773300777,21.136977330077684,ug/ml,Imaginary Labs,URINE,0.01,BASELINE,3,1,2014-02-07T12:00:00,1,6-12h Post-dose,9
431,CDISCPILOT01,PC,01-701-1275,17,XAN,XANOMELINE,12.4468847217451,ug/ml,12.4468847217451,12.44688472174505,ug/ml,Imaginary Labs,URINE,0.01,BASELINE,3,1,2014-02-08T00:00:00,2,12-24h Post-dose,18
432,CDISCPILOT01,PC,01-701-1275,18,XAN,XANOMELINE,<BLQ,ug/ml,<BLQ,,ug/ml,Imaginary Labs,URINE,0.01,BASELINE,3,1,2014-02-09T00:00:00,3,24-48h Post-dose,37
433,CDISCPILOT01,PC,01-701-1287,1,XAN,XANOMELINE,<BLQ,ug/ml,<BLQ,0,ug/ml,Imaginary Labs,PLASMA,0.01,BASELINE,3,1,2014-01-24T23:30:00,-1,Pre-dose,-0.5
434,CDISCPILOT01,PC,01-701-1287,2,XAN,XANOMELINE,0.109336309216261,ug/ml,0.109336309216261,0.10933630921626113,ug/ml,Imaginary Labs,PLASMA,0.01,BASELINE,3,1,2014-01-25T00:05:00,1,5 Min Post-dose,0.08
435,CDISCPILOT01,PC,01-701-1287,3,XAN,XANOMELINE,0.588719178970467,ug/ml,0.588719178970467,0.5887191789704667,ug/ml,Imaginary Labs,PLASMA,0.01,BASELINE,3,1,2014-01-25T00:30:00,1,30 Min Post-dose,0.5
436,CDISCPILOT01,PC,01-701-1287,4,XAN,XANOMELINE,0.996189595054458,ug/ml,0.996189595054458,0.9961895950544579,ug/ml,Imaginary Labs,PLASMA,0.01,BASELINE,3,1,2014-01-25T01:00:00,1,1h Post-dose,1
437,CDISCPILOT01,PC,01-701-1287,5,XAN,XANOMELINE,1.27821224000041,ug/ml,1.27821224000041,1.2782122400004108,ug/ml,Imaginary Labs,PLASMA,0.01,BASELINE,3,1,2014-01-25T01:30:00,1,1.5h Post-dose,1.5
438,CDISCPILOT01,PC,01-701-1287,6,XAN,XANOMELINE,1.47340867420219,ug/ml,1.47340867420219,1.4734086742021917,ug/ml,Imaginary Labs,PLASMA,0.01,BASELINE,3,1,2014-01-25T02:00:00,1,2h Post-dose,2
439,CDISCPILOT01,PC,01-701-1287,7,XAN,XANOMELINE,1.81153175422604,ug/ml,1.81153175422604,1.811531754226038,ug/ml,Imaginary Labs,PLASMA,0.01,BASELINE,3,1,2014-01-25T04:00:00,1,4h Post-dose,4
440,CDISCPILOT01,PC,01-701-1287,8,XAN,XANOMELINE,1.88912544513241,ug/ml,1.88912544513241,1.88912544513241,ug/ml,Imaginary Labs,PLASMA,0.01,BASELINE,3,1,2014-01-25T06:00:00,1,6h Post-dose,6
441,CDISCPILOT01,PC,01-701-1287,9,XAN,XANOMELINE,1.9069319221941,ug/ml,1.9069319221941,1.906931922194103,ug/ml,Imaginary Labs,PLASMA,0.01,BASELINE,3,1,2014-01-25T08:00:00,1,8h Post-dose,8
442,CDISCPILOT01,PC,01-701-1287,10,XAN,XANOMELINE,0.532595189449636,ug/ml,0.532595189449636,0.5325951894496358,ug/ml,Imaginary Labs,PLASMA,0.01,BASELINE,3,1,2014-01-25T12:00:00,1,12h Post-dose,12
443,CDISCPILOT01,PC,01-701-1287,11,XAN,XANOMELINE,0.14833825348363,ug/ml,0.14833825348363,0.14833825348362992,ug/ml,Imaginary Labs,PLASMA,0.01,BASELINE,3,1,2014-01-25T16:00:00,1,16h Post-dose,16
444,CDISCPILOT01,PC,01-701-1287,12,XAN,XANOMELINE,0.011507076629796,ug/ml,0.011507076629796,0.011507076629796028,ug/ml,Imaginary Labs,PLASMA,0.01,BASELINE,3,1,2014-01-26T00:00:00,2,24h Post-dose,24
445,CDISCPILOT01,PC,01-701-1287,13,XAN,XANOMELINE,<BLQ,ug/ml,<BLQ,,ug/ml,Imaginary Labs,PLASMA,0.01,BASELINE,3,1,2014-01-26T12:00:00,2,36h Post-dose,36
446,CDISCPILOT01,PC,01-701-1287,14,XAN,XANOMELINE,<BLQ,ug/ml,<BLQ,,ug/ml,Imaginary Labs,PLASMA,0.01,BASELINE,3,1,2014-01-27T00:00:00,3,48h Post-dose,48
447,CDISCPILOT01,PC,01-701-1287,15,XAN,XANOMELINE,24.9335728436715,ug/ml,24.9335728436715,24.933572843671545,ug/ml,Imaginary Labs,URINE,0.01,BASELINE,3,1,2014-01-25T06:00:00,1,0-6h Post-dose,3
448,CDISCPILOT01,PC,01-701-1287,16,XAN,XANOMELINE,20.5178012932192,ug/ml,20.5178012932192,20.517801293219208,ug/ml,Imaginary Labs,URINE,0.01,BASELINE,3,1,2014-01-25T12:00:00,1,6-12h Post-dose,9
449,CDISCPILOT01,PC,01-701-1287,17,XAN,XANOMELINE,11.6862581923145,ug/ml,11.6862581923145,11.686258192314536,ug/ml,Imaginary Labs,URINE,0.01,BASELINE,3,1,2014-01-26T00:00:00,2,12-24h Post-dose,18
450,CDISCPILOT01,PC,01-701-1287,18,XAN,XANOMELINE,<BLQ,ug/ml,<BLQ,,ug/ml,Imaginary Labs,URINE,0.01,BASELINE,3,1,2014-01-27T00:00:00,3,24-48h Post-dose,37
451,CDISCPILOT01,PC,01-701-1294,1,XAN,XANOMELINE,<BLQ,ug/ml,<BLQ,0,ug/ml,Imaginary Labs,PLASMA,0.01,BASELINE,3,1,2013-03-23T23:30:00,-1,Pre-dose,-0.5
452,CDISCPILOT01,PC,01-701-1294,2,XAN,XANOMELINE,0.098032139299654,ug/ml,0.098032139299654,0.09803213929965397,ug/ml,Imaginary Labs,PLASMA,0.01,BASELINE,3,1,2013-03-24T00:05:00,1,5 Min Post-dose,0.08
453,CDISCPILOT01,PC,01-701-1294,3,XAN,XANOMELINE,0.535947430605971,ug/ml,0.535947430605971,0.5359474306059706,ug/ml,Imaginary Labs,PLASMA,0.01,BASELINE,3,1,2013-03-24T00:30:00,1,30 Min Post-dose,0.5
454,CDISCPILOT01,PC,01-701-1294,4,XAN,XANOMELINE,0.921587967862826,ug/ml,0.921587967862826,0.921587967862826,ug/ml,Imaginary Labs,PLASMA,0.01,BASELINE,3,1,2013-03-24T01:00:00,1,1h Post-dose,1
455,CDISCPILOT01,PC,01-701-1294,5,XAN,XANOMELINE,1.19907530240906,ug/ml,1.19907530240906,1.1990753024090646,ug/ml,Imaginary Labs,PLASMA,0.01,BASELINE,3,1,2013-03-24T01:30:00,1,1.5h Post-dose,1.5
456,CDISCPILOT01,PC,01-701-1294,6,XAN,XANOMELINE,1.39874108801679,ug/ml,1.39874108801679,1.3987410880167923,ug/ml,Imaginary Labs,PLASMA,0.01,BASELINE,3,1,2013-03-24T02:00:00,1,2h Post-dose,2
457,CDISCPILOT01,PC,01-701-1294,7,XAN,XANOMELINE,1.7736961979231,ug/ml,1.7736961979231,1.7736961979231043,ug/ml,Imaginary Labs,PLASMA,0.01,BASELINE,3,1,2013-03-24T04:00:00,1,4h Post-dose,4
458,CDISCPILOT01,PC,01-701-1294,8,XAN,XANOMELINE,1.87420896304405,ug/ml,1.87420896304405,1.8742089630440548,ug/ml,Imaginary Labs,PLASMA,0.01,BASELINE,3,1,2013-03-24T06:00:00,1,6h Post-dose,6
459,CDISCPILOT01,PC,01-701-1294,9,XAN,XANOMELINE,1.9011530309747,ug/ml,1.9011530309747,1.9011530309747031,ug/ml,Imaginary Labs,PLASMA,0.01,BASELINE,3,1,2013-03-24T08:00:00,1,8h Post-dose,8
460,CDISCPILOT01,PC,01-701-1294,10,XAN,XANOMELINE,0.609161183454955,ug/ml,0.609161183454955,0.6091611834549547,ug/ml,Imaginary Labs,PLASMA,0.01,BASELINE,3,1,2013-03-24T12:00:00,1,12h Post-dose,12
461,CDISCPILOT01,PC,01-701-1294,11,XAN,XANOMELINE,0.194177522497568,ug/ml,0.194177522497568,0.1941775224975678,ug/ml,Imaginary Labs,PLASMA,0.01,BASELINE,3,1,2013-03-24T16:00:00,1,16h Post-dose,16
462,CDISCPILOT01,PC,01-701-1294,12,XAN,XANOMELINE,0.0197302425162229,ug/ml,0.0197302425162229,0.019730242516222886,ug/ml,Imaginary Labs,PLASMA,0.01,BASELINE,3,1,2013-03-25T00:00:00,2,24h Post-dose,24
463,CDISCPILOT01,PC,01-701-1294,13,XAN,XANOMELINE,<BLQ,ug/ml,<BLQ,,ug/ml,Imaginary Labs,PLASMA,0.01,BASELINE,3,1,2013-03-25T12:00:00,2,36h Post-dose,36
464,CDISCPILOT01,PC,01-701-1294,14,XAN,XANOMELINE,<BLQ,ug/ml,<BLQ,,ug/ml,Imaginary Labs,PLASMA,0.01,BASELINE,3,1,2013-03-26T00:00:00,3,48h Post-dose,48
465,CDISCPILOT01,PC,01-701-1294,15,XAN,XANOMELINE,28.8641777700589,ug/ml,28.8641777700589,28.86417777005888,ug/ml,Imaginary Labs,URINE,0.01,BASELINE,3,1,2013-03-24T06:00:00,1,0-6h Post-dose,3
466,CDISCPILOT01,PC,01-701-1294,16,XAN,XANOMELINE,24.9146130410799,ug/ml,24.9146130410799,24.91461304107986,ug/ml,Imaginary Labs,URINE,0.01,BASELINE,3,1,2013-03-24T12:00:00,1,6-12h Post-dose,9
467,CDISCPILOT01,PC,01-701-1294,17,XAN,XANOMELINE,17.0154835831218,ug/ml,17.0154835831218,17.015483583121817,ug/ml,Imaginary Labs,URINE,0.01,BASELINE,3,1,2013-03-25T00:00:00,2,12-24h Post-dose,18
468,CDISCPILOT01,PC,01-701-1294,18,XAN,XANOMELINE,1.21722466720573,ug/ml,1.21722466720573,1.217224667205734,ug/ml,Imaginary Labs,URINE,0.01,BASELINE,3,1,2013-03-26T00:00:00,3,24-48h Post-dose,37
469,CDISCPILOT01,PC,01-701-1302,1,XAN,XANOMELINE,<BLQ,ug/ml,<BLQ,0,ug/ml,Imaginary Labs,PLASMA,0.01,BASELINE,3,1,2013-08-28T23:30:00,-1,Pre-dose,-0.5
470,CDISCPILOT01,PC,01-701-1302,2,XAN,XANOMELINE,0.101270509043284,ug/ml,0.101270509043284,0.10127050904328352,ug/ml,Imaginary Labs,PLASMA,0.01,BASELINE,3,1,2013-08-29T00:05:00,1,5 Min Post-dose,0.08
471,CDISCPILOT01,PC,01-701-1302,3,XAN,XANOMELINE,0.549344114641361,ug/ml,0.549344114641361,0.5493441146413615,ug/ml,Imaginary Labs,PLASMA,0.01,BASELINE,3,1,2013-08-29T00:30:00,1,30 Min Post-dose,0.5
472,CDISCPILOT01,PC,01-701-1302,4,XAN,XANOMELINE,0.936836162118955,ug/ml,0.936836162118955,0.9368361621189547,ug/ml,Imaginary Labs,PLASMA,0.01,BASELINE,3,1,2013-08-29T01:00:00,1,1h Post-dose,1
473,CDISCPILOT01,PC,01-701-1302,5,XAN,XANOMELINE,1.21016226657063,ug/ml,1.21016226657063,1.210162266570629,ug/ml,Imaginary Labs,PLASMA,0.01,BASELINE,3,1,2013-08-29T01:30:00,1,1.5h Post-dose,1.5
474,CDISCPILOT01,PC,01-701-1302,6,XAN,XANOMELINE,1.40295889262022,ug/ml,1.40295889262022,1.4029588926202197,ug/ml,Imaginary Labs,PLASMA,0.01,BASELINE,3,1,2013-08-29T02:00:00,1,2h Post-dose,2
475,CDISCPILOT01,PC,01-701-1302,7,XAN,XANOMELINE,1.7502696358056,ug/ml,1.7502696358056,1.7502696358055985,ug/ml,Imaginary Labs,PLASMA,0.01,BASELINE,3,1,2013-08-29T04:00:00,1,4h Post-dose,4
476,CDISCPILOT01,PC,01-701-1302,8,XAN,XANOMELINE,1.83624845739936,ug/ml,1.83624845739936,1.8362484573993632,ug/ml,Imaginary Labs,PLASMA,0.01,BASELINE,3,1,2013-08-29T06:00:00,1,6h Post-dose,6
477,CDISCPILOT01,PC,01-701-1302,9,XAN,XANOMELINE,1.85753302146108,ug/ml,1.85753302146108,1.8575330214610826,ug/ml,Imaginary Labs,PLASMA,0.01,BASELINE,3,1,2013-08-29T08:00:00,1,8h Post-dose,8
478,CDISCPILOT01,PC,01-701-1302,10,XAN,XANOMELINE,0.554647266778689,ug/ml,0.554647266778689,0.5546472667786889,ug/ml,Imaginary Labs,PLASMA,0.01,BASELINE,3,1,2013-08-29T12:00:00,1,12h Post-dose,12
479,CDISCPILOT01,PC,01-701-1302,11,XAN,XANOMELINE,0.164992062967778,ug/ml,0.164992062967778,0.16499206296777838,ug/ml,Imaginary Labs,PLASMA,0.01,BASELINE,3,1,2013-08-29T16:00:00,1,16h Post-dose,16
480,CDISCPILOT01,PC,01-701-1302,12,XAN,XANOMELINE,0.0146000856607303,ug/ml,0.0146000856607303,0.014600085660730313,ug/ml,Imaginary Labs,PLASMA,0.01,BASELINE,3,1,2013-08-30T00:00:00,2,24h Post-dose,24
481,CDISCPILOT01,PC,01-701-1302,13,XAN,XANOMELINE,<BLQ,ug/ml,<BLQ,,ug/ml,Imaginary Labs,PLASMA,0.01,BASELINE,3,1,2013-08-30T12:00:00,2,36h Post-dose,36
482,CDISCPILOT01,PC,01-701-1302,14,XAN,XANOMELINE,<BLQ,ug/ml,<BLQ,,ug/ml,Imaginary Labs,PLASMA,0.01,BASELINE,3,1,2013-08-31T00:00:00,3,48h Post-dose,48
483,CDISCPILOT01,PC,01-701-1302,15,XAN,XANOMELINE,26.7545668899587,ug/ml,26.7545668899587,26.754566889958735,ug/ml,Imaginary Labs,URINE,0.01,BASELINE,3,1,2013-08-29T06:00:00,1,0-6h Post-dose,3
484,CDISCPILOT01,PC,01-701-1302,16,XAN,XANOMELINE,22.5662102279759,ug/ml,22.5662102279759,22.5662102279759,ug/ml,Imaginary Labs,URINE,0.01,BASELINE,3,1,2013-08-29T12:00:00,1,6-12h Post-dose,9
485,CDISCPILOT01,PC,01-701-1302,17,XAN,XANOMELINE,14.1894969040102,ug/ml,14.1894969040102,14.189496904010234,ug/ml,Imaginary Labs,URINE,0.01,BASELINE,3,1,2013-08-30T00:00:00,2,12-24h Post-dose,18
486,CDISCPILOT01,PC,01-701-1302,18,XAN,XANOMELINE,<BLQ,ug/ml,<BLQ,,ug/ml,Imaginary Labs,URINE,0.01,BASELINE,3,1,2013-08-31T00:00:00,3,24-48h Post-dose,37
487,CDISCPILOT01,PC,01-701-1317,1,XAN,XANOMELINE,<BLQ,ug/ml,<BLQ,0,ug/ml,Imaginary Labs,PLASMA,0.01,BASELINE,3,1,2014-05-21T23:30:00,-1,Pre-dose,-0.5
488,CDISCPILOT01,PC,01-701-1317,2,XAN,XANOMELINE,0.105035080381844,ug/ml,0.105035080381844,0.1050350803818441,ug/ml,Imaginary Labs,PLASMA,0.01,BASELINE,3,1,2014-05-22T00:05:00,1,5 Min Post-dose,0.08
489,CDISCPILOT01,PC,01-701-1317,3,XAN,XANOMELINE,0.567213075778631,ug/ml,0.567213075778631,0.5672130757786312,ug/ml,Imaginary Labs,PLASMA,0.01,BASELINE,3,1,2014-05-22T00:30:00,1,30 Min Post-dose,0.5
490,CDISCPILOT01,PC,01-701-1317,4,XAN,XANOMELINE,0.962745011485442,ug/ml,0.962745011485442,0.9627450114854421,ug/ml,Imaginary Labs,PLASMA,0.01,BASELINE,3,1,2014-05-22T01:00:00,1,1h Post-dose,1
491,CDISCPILOT01,PC,01-701-1317,5,XAN,XANOMELINE,1.23855937269215,ug/ml,1.23855937269215,1.2385593726921529,ug/ml,Imaginary Labs,PLASMA,0.01,BASELINE,3,1,2014-05-22T01:30:00,1,1.5h Post-dose,1.5
492,CDISCPILOT01,PC,01-701-1317,6,XAN,XANOMELINE,1.43089165987378,ug/ml,1.43089165987378,1.4308916598737769,ug/ml,Imaginary Labs,PLASMA,0.01,BASELINE,3,1,2014-05-22T02:00:00,1,2h Post-dose,2
493,CDISCPILOT01,PC,01-701-1317,7,XAN,XANOMELINE,1.76922752339871,ug/ml,1.76922752339871,1.7692275233987098,ug/ml,Imaginary Labs,PLASMA,0.01,BASELINE,3,1,2014-05-22T04:00:00,1,4h Post-dose,4
494,CDISCPILOT01,PC,01-701-1317,8,XAN,XANOMELINE,1.84922740022884,ug/ml,1.84922740022884,1.8492274002288394,ug/ml,Imaginary Labs,PLASMA,0.01,BASELINE,3,1,2014-05-22T06:00:00,1,6h Post-dose,6
495,CDISCPILOT01,PC,01-701-1317,9,XAN,XANOMELINE,1.86814345667688,ug/ml,1.86814345667688,1.8681434566768849,ug/ml,Imaginary Labs,PLASMA,0.01,BASELINE,3,1,2014-05-22T08:00:00,1,8h Post-dose,8
496,CDISCPILOT01,PC,01-701-1317,10,XAN,XANOMELINE,0.535681279017374,ug/ml,0.535681279017374,0.5356812790173741,ug/ml,Imaginary Labs,PLASMA,0.01,BASELINE,3,1,2014-05-22T12:00:00,1,12h Post-dose,12
497,CDISCPILOT01,PC,01-701-1317,11,XAN,XANOMELINE,0.153123927048279,ug/ml,0.153123927048279,0.15312392704827948,ug/ml,Imaginary Labs,PLASMA,0.01,BASELINE,3,1,2014-05-22T16:00:00,1,16h Post-dose,16
498,CDISCPILOT01,PC,01-701-1317,12,XAN,XANOMELINE,0.0125116975624053,ug/ml,0.0125116975624053,0.012511697562405303,ug/ml,Imaginary Labs,PLASMA,0.01,BASELINE,3,1,2014-05-23T00:00:00,2,24h Post-dose,24
499,CDISCPILOT01,PC,01-701-1317,13,XAN,XANOMELINE,<BLQ,ug/ml,<BLQ,,ug/ml,Imaginary Labs,PLASMA,0.01,BASELINE,3,1,2014-05-23T12:00:00,2,36h Post-dose,36
500,CDISCPILOT01,PC,01-701-1317,14,XAN,XANOMELINE,<BLQ,ug/ml,<BLQ,,ug/ml,Imaginary Labs,PLASMA,0.01,BASELINE,3,1,2014-05-24T00:00:00,3,48h Post-dose,48
501,CDISCPILOT01,PC,01-701-1317,15,XAN,XANOMELINE,25.6320585978753,ug/ml,25.6320585978753,25.63205859787533,ug/ml,Imaginary Labs,URINE,0.01,BASELINE,3,1,2014-05-22T06:00:00,1,0-6h Post-dose,3
502,CDISCPILOT01,PC,01-701-1317,16,XAN,XANOMELINE,21.3060166394874,ug/ml,21.3060166394874,21.30601663948739,ug/ml,Imaginary Labs,URINE,0.01,BASELINE,3,1,2014-05-22T12:00:00,1,6-12h Post-dose,9
503,CDISCPILOT01,PC,01-701-1317,17,XAN,XANOMELINE,12.6539327227115,ug/ml,12.6539327227115,12.653932722711506,ug/ml,Imaginary Labs,URINE,0.01,BASELINE,3,1,2014-05-23T00:00:00,2,12-24h Post-dose,18
504,CDISCPILOT01,PC,01-701-1317,18,XAN,XANOMELINE,<BLQ,ug/ml,<BLQ,,ug/ml,Imaginary Labs,URINE,0.01,BASELINE,3,1,2014-05-24T00:00:00,3,24-48h Post-dose,37
505,CDISCPILOT01,PC,01-701-1324,1,XAN,XANOMELINE,<BLQ,ug/ml,<BLQ,0,ug/ml,Imaginary Labs,PLASMA,0.01,BASELINE,3,1,2012-10-01T23:30:00,-1,Pre-dose,-0.5
506,CDISCPILOT01,PC,01-701-1324,2,XAN,XANOMELINE,0.110291036213384,ug/ml,0.110291036213384,0.11029103621338371,ug/ml,Imaginary Labs,PLASMA,0.01,BASELINE,3,1,2012-10-02T00:05:00,1,5 Min Post-dose,0.08
507,CDISCPILOT01,PC,01-701-1324,3,XAN,XANOMELINE,0.593134720241341,ug/ml,0.593134720241341,0.5931347202413407,ug/ml,Imaginary Labs,PLASMA,0.01,BASELINE,3,1,2012-10-02T00:30:00,1,30 Min Post-dose,0.5
508,CDISCPILOT01,PC,01-701-1324,4,XAN,XANOMELINE,1.00237732157306,ug/ml,1.00237732157306,1.0023773215730627,ug/ml,Imaginary Labs,PLASMA,0.01,BASELINE,3,1,2012-10-02T01:00:00,1,1h Post-dose,1
509,CDISCPILOT01,PC,01-701-1324,5,XAN,XANOMELINE,1.28474067180252,ug/ml,1.28474067180252,1.284740671802516,ug/ml,Imaginary Labs,PLASMA,0.01,BASELINE,3,1,2012-10-02T01:30:00,1,1.5h Post-dose,1.5
510,CDISCPILOT01,PC,01-701-1324,6,XAN,XANOMELINE,1.47956169310713,ug/ml,1.47956169310713,1.4795616931071254,ug/ml,Imaginary Labs,PLASMA,0.01,BASELINE,3,1,2012-10-02T02:00:00,1,2h Post-dose,2
511,CDISCPILOT01,PC,01-701-1324,7,XAN,XANOMELINE,1.81486901493319,ug/ml,1.81486901493319,1.814869014933186,ug/ml,Imaginary Labs,PLASMA,0.01,BASELINE,3,1,2012-10-02T04:00:00,1,4h Post-dose,4
512,CDISCPILOT01,PC,01-701-1324,8,XAN,XANOMELINE,1.89085841138347,ug/ml,1.89085841138347,1.8908584113834666,ug/ml,Imaginary Labs,PLASMA,0.01,BASELINE,3,1,2012-10-02T06:00:00,1,6h Post-dose,6
513,CDISCPILOT01,PC,01-701-1324,9,XAN,XANOMELINE,1.90807959325755,ug/ml,1.90807959325755,1.9080795932575485,ug/ml,Imaginary Labs,PLASMA,0.01,BASELINE,3,1,2012-10-02T08:00:00,1,8h Post-dose,8
514,CDISCPILOT01,PC,01-701-1324,10,XAN,XANOMELINE,0.527076684767043,ug/ml,0.527076684767043,0.5270766847670426,ug/ml,Imaginary Labs,PLASMA,0.01,BASELINE,3,1,2012-10-02T12:00:00,1,12h Post-dose,12
515,CDISCPILOT01,PC,01-701-1324,11,XAN,XANOMELINE,0.145212510661007,ug/ml,0.145212510661007,0.1452125106610067,ug/ml,Imaginary Labs,PLASMA,0.01,BASELINE,3,1,2012-10-02T16:00:00,1,16h Post-dose,16
516,CDISCPILOT01,PC,01-701-1324,12,XAN,XANOMELINE,0.0110221036691495,ug/ml,0.0110221036691495,0.011022103669149508,ug/ml,Imaginary Labs,PLASMA,0.01,BASELINE,3,1,2012-10-03T00:00:00,2,24h Post-dose,24
517,CDISCPILOT01,PC,01-701-1324,13,XAN,XANOMELINE,<BLQ,ug/ml,<BLQ,,ug/ml,Imaginary Labs,PLASMA,0.01,BASELINE,3,1,2012-10-03T12:00:00,2,36h Post-dose,36
518,CDISCPILOT01,PC,01-701-1324,14,XAN,XANOMELINE,<BLQ,ug/ml,<BLQ,,ug/ml,Imaginary Labs,PLASMA,0.01,BASELINE,3,1,2012-10-04T00:00:00,3,48h Post-dose,48
519,CDISCPILOT01,PC,01-701-1324,15,XAN,XANOMELINE,24.6482543162871,ug/ml,24.6482543162871,24.648254316287115,ug/ml,Imaginary Labs,URINE,0.01,BASELINE,3,1,2012-10-02T06:00:00,1,0-6h Post-dose,3
520,CDISCPILOT01,PC,01-701-1324,16,XAN,XANOMELINE,20.1948932771441,ug/ml,20.1948932771441,20.19489327714406,ug/ml,Imaginary Labs,URINE,0.01,BASELINE,3,1,2012-10-02T12:00:00,1,6-12h Post-dose,9
521,CDISCPILOT01,PC,01-701-1324,17,XAN,XANOMELINE,11.2881711988579,ug/ml,11.2881711988579,11.288171198857949,ug/ml,Imaginary Labs,URINE,0.01,BASELINE,3,1,2012-10-03T00:00:00,2,12-24h Post-dose,18
522,CDISCPILOT01,PC,01-701-1324,18,XAN,XANOMELINE,<BLQ,ug/ml,<BLQ,,ug/ml,Imaginary Labs,URINE,0.01,BASELINE,3,1,2012-10-04T00:00:00,3,24-48h Post-dose,37
523,CDISCPILOT01,PC,01-701-1341,1,XAN,XANOMELINE,<BLQ,ug/ml,<BLQ,0,ug/ml,Imaginary Labs,PLASMA,0.01,BASELINE,3,1,2013-01-04T23:30:00,-1,Pre-dose,-0.5
524,CDISCPILOT01,PC,01-701-1341,2,XAN,XANOMELINE,0.102008530855141,ug/ml,0.102008530855141,0.10200853085514086,ug/ml,Imaginary Labs,PLASMA,0.01,BASELINE,3,1,2013-01-05T00:05:00,1,5 Min Post-dose,0.08
525,CDISCPILOT01,PC,01-701-1341,3,XAN,XANOMELINE,0.55191957627214,ug/ml,0.55191957627214,0.5519195762721403,ug/ml,Imaginary Labs,PLASMA,0.01,BASELINE,3,1,2013-01-05T00:30:00,1,30 Min Post-dose,0.5
526,CDISCPILOT01,PC,01-701-1341,4,XAN,XANOMELINE,0.938666979497151,ug/ml,0.938666979497151,0.9386669794971508,ug/ml,Imaginary Labs,PLASMA,0.01,BASELINE,3,1,2013-01-05T01:00:00,1,1h Post-dose,1
527,CDISCPILOT01,PC,01-701-1341,5,XAN,XANOMELINE,1.20967304692379,ug/ml,1.20967304692379,1.2096730469237884,ug/ml,Imaginary Labs,PLASMA,0.01,BASELINE,3,1,2013-01-05T01:30:00,1,1.5h Post-dose,1.5
528,CDISCPILOT01,PC,01-701-1341,6,XAN,XANOMELINE,1.39957552065629,ug/ml,1.39957552065629,1.3995755206562912,ug/ml,Imaginary Labs,PLASMA,0.01,BASELINE,3,1,2013-01-05T02:00:00,1,2h Post-dose,2
529,CDISCPILOT01,PC,01-701-1341,7,XAN,XANOMELINE,1.73702034327363,ug/ml,1.73702034327363,1.7370203432736264,ug/ml,Imaginary Labs,PLASMA,0.01,BASELINE,3,1,2013-01-05T04:00:00,1,4h Post-dose,4
530,CDISCPILOT01,PC,01-701-1341,8,XAN,XANOMELINE,1.81838001742529,ug/ml,1.81838001742529,1.8183800174252929,ug/ml,Imaginary Labs,PLASMA,0.01,BASELINE,3,1,2013-01-05T06:00:00,1,6h Post-dose,6
531,CDISCPILOT01,PC,01-701-1341,9,XAN,XANOMELINE,1.83799625135273,ug/ml,1.83799625135273,1.8379962513527335,ug/ml,Imaginary Labs,PLASMA,0.01,BASELINE,3,1,2013-01-05T08:00:00,1,8h Post-dose,8
532,CDISCPILOT01,PC,01-701-1341,10,XAN,XANOMELINE,0.536170251185877,ug/ml,0.536170251185877,0.5361702511858768,ug/ml,Imaginary Labs,PLASMA,0.01,BASELINE,3,1,2013-01-05T12:00:00,1,12h Post-dose,12
533,CDISCPILOT01,PC,01-701-1341,11,XAN,XANOMELINE,0.15588011352558,ug/ml,0.15588011352558,0.15588011352557954,ug/ml,Imaginary Labs,PLASMA,0.01,BASELINE,3,1,2013-01-05T16:00:00,1,16h Post-dose,16
534,CDISCPILOT01,PC,01-701-1341,12,XAN,XANOMELINE,0.0131754880763473,ug/ml,0.0131754880763473,0.013175488076347311,ug/ml,Imaginary Labs,PLASMA,0.01,BASELINE,3,1,2013-01-06T00:00:00,2,24h Post-dose,24
535,CDISCPILOT01,PC,01-701-1341,13,XAN,XANOMELINE,<BLQ,ug/ml,<BLQ,,ug/ml,Imaginary Labs,PLASMA,0.01,BASELINE,3,1,2013-01-06T12:00:00,2,36h Post-dose,36
536,CDISCPILOT01,PC,01-701-1341,14,XAN,XANOMELINE,<BLQ,ug/ml,<BLQ,,ug/ml,Imaginary Labs,PLASMA,0.01,BASELINE,3,1,2013-01-07T00:00:00,3,48h Post-dose,48
537,CDISCPILOT01,PC,01-701-1341,15,XAN,XANOMELINE,26.1010264969785,ug/ml,26.1010264969785,26.101026496978534,ug/ml,Imaginary Labs,URINE,0.01,BASELINE,3,1,2013-01-05T06:00:00,1,0-6h Post-dose,3
538,CDISCPILOT01,PC,01-701-1341,16,XAN,XANOMELINE,21.8334597119019,ug/ml,21.8334597119019,21.833459711901902,ug/ml,Imaginary Labs,URINE,0.01,BASELINE,3,1,2013-01-05T12:00:00,1,6-12h Post-dose,9
539,CDISCPILOT01,PC,01-701-1341,17,XAN,XANOMELINE,13.2983261417486,ug/ml,13.2983261417486,13.298326141748635,ug/ml,Imaginary Labs,URINE,0.01,BASELINE,3,1,2013-01-06T00:00:00,2,12-24h Post-dose,18
540,CDISCPILOT01,PC,01-701-1341,18,XAN,XANOMELINE,<BLQ,ug/ml,<BLQ,,ug/ml,Imaginary Labs,URINE,0.01,BASELINE,3,1,2013-01-07T00:00:00,3,24-48h Post-dose,37
541,CDISCPILOT01,PC,01-701-1345,1,XAN,XANOMELINE,<BLQ,ug/ml,<BLQ,0,ug/ml,Imaginary Labs,PLASMA,0.01,BASELINE,3,1,2013-10-07T23:30:00,-1,Pre-dose,-0.5
542,CDISCPILOT01,PC,01-701-1345,2,XAN,XANOMELINE,<BLQ,ug/ml,<BLQ,,ug/ml,Imaginary Labs,PLASMA,0.01,BASELINE,3,1,2013-10-08T00:05:00,1,5 Min Post-dose,0.08
543,CDISCPILOT01,PC,01-701-1345,3,XAN,XANOMELINE,<BLQ,ug/ml,<BLQ,,ug/ml,Imaginary Labs,PLASMA,0.01,BASELINE,3,1,2013-10-08T00:30:00,1,30 Min Post-dose,0.5
544,CDISCPILOT01,PC,01-701-1345,4,XAN,XANOMELINE,<BLQ,ug/ml,<BLQ,,ug/ml,Imaginary Labs,PLASMA,0.01,BASELINE,3,1,2013-10-08T01:00:00,1,1h Post-dose,1
545,CDISCPILOT01,PC,01-701-1345,5,XAN,XANOMELINE,<BLQ,ug/ml,<BLQ,,ug/ml,Imaginary Labs,PLASMA,0.01,BASELINE,3,1,2013-10-08T01:30:00,1,1.5h Post-dose,1.5
546,CDISCPILOT01,PC,01-701-1345,6,XAN,XANOMELINE,<BLQ,ug/ml,<BLQ,,ug/ml,Imaginary Labs,PLASMA,0.01,BASELINE,3,1,2013-10-08T02:00:00,1,2h Post-dose,2
547,CDISCPILOT01,PC,01-701-1345,7,XAN,XANOMELINE,<BLQ,ug/ml,<BLQ,,ug/ml,Imaginary Labs,PLASMA,0.01,BASELINE,3,1,2013-10-08T04:00:00,1,4h Post-dose,4
548,CDISCPILOT01,PC,01-701-1345,8,XAN,XANOMELINE,<BLQ,ug/ml,<BLQ,,ug/ml,Imaginary Labs,PLASMA,0.01,BASELINE,3,1,2013-10-08T06:00:00,1,6h Post-dose,6
549,CDISCPILOT01,PC,01-701-1345,9,XAN,XANOMELINE,<BLQ,ug/ml,<BLQ,,ug/ml,Imaginary Labs,PLASMA,0.01,BASELINE,3,1,2013-10-08T08:00:00,1,8h Post-dose,8
550,CDISCPILOT01,PC,01-701-1345,10,XAN,XANOMELINE,<BLQ,ug/ml,<BLQ,,ug/ml,Imaginary Labs,PLASMA,0.01,BASELINE,3,1,2013-10-08T12:00:00,1,12h Post-dose,12
551,CDISCPILOT01,PC,01-701-1345,11,XAN,XANOMELINE,<BLQ,ug/ml,<BLQ,,ug/ml,Imaginary Labs,PLASMA,0.01,BASELINE,3,1,2013-10-08T16:00:00,1,16h Post-dose,16
552,CDISCPILOT01,PC,01-701-1345,12,XAN,XANOMELINE,<BLQ,ug/ml,<BLQ,,ug/ml,Imaginary Labs,PLASMA,0.01,BASELINE,3,1,2013-10-09T00:00:00,2,24h Post-dose,24
553,CDISCPILOT01,PC,01-701-1345,13,XAN,XANOMELINE,<BLQ,ug/ml,<BLQ,,ug/ml,Imaginary Labs,PLASMA,0.01,BASELINE,3,1,2013-10-09T12:00:00,2,36h Post-dose,36
554,CDISCPILOT01,PC,01-701-1345,14,XAN,XANOMELINE,<BLQ,ug/ml,<BLQ,,ug/ml,Imaginary Labs,PLASMA,0.01,BASELINE,3,1,2013-10-10T00:00:00,3,48h Post-dose,48
555,CDISCPILOT01,PC,01-701-1345,15,XAN,XANOMELINE,<BLQ,ug/ml,<BLQ,,ug/ml,Imaginary Labs,URINE,0.01,BASELINE,3,1,2013-10-08T06:00:00,1,0-6h Post-dose,3
556,CDISCPILOT01,PC,01-701-1345,16,XAN,XANOMELINE,<BLQ,ug/ml,<BLQ,,ug/ml,Imaginary Labs,URINE,0.01,BASELINE,3,1,2013-10-08T12:00:00,1,6-12h Post-dose,9
557,CDISCPILOT01,PC,01-701-1345,17,XAN,XANOMELINE,<BLQ,ug/ml,<BLQ,,ug/ml,Imaginary Labs,URINE,0.01,BASELINE,3,1,2013-10-09T00:00:00,2,12-24h Post-dose,18
558,CDISCPILOT01,PC,01-701-1345,18,XAN,XANOMELINE,<BLQ,ug/ml,<BLQ,,ug/ml,Imaginary Labs,URINE,0.01,BASELINE,3,1,2013-10-10T00:00:00,3,24-48h Post-dose,37
559,CDISCPILOT01,PC,01-701-1360,1,XAN,XANOMELINE,<BLQ,ug/ml,<BLQ,0,ug/ml,Imaginary Labs,PLASMA,0.01,BASELINE,3,1,2013-07-30T23:30:00,-1,Pre-dose,-0.5
560,CDISCPILOT01,PC,01-701-1360,2,XAN,XANOMELINE,0.0957881836370659,ug/ml,0.0957881836370659,0.09578818363706586,ug/ml,Imaginary Labs,PLASMA,0.01,BASELINE,3,1,2013-07-31T00:05:00,1,5 Min Post-dose,0.08
561,CDISCPILOT01,PC,01-701-1360,3,XAN,XANOMELINE,0.521125467471429,ug/ml,0.521125467471429,0.5211254674714285,ug/ml,Imaginary Labs,PLASMA,0.01,BASELINE,3,1,2013-07-31T00:30:00,1,30 Min Post-dose,0.5
562,CDISCPILOT01,PC,01-701-1360,4,XAN,XANOMELINE,0.89146271436765,ug/ml,0.89146271436765,0.8914627143676503,ug/ml,Imaginary Labs,PLASMA,0.01,BASELINE,3,1,2013-07-31T01:00:00,1,1h Post-dose,1
563,CDISCPILOT01,PC,01-701-1360,5,XAN,XANOMELINE,1.15464247624753,ug/ml,1.15464247624753,1.1546424762475327,ug/ml,Imaginary Labs,PLASMA,0.01,BASELINE,3,1,2013-07-31T01:30:00,1,1.5h Post-dose,1.5
564,CDISCPILOT01,PC,01-701-1360,6,XAN,XANOMELINE,1.34167088790109,ug/ml,1.34167088790109,1.3416708879010901,ug/ml,Imaginary Labs,PLASMA,0.01,BASELINE,3,1,2013-07-31T02:00:00,1,2h Post-dose,2
565,CDISCPILOT01,PC,01-701-1360,7,XAN,XANOMELINE,1.6838601523585,ug/ml,1.6838601523585,1.683860152358504,ug/ml,Imaginary Labs,PLASMA,0.01,BASELINE,3,1,2013-07-31T04:00:00,1,4h Post-dose,4
566,CDISCPILOT01,PC,01-701-1360,8,XAN,XANOMELINE,1.77113453072195,ug/ml,1.77113453072195,1.7711345307219535,ug/ml,Imaginary Labs,PLASMA,0.01,BASELINE,3,1,2013-07-31T06:00:00,1,6h Post-dose,6
567,CDISCPILOT01,PC,01-701-1360,9,XAN,XANOMELINE,1.79339360752497,ug/ml,1.79339360752497,1.7933936075249743,ug/ml,Imaginary Labs,PLASMA,0.01,BASELINE,3,1,2013-07-31T08:00:00,1,8h Post-dose,8
568,CDISCPILOT01,PC,01-701-1360,10,XAN,XANOMELINE,0.549802927493849,ug/ml,0.549802927493849,0.5498029274938487,ug/ml,Imaginary Labs,PLASMA,0.01,BASELINE,3,1,2013-07-31T12:00:00,1,12h Post-dose,12
569,CDISCPILOT01,PC,01-701-1360,11,XAN,XANOMELINE,0.167840558778938,ug/ml,0.167840558778938,0.1678405587789381,ug/ml,Imaginary Labs,PLASMA,0.01,BASELINE,3,1,2013-07-31T16:00:00,1,16h Post-dose,16
570,CDISCPILOT01,PC,01-701-1360,12,XAN,XANOMELINE,0.0156414371596099,ug/ml,0.0156414371596099,0.01564143715960991,ug/ml,Imaginary Labs,PLASMA,0.01,BASELINE,3,1,2013-08-01T00:00:00,2,24h Post-dose,24
571,CDISCPILOT01,PC,01-701-1360,13,XAN,XANOMELINE,<BLQ,ug/ml,<BLQ,,ug/ml,Imaginary Labs,PLASMA,0.01,BASELINE,3,1,2013-08-01T12:00:00,2,36h Post-dose,36
572,CDISCPILOT01,PC,01-701-1360,14,XAN,XANOMELINE,<BLQ,ug/ml,<BLQ,,ug/ml,Imaginary Labs,PLASMA,0.01,BASELINE,3,1,2013-08-02T00:00:00,3,48h Post-dose,48
573,CDISCPILOT01,PC,01-701-1360,15,XAN,XANOMELINE,27.5191545180392,ug/ml,27.5191545180392,27.519154518039226,ug/ml,Imaginary Labs,URINE,0.01,BASELINE,3,1,2013-07-31T06:00:00,1,0-6h Post-dose,3
574,CDISCPILOT01,PC,01-701-1360,16,XAN,XANOMELINE,23.4202333422259,ug/ml,23.4202333422259,23.420233342225924,ug/ml,Imaginary Labs,URINE,0.01,BASELINE,3,1,2013-07-31T12:00:00,1,6-12h Post-dose,9
575,CDISCPILOT01,PC,01-701-1360,17,XAN,XANOMELINE,15.2223909905993,ug/ml,15.2223909905993,15.222390990599319,ug/ml,Imaginary Labs,URINE,0.01,BASELINE,3,1,2013-08-01T00:00:00,2,12-24h Post-dose,18
576,CDISCPILOT01,PC,01-701-1360,18,XAN,XANOMELINE,<BLQ,ug/ml,<BLQ,,ug/ml,Imaginary Labs,URINE,0.01,BASELINE,3,1,2013-08-02T00:00:00,3,24-48h Post-dose,37
577,CDISCPILOT01,PC,01-701-1363,1,XAN,XANOMELINE,<BLQ,ug/ml,<BLQ,0,ug/ml,Imaginary Labs,PLASMA,0.01,BASELINE,3,1,2013-05-29T23:30:00,-1,Pre-dose,-0.5
578,CDISCPILOT01,PC,01-701-1363,2,XAN,XANOMELINE,<BLQ,ug/ml,<BLQ,,ug/ml,Imaginary Labs,PLASMA,0.01,BASELINE,3,1,2013-05-30T00:05:00,1,5 Min Post-dose,0.08
579,CDISCPILOT01,PC,01-701-1363,3,XAN,XANOMELINE,<BLQ,ug/ml,<BLQ,,ug/ml,Imaginary Labs,PLASMA,0.01,BASELINE,3,1,2013-05-30T00:30:00,1,30 Min Post-dose,0.5
580,CDISCPILOT01,PC,01-701-1363,4,XAN,XANOMELINE,<BLQ,ug/ml,<BLQ,,ug/ml,Imaginary Labs,PLASMA,0.01,BASELINE,3,1,2013-05-30T01:00:00,1,1h Post-dose,1
581,CDISCPILOT01,PC,01-701-1363,5,XAN,XANOMELINE,<BLQ,ug/ml,<BLQ,,ug/ml,Imaginary Labs,PLASMA,0.01,BASELINE,3,1,2013-05-30T01:30:00,1,1.5h Post-dose,1.5
582,CDISCPILOT01,PC,01-701-1363,6,XAN,XANOMELINE,<BLQ,ug/ml,<BLQ,,ug/ml,Imaginary Labs,PLASMA,0.01,BASELINE,3,1,2013-05-30T02:00:00,1,2h Post-dose,2
583,CDISCPILOT01,PC,01-701-1363,7,XAN,XANOMELINE,<BLQ,ug/ml,<BLQ,,ug/ml,Imaginary Labs,PLASMA,0.01,BASELINE,3,1,2013-05-30T04:00:00,1,4h Post-dose,4
584,CDISCPILOT01,PC,01-701-1363,8,XAN,XANOMELINE,<BLQ,ug/ml,<BLQ,,ug/ml,Imaginary Labs,PLASMA,0.01,BASELINE,3,1,2013-05-30T06:00:00,1,6h Post-dose,6
585,CDISCPILOT01,PC,01-701-1363,9,XAN,XANOMELINE,<BLQ,ug/ml,<BLQ,,ug/ml,Imaginary Labs,PLASMA,0.01,BASELINE,3,1,2013-05-30T08:00:00,1,8h Post-dose,8
586,CDISCPILOT01,PC,01-701-1363,10,XAN,XANOMELINE,<BLQ,ug/ml,<BLQ,,ug/ml,Imaginary Labs,PLASMA,0.01,BASELINE,3,1,2013-05-30T12:00:00,1,12h Post-dose,12
587,CDISCPILOT01,PC,01-701-1363,11,XAN,XANOMELINE,<BLQ,ug/ml,<BLQ,,ug/ml,Imaginary Labs,PLASMA,0.01,BASELINE,3,1,2013-05-30T16:00:00,1,16h Post-dose,16
588,CDISCPILOT01,PC,01-701-1363,12,XAN,XANOMELINE,<BLQ,ug/ml,<BLQ,,ug/ml,Imaginary Labs,PLASMA,0.01,BASELINE,3,1,2013-05-31T00:00:00,2,24h Post-dose,24
589,CDISCPILOT01,PC,01-701-1363,13,XAN,XANOMELINE,<BLQ,ug/ml,<BLQ,,ug/ml,Imaginary Labs,PLASMA,0.01,BASELINE,3,1,2013-05-31T12:00:00,2,36h Post-dose,36
590,CDISCPILOT01,PC,01-701-1363,14,XAN,XANOMELINE,<BLQ,ug/ml,<BLQ,,ug/ml,Imaginary Labs,PLASMA,0.01,BASELINE,3,1,2013-06-01T00:00:00,3,48h Post-dose,48
591,CDISCPILOT01,PC,01-701-1363,15,XAN,XANOMELINE,<BLQ,ug/ml,<BLQ,,ug/ml,Imaginary Labs,URINE,0.01,BASELINE,3,1,2013-05-30T06:00:00,1,0-6h Post-dose,3
592,CDISCPILOT01,PC,01-701-1363,16,XAN,XANOMELINE,<BLQ,ug/ml,<BLQ,,ug/ml,Imaginary Labs,URINE,0.01,BASELINE,3,1,2013-05-30T12:00:00,1,6-12h Post-dose,9
593,CDISCPILOT01,PC,01-701-1363,17,XAN,XANOMELINE,<BLQ,ug/ml,<BLQ,,ug/ml,Imaginary Labs,URINE,0.01,BASELINE,3,1,2013-05-31T00:00:00,2,12-24h Post-dose,18
594,CDISCPILOT01,PC,01-701-1363,18,XAN,XANOMELINE,<BLQ,ug/ml,<BLQ,,ug/ml,Imaginary Labs,URINE,0.01,BASELINE,3,1,2013-06-01T00:00:00,3,24-48h Post-dose,37
595,CDISCPILOT01,PC,01-701-1383,1,XAN,XANOMELINE,<BLQ,ug/ml,<BLQ,0,ug/ml,Imaginary Labs,PLASMA,0.01,BASELINE,3,1,2013-02-03T23:30:00,-1,Pre-dose,-0.5
596,CDISCPILOT01,PC,01-701-1383,2,XAN,XANOMELINE,0.0958791790150157,ug/ml,0.0958791790150157,0.0958791790150157,ug/ml,Imaginary Labs,PLASMA,0.01,BASELINE,3,1,2013-02-04T00:05:00,1,5 Min Post-dose,0.08
597,CDISCPILOT01,PC,01-701-1383,3,XAN,XANOMELINE,0.52411496904227,ug/ml,0.52411496904227,0.5241149690422696,ug/ml,Imaginary Labs,PLASMA,0.01,BASELINE,3,1,2013-02-04T00:30:00,1,30 Min Post-dose,0.5
598,CDISCPILOT01,PC,01-701-1383,4,XAN,XANOMELINE,0.901127878861428,ug/ml,0.901127878861428,0.9011278788614279,ug/ml,Imaginary Labs,PLASMA,0.01,BASELINE,3,1,2013-02-04T01:00:00,1,1h Post-dose,1
599,CDISCPILOT01,PC,01-701-1383,5,XAN,XANOMELINE,1.17232550260044,ug/ml,1.17232550260044,1.172325502600439,ug/ml,Imaginary Labs,PLASMA,0.01,BASELINE,3,1,2013-02-04T01:30:00,1,1.5h Post-dose,1.5
600,CDISCPILOT01,PC,01-701-1383,6,XAN,XANOMELINE,1.36740675633513,ug/ml,1.36740675633513,1.3674067563351322,ug/ml,Imaginary Labs,PLASMA,0.01,BASELINE,3,1,2013-02-04T02:00:00,1,2h Post-dose,2
601,CDISCPILOT01,PC,01-701-1383,7,XAN,XANOMELINE,1.73352077117083,ug/ml,1.73352077117083,1.7335207711708263,ug/ml,Imaginary Labs,PLASMA,0.01,BASELINE,3,1,2013-02-04T04:00:00,1,4h Post-dose,4
602,CDISCPILOT01,PC,01-701-1383,8,XAN,XANOMELINE,1.8315453503519,ug/ml,1.8315453503519,1.831545350351902,ug/ml,Imaginary Labs,PLASMA,0.01,BASELINE,3,1,2013-02-04T06:00:00,1,6h Post-dose,6
603,CDISCPILOT01,PC,01-701-1383,9,XAN,XANOMELINE,1.85779077591404,ug/ml,1.85779077591404,1.8577907759140433,ug/ml,Imaginary Labs,PLASMA,0.01,BASELINE,3,1,2013-02-04T08:00:00,1,8h Post-dose,8
604,CDISCPILOT01,PC,01-701-1383,10,XAN,XANOMELINE,0.594629769755929,ug/ml,0.594629769755929,0.5946297697559292,ug/ml,Imaginary Labs,PLASMA,0.01,BASELINE,3,1,2013-02-04T12:00:00,1,12h Post-dose,12
605,CDISCPILOT01,PC,01-701-1383,11,XAN,XANOMELINE,0.189347214806093,ug/ml,0.189347214806093,0.18934721480609257,ug/ml,Imaginary Labs,PLASMA,0.01,BASELINE,3,1,2013-02-04T16:00:00,1,16h Post-dose,16
606,CDISCPILOT01,PC,01-701-1383,12,XAN,XANOMELINE,0.0191992148057778,ug/ml,0.0191992148057778,0.019199214805777763,ug/ml,Imaginary Labs,PLASMA,0.01,BASELINE,3,1,2013-02-05T00:00:00,2,24h Post-dose,24
607,CDISCPILOT01,PC,01-701-1383,13,XAN,XANOMELINE,<BLQ,ug/ml,<BLQ,,ug/ml,Imaginary Labs,PLASMA,0.01,BASELINE,3,1,2013-02-05T12:00:00,2,36h Post-dose,36
608,CDISCPILOT01,PC,01-701-1383,14,XAN,XANOMELINE,<BLQ,ug/ml,<BLQ,,ug/ml,Imaginary Labs,PLASMA,0.01,BASELINE,3,1,2013-02-06T00:00:00,3,48h Post-dose,48
609,CDISCPILOT01,PC,01-701-1383,15,XAN,XANOMELINE,28.8305569758796,ug/ml,28.8305569758796,28.83055697587957,ug/ml,Imaginary Labs,URINE,0.01,BASELINE,3,1,2013-02-04T06:00:00,1,0-6h Post-dose,3
610,CDISCPILOT01,PC,01-701-1383,16,XAN,XANOMELINE,24.877377338956,ug/ml,24.877377338956,24.877377338955974,ug/ml,Imaginary Labs,URINE,0.01,BASELINE,3,1,2013-02-04T12:00:00,1,6-12h Post-dose,9
611,CDISCPILOT01,PC,01-701-1383,17,XAN,XANOMELINE,16.9710180651088,ug/ml,16.9710180651088,16.971018065108783,ug/ml,Imaginary Labs,URINE,0.01,BASELINE,3,1,2013-02-05T00:00:00,2,12-24h Post-dose,18
612,CDISCPILOT01,PC,01-701-1383,18,XAN,XANOMELINE,1.1582995174144,ug/ml,1.1582995174144,1.1582995174143988,ug/ml,Imaginary Labs,URINE,0.01,BASELINE,3,1,2013-02-06T00:00:00,3,24-48h Post-dose,37
613,CDISCPILOT01,PC,01-701-1387,1,XAN,XANOMELINE,<BLQ,ug/ml,<BLQ,0,ug/ml,Imaginary Labs,PLASMA,0.01,BASELINE,3,1,2014-03-11T23:30:00,-1,Pre-dose,-0.5
614,CDISCPILOT01,PC,01-701-1387,2,XAN,XANOMELINE,<BLQ,ug/ml,<BLQ,,ug/ml,Imaginary Labs,PLASMA,0.01,BASELINE,3,1,2014-03-12T00:05:00,1,5 Min Post-dose,0.08
615,CDISCPILOT01,PC,01-701-1387,3,XAN,XANOMELINE,<BLQ,ug/ml,<BLQ,,ug/ml,Imaginary Labs,PLASMA,0.01,BASELINE,3,1,2014-03-12T00:30:00,1,30 Min Post-dose,0.5
616,CDISCPILOT01,PC,01-701-1387,4,XAN,XANOMELINE,<BLQ,ug/ml,<BLQ,,ug/ml,Imaginary Labs,PLASMA,0.01,BASELINE,3,1,2014-03-12T01:00:00,1,1h Post-dose,1
617,CDISCPILOT01,PC,01-701-1387,5,XAN,XANOMELINE,<BLQ,ug/ml,<BLQ,,ug/ml,Imaginary Labs,PLASMA,0.01,BASELINE,3,1,2014-03-12T01:30:00,1,1.5h Post-dose,1.5
618,CDISCPILOT01,PC,01-701-1387,6,XAN,XANOMELINE,<BLQ,ug/ml,<BLQ,,ug/ml,Imaginary Labs,PLASMA,0.01,BASELINE,3,1,2014-03-12T02:00:00,1,2h Post-dose,2
619,CDISCPILOT01,PC,01-701-1387,7,XAN,XANOMELINE,<BLQ,ug/ml,<BLQ,,ug/ml,Imaginary Labs,PLASMA,0.01,BASELINE,3,1,2014-03-12T04:00:00,1,4h Post-dose,4
620,CDISCPILOT01,PC,01-701-1387,8,XAN,XANOMELINE,<BLQ,ug/ml,<BLQ,,ug/ml,Imaginary Labs,PLASMA,0.01,BASELINE,3,1,2014-03-12T06:00:00,1,6h Post-dose,6
621,CDISCPILOT01,PC,01-701-1387,9,XAN,XANOMELINE,<BLQ,ug/ml,<BLQ,,ug/ml,Imaginary Labs,PLASMA,0.01,BASELINE,3,1,2014-03-12T08:00:00,1,8h Post-dose,8
622,CDISCPILOT01,PC,01-701-1387,10,XAN,XANOMELINE,<BLQ,ug/ml,<BLQ,,ug/ml,Imaginary Labs,PLASMA,0.01,BASELINE,3,1,2014-03-12T12:00:00,1,12h Post-dose,12
623,CDISCPILOT01,PC,01-701-1387,11,XAN,XANOMELINE,<BLQ,ug/ml,<BLQ,,ug/ml,Imaginary Labs,PLASMA,0.01,BASELINE,3,1,2014-03-12T16:00:00,1,16h Post-dose,16
624,CDISCPILOT01,PC,01-701-1387,12,XAN,XANOMELINE,<BLQ,ug/ml,<BLQ,,ug/ml,Imaginary Labs,PLASMA,0.01,BASELINE,3,1,2014-03-13T00:00:00,2,24h Post-dose,24
625,CDISCPILOT01,PC,01-701-1387,13,XAN,XANOMELINE,<BLQ,ug/ml,<BLQ,,ug/ml,Imaginary Labs,PLASMA,0.01,BASELINE,3,1,2014-03-13T12:00:00,2,36h Post-dose,36
626,CDISCPILOT01,PC,01-701-1387,14,XAN,XANOMELINE,<BLQ,ug/ml,<BLQ,,ug/ml,Imaginary Labs,PLASMA,0.01,BASELINE,3,1,2014-03-14T00:00:00,3,48h Post-dose,48
627,CDISCPILOT01,PC,01-701-1387,15,XAN,XANOMELINE,<BLQ,ug/ml,<BLQ,,ug/ml,Imaginary Labs,URINE,0.01,BASELINE,3,1,2014-03-12T06:00:00,1,0-6h Post-dose,3
628,CDISCPILOT01,PC,01-701-1387,16,XAN,XANOMELINE,<BLQ,ug/ml,<BLQ,,ug/ml,Imaginary Labs,URINE,0.01,BASELINE,3,1,2014-03-12T12:00:00,1,6-12h Post-dose,9
629,CDISCPILOT01,PC,01-701-1387,17,XAN,XANOMELINE,<BLQ,ug/ml,<BLQ,,ug/ml,Imaginary Labs,URINE,0.01,BASELINE,3,1,2014-03-13T00:00:00,2,12-24h Post-dose,18
630,CDISCPILOT01,PC,01-701-1387,18,XAN,XANOMELINE,<BLQ,ug/ml,<BLQ,,ug/ml,Imaginary Labs,URINE,0.01,BASELINE,3,1,2014-03-14T00:00:00,3,24-48h Post-dose,37
631,CDISCPILOT01,PC,01-701-1392,1,XAN,XANOMELINE,<BLQ,ug/ml,<BLQ,0,ug/ml,Imaginary Labs,PLASMA,0.01,BASELINE,3,1,2012-10-27T23:30:00,-1,Pre-dose,-0.5
632,CDISCPILOT01,PC,01-701-1392,2,XAN,XANOMELINE,<BLQ,ug/ml,<BLQ,,ug/ml,Imaginary Labs,PLASMA,0.01,BASELINE,3,1,2012-10-28T00:05:00,1,5 Min Post-dose,0.08
633,CDISCPILOT01,PC,01-701-1392,3,XAN,XANOMELINE,<BLQ,ug/ml,<BLQ,,ug/ml,Imaginary Labs,PLASMA,0.01,BASELINE,3,1,2012-10-28T00:30:00,1,30 Min Post-dose,0.5
634,CDISCPILOT01,PC,01-701-1392,4,XAN,XANOMELINE,<BLQ,ug/ml,<BLQ,,ug/ml,Imaginary Labs,PLASMA,0.01,BASELINE,3,1,2012-10-28T01:00:00,1,1h Post-dose,1
635,CDISCPILOT01,PC,01-701-1392,5,XAN,XANOMELINE,<BLQ,ug/ml,<BLQ,,ug/ml,Imaginary Labs,PLASMA,0.01,BASELINE,3,1,2012-10-28T01:30:00,1,1.5h Post-dose,1.5
636,CDISCPILOT01,PC,01-701-1392,6,XAN,XANOMELINE,<BLQ,ug/ml,<BLQ,,ug/ml,Imaginary Labs,PLASMA,0.01,BASELINE,3,1,2012-10-28T02:00:00,1,2h Post-dose,2
637,CDISCPILOT01,PC,01-701-1392,7,XAN,XANOMELINE,<BLQ,ug/ml,<BLQ,,ug/ml,Imaginary Labs,PLASMA,0.01,BASELINE,3,1,2012-10-28T04:00:00,1,4h Post-dose,4
638,CDISCPILOT01,PC,01-701-1392,8,XAN,XANOMELINE,<BLQ,ug/ml,<BLQ,,ug/ml,Imaginary Labs,PLASMA,0.01,BASELINE,3,1,2012-10-28T06:00:00,1,6h Post-dose,6
639,CDISCPILOT01,PC,01-701-1392,9,XAN,XANOMELINE,<BLQ,ug/ml,<BLQ,,ug/ml,Imaginary Labs,PLASMA,0.01,BASELINE,3,1,2012-10-28T08:00:00,1,8h Post-dose,8
640,CDISCPILOT01,PC,01-701-1392,10,XAN,XANOMELINE,<BLQ,ug/ml,<BLQ,,ug/ml,Imaginary Labs,PLASMA,0.01,BASELINE,3,1,2012-10-28T12:00:00,1,12h Post-dose,12
641,CDISCPILOT01,PC,01-701-1392,11,XAN,XANOMELINE,<BLQ,ug/ml,<BLQ,,ug/ml,Imaginary Labs,PLASMA,0.01,BASELINE,3,1,2012-10-28T16:00:00,1,16h Post-dose,16
642,CDISCPILOT01,PC,01-701-1392,12,XAN,XANOMELINE,<BLQ,ug/ml,<BLQ,,ug/ml,Imaginary Labs,PLASMA,0.01,BASELINE,3,1,2012-10-29T00:00:00,2,24h Post-dose,24
643,CDISCPILOT01,PC,01-701-1392,13,XAN,XANOMELINE,<BLQ,ug/ml,<BLQ,,ug/ml,Imaginary Labs,PLASMA,0.01,BASELINE,3,1,2012-10-29T12:00:00,2,36h Post-dose,36
644,CDISCPILOT01,PC,01-701-1392,14,XAN,XANOMELINE,<BLQ,ug/ml,<BLQ,,ug/ml,Imaginary Labs,PLASMA,0.01,BASELINE,3,1,2012-10-30T00:00:00,3,48h Post-dose,48
645,CDISCPILOT01,PC,01-701-1392,15,XAN,XANOMELINE,<BLQ,ug/ml,<BLQ,,ug/ml,Imaginary Labs,URINE,0.01,BASELINE,3,1,2012-10-28T06:00:00,1,0-6h Post-dose,3
646,CDISCPILOT01,PC,01-701-1392,16,XAN,XANOMELINE,<BLQ,ug/ml,<BLQ,,ug/ml,Imaginary Labs,URINE,0.01,BASELINE,3,1,2012-10-28T12:00:00,1,6-12h Post-dose,9
647,CDISCPILOT01,PC,01-701-1392,17,XAN,XANOMELINE,<BLQ,ug/ml,<BLQ,,ug/ml,Imaginary Labs,URINE,0.01,BASELINE,3,1,2012-10-29T00:00:00,2,12-24h Post-dose,18
648,CDISCPILOT01,PC,01-701-1392,18,XAN,XANOMELINE,<BLQ,ug/ml,<BLQ,,ug/ml,Imaginary Labs,URINE,0.01,BASELINE,3,1,2012-10-30T00:00:00,3,24-48h Post-dose,37
649,CDISCPILOT01,PC,01-701-1415,1,XAN,XANOMELINE,<BLQ,ug/ml,<BLQ,0,ug/ml,Imaginary Labs,PLASMA,0.01,BASELINE,3,1,2013-09-22T23:30:00,-1,Pre-dose,-0.5
650,CDISCPILOT01,PC,01-701-1415,2,XAN,XANOMELINE,<BLQ,ug/ml,<BLQ,,ug/ml,Imaginary Labs,PLASMA,0.01,BASELINE,3,1,2013-09-23T00:05:00,1,5 Min Post-dose,0.08
651,CDISCPILOT01,PC,01-701-1415,3,XAN,XANOMELINE,<BLQ,ug/ml,<BLQ,,ug/ml,Imaginary Labs,PLASMA,0.01,BASELINE,3,1,2013-09-23T00:30:00,1,30 Min Post-dose,0.5
652,CDISCPILOT01,PC,01-701-1415,4,XAN,XANOMELINE,<BLQ,ug/ml,<BLQ,,ug/ml,Imaginary Labs,PLASMA,0.01,BASELINE,3,1,2013-09-23T01:00:00,1,1h Post-dose,1
653,CDISCPILOT01,PC,01-701-1415,5,XAN,XANOMELINE,<BLQ,ug/ml,<BLQ,,ug/ml,Imaginary Labs,PLASMA,0.01,BASELINE,3,1,2013-09-23T01:30:00,1,1.5h Post-dose,1.5
654,CDISCPILOT01,PC,01-701-1415,6,XAN,XANOMELINE,<BLQ,ug/ml,<BLQ,,ug/ml,Imaginary Labs,PLASMA,0.01,BASELINE,3,1,2013-09-23T02:00:00,1,2h Post-dose,2
655,CDISCPILOT01,PC,01-701-1415,7,XAN,XANOMELINE,<BLQ,ug/ml,<BLQ,,ug/ml,Imaginary Labs,PLASMA,0.01,BASELINE,3,1,2013-09-23T04:00:00,1,4h Post-dose,4
656,CDISCPILOT01,PC,01-701-1415,8,XAN,XANOMELINE,<BLQ,ug/ml,<BLQ,,ug/ml,Imaginary Labs,PLASMA,0.01,BASELINE,3,1,2013-09-23T06:00:00,1,6h Post-dose,6
657,CDISCPILOT01,PC,01-701-1415,9,XAN,XANOMELINE,<BLQ,ug/ml,<BLQ,,ug/ml,Imaginary Labs,PLASMA,0.01,BASELINE,3,1,2013-09-23T08:00:00,1,8h Post-dose,8
658,CDISCPILOT01,PC,01-701-1415,10,XAN,XANOMELINE,<BLQ,ug/ml,<BLQ,,ug/ml,Imaginary Labs,PLASMA,0.01,BASELINE,3,1,2013-09-23T12:00:00,1,12h Post-dose,12
659,CDISCPILOT01,PC,01-701-1415,11,XAN,XANOMELINE,<BLQ,ug/ml,<BLQ,,ug/ml,Imaginary Labs,PLASMA,0.01,BASELINE,3,1,2013-09-23T16:00:00,1,16h Post-dose,16
660,CDISCPILOT01,PC,01-701-1415,12,XAN,XANOMELINE,<BLQ,ug/ml,<BLQ,,ug/ml,Imaginary Labs,PLASMA,0.01,BASELINE,3,1,2013-09-24T00:00:00,2,24h Post-dose,24
661,CDISCPILOT01,PC,01-701-1415,13,XAN,XANOMELINE,<BLQ,ug/ml,<BLQ,,ug/ml,Imaginary Labs,PLASMA,0.01,BASELINE,3,1,2013-09-24T12:00:00,2,36h Post-dose,36
662,CDISCPILOT01,PC,01-701-1415,14,XAN,XANOMELINE,<BLQ,ug/ml,<BLQ,,ug/ml,Imaginary Labs,PLASMA,0.01,BASELINE,3,1,2013-09-25T00:00:00,3,48h Post-dose,48
663,CDISCPILOT01,PC,01-701-1415,15,XAN,XANOMELINE,<BLQ,ug/ml,<BLQ,,ug/ml,Imaginary Labs,URINE,0.01,BASELINE,3,1,2013-09-23T06:00:00,1,0-6h Post-dose,3
664,CDISCPILOT01,PC,01-701-1415,16,XAN,XANOMELINE,<BLQ,ug/ml,<BLQ,,ug/ml,Imaginary Labs,URINE,0.01,BASELINE,3,1,2013-09-23T12:00:00,1,6-12h Post-dose,9
665,CDISCPILOT01,PC,01-701-1415,17,XAN,XANOMELINE,<BLQ,ug/ml,<BLQ,,ug/ml,Imaginary Labs,URINE,0.01,BASELINE,3,1,2013-09-24T00:00:00,2,12-24h Post-dose,18
666,CDISCPILOT01,PC,01-701-1415,18,XAN,XANOMELINE,<BLQ,ug/ml,<BLQ,,ug/ml,Imaginary Labs,URINE,0.01,BASELINE,3,1,2013-09-25T00:00:00,3,24-48h Post-dose,37
667,CDISCPILOT01,PC,01-701-1429,1,XAN,XANOMELINE,<BLQ,ug/ml,<BLQ,0,ug/ml,Imaginary Labs,PLASMA,0.01,BASELINE,3,1,2013-03-18T23:30:00,-1,Pre-dose,-0.5
668,CDISCPILOT01,PC,01-701-1429,2,XAN,XANOMELINE,0.10637423477239,ug/ml,0.10637423477239,0.10637423477238975,ug/ml,Imaginary Labs,PLASMA,0.01,BASELINE,3,1,2013-03-19T00:05:00,1,5 Min Post-dose,0.08
669,CDISCPILOT01,PC,01-701-1429,3,XAN,XANOMELINE,0.574671552027413,ug/ml,0.574671552027413,0.5746715520274127,ug/ml,Imaginary Labs,PLASMA,0.01,BASELINE,3,1,2013-03-19T00:30:00,1,30 Min Post-dose,0.5
670,CDISCPILOT01,PC,01-701-1429,4,XAN,XANOMELINE,0.975809307255464,ug/ml,0.975809307255464,0.9758093072554643,ug/ml,Imaginary Labs,PLASMA,0.01,BASELINE,3,1,2013-03-19T01:00:00,1,1h Post-dose,1
671,CDISCPILOT01,PC,01-701-1429,5,XAN,XANOMELINE,1.25581533522346,ug/ml,1.25581533522346,1.2558153352234616,ug/ml,Imaginary Labs,PLASMA,0.01,BASELINE,3,1,2013-03-19T01:30:00,1,1.5h Post-dose,1.5
672,CDISCPILOT01,PC,01-701-1429,6,XAN,XANOMELINE,1.45126783172019,ug/ml,1.45126783172019,1.4512678317201866,ug/ml,Imaginary Labs,PLASMA,0.01,BASELINE,3,1,2013-03-19T02:00:00,1,2h Post-dose,2
673,CDISCPILOT01,PC,01-701-1429,7,XAN,XANOMELINE,1.79581043693445,ug/ml,1.79581043693445,1.7958104369344496,ug/ml,Imaginary Labs,PLASMA,0.01,BASELINE,3,1,2013-03-19T04:00:00,1,4h Post-dose,4
674,CDISCPILOT01,PC,01-701-1429,8,XAN,XANOMELINE,1.87760761055961,ug/ml,1.87760761055961,1.8776076105596136,ug/ml,Imaginary Labs,PLASMA,0.01,BASELINE,3,1,2013-03-19T06:00:00,1,6h Post-dose,6
675,CDISCPILOT01,PC,01-701-1429,9,XAN,XANOMELINE,1.89702691462189,ug/ml,1.89702691462189,1.8970269146218917,ug/ml,Imaginary Labs,PLASMA,0.01,BASELINE,3,1,2013-03-19T08:00:00,1,8h Post-dose,8
676,CDISCPILOT01,PC,01-701-1429,10,XAN,XANOMELINE,0.545902671275887,ug/ml,0.545902671275887,0.5459026712758872,ug/ml,Imaginary Labs,PLASMA,0.01,BASELINE,3,1,2013-03-19T12:00:00,1,12h Post-dose,12
677,CDISCPILOT01,PC,01-701-1429,11,XAN,XANOMELINE,0.156593997304399,ug/ml,0.156593997304399,0.1565939973043995,ug/ml,Imaginary Labs,PLASMA,0.01,BASELINE,3,1,2013-03-19T16:00:00,1,16h Post-dose,16
678,CDISCPILOT01,PC,01-701-1429,12,XAN,XANOMELINE,0.0128853106089857,ug/ml,0.0128853106089857,0.01288531060898573,ug/ml,Imaginary Labs,PLASMA,0.01,BASELINE,3,1,2013-03-20T00:00:00,2,24h Post-dose,24
679,CDISCPILOT01,PC,01-701-1429,13,XAN,XANOMELINE,<BLQ,ug/ml,<BLQ,,ug/ml,Imaginary Labs,PLASMA,0.01,BASELINE,3,1,2013-03-20T12:00:00,2,36h Post-dose,36
680,CDISCPILOT01,PC,01-701-1429,14,XAN,XANOMELINE,<BLQ,ug/ml,<BLQ,,ug/ml,Imaginary Labs,PLASMA,0.01,BASELINE,3,1,2013-03-21T00:00:00,3,48h Post-dose,48
681,CDISCPILOT01,PC,01-701-1429,15,XAN,XANOMELINE,25.7283203647355,ug/ml,25.7283203647355,25.728320364735488,ug/ml,Imaginary Labs,URINE,0.01,BASELINE,3,1,2013-03-19T06:00:00,1,0-6h Post-dose,3
682,CDISCPILOT01,PC,01-701-1429,16,XAN,XANOMELINE,21.4143951707402,ug/ml,21.4143951707402,21.41439517074025,ug/ml,Imaginary Labs,URINE,0.01,BASELINE,3,1,2013-03-19T12:00:00,1,6-12h Post-dose,9
683,CDISCPILOT01,PC,01-701-1429,17,XAN,XANOMELINE,12.7865447827498,ug/ml,12.7865447827498,12.786544782749775,ug/ml,Imaginary Labs,URINE,0.01,BASELINE,3,1,2013-03-20T00:00:00,2,12-24h Post-dose,18
684,CDISCPILOT01,PC,01-701-1429,18,XAN,XANOMELINE,<BLQ,ug/ml,<BLQ,,ug/ml,Imaginary Labs,URINE,0.01,BASELINE,3,1,2013-03-21T00:00:00,3,24-48h Post-dose,37
685,CDISCPILOT01,PC,01-701-1440,1,XAN,XANOMELINE,<BLQ,ug/ml,<BLQ,0,ug/ml,Imaginary Labs,PLASMA,0.01,BASELINE,3,1,2013-08-07T23:30:00,-1,Pre-dose,-0.5
686,CDISCPILOT01,PC,01-701-1440,2,XAN,XANOMELINE,<BLQ,ug/ml,<BLQ,,ug/ml,Imaginary Labs,PLASMA,0.01,BASELINE,3,1,2013-08-08T00:05:00,1,5 Min Post-dose,0.08
687,CDISCPILOT01,PC,01-701-1440,3,XAN,XANOMELINE,<BLQ,ug/ml,<BLQ,,ug/ml,Imaginary Labs,PLASMA,0.01,BASELINE,3,1,2013-08-08T00:30:00,1,30 Min Post-dose,0.5
688,CDISCPILOT01,PC,01-701-1440,4,XAN,XANOMELINE,<BLQ,ug/ml,<BLQ,,ug/ml,Imaginary Labs,PLASMA,0.01,BASELINE,3,1,2013-08-08T01:00:00,1,1h Post-dose,1
689,CDISCPILOT01,PC,01-701-1440,5,XAN,XANOMELINE,<BLQ,ug/ml,<BLQ,,ug/ml,Imaginary Labs,PLASMA,0.01,BASELINE,3,1,2013-08-08T01:30:00,1,1.5h Post-dose,1.5
690,CDISCPILOT01,PC,01-701-1440,6,XAN,XANOMELINE,<BLQ,ug/ml,<BLQ,,ug/ml,Imaginary Labs,PLASMA,0.01,BASELINE,3,1,2013-08-08T02:00:00,1,2h Post-dose,2
691,CDISCPILOT01,PC,01-701-1440,7,XAN,XANOMELINE,<BLQ,ug/ml,<BLQ,,ug/ml,Imaginary Labs,PLASMA,0.01,BASELINE,3,1,2013-08-08T04:00:00,1,4h Post-dose,4
692,CDISCPILOT01,PC,01-701-1440,8,XAN,XANOMELINE,<BLQ,ug/ml,<BLQ,,ug/ml,Imaginary Labs,PLASMA,0.01,BASELINE,3,1,2013-08-08T06:00:00,1,6h Post-dose,6
693,CDISCPILOT01,PC,01-701-1440,9,XAN,XANOMELINE,<BLQ,ug/ml,<BLQ,,ug/ml,Imaginary Labs,PLASMA,0.01,BASELINE,3,1,2013-08-08T08:00:00,1,8h Post-dose,8
694,CDISCPILOT01,PC,01-701-1440,10,XAN,XANOMELINE,<BLQ,ug/ml,<BLQ,,ug/ml,Imaginary Labs,PLASMA,0.01,BASELINE,3,1,2013-08-08T12:00:00,1,12h Post-dose,12
695,CDISCPILOT01,PC,01-701-1440,11,XAN,XANOMELINE,<BLQ,ug/ml,<BLQ,,ug/ml,Imaginary Labs,PLASMA,0.01,BASELINE,3,1,2013-08-08T16:00:00,1,16h Post-dose,16
696,CDISCPILOT01,PC,01-701-1440,12,XAN,XANOMELINE,<BLQ,ug/ml,<BLQ,,ug/ml,Imaginary Labs,PLASMA,0.01,BASELINE,3,1,2013-08-09T00:00:00,2,24h Post-dose,24
697,CDISCPILOT01,PC,01-701-1440,13,XAN,XANOMELINE,<BLQ,ug/ml,<BLQ,,ug/ml,Imaginary Labs,PLASMA,0.01,BASELINE,3,1,2013-08-09T12:00:00,2,36h Post-dose,36
698,CDISCPILOT01,PC,01-701-1440,14,XAN,XANOMELINE,<BLQ,ug/ml,<BLQ,,ug/ml,Imaginary Labs,PLASMA,0.01,BASELINE,3,1,2013-08-10T00:00:00,3,48h Post-dose,48
699,CDISCPILOT01,PC,01-701-1440,15,XAN,XANOMELINE,<BLQ,ug/ml,<BLQ,,ug/ml,Imaginary Labs,URINE,0.01,BASELINE,3,1,2013-08-08T06:00:00,1,0-6h Post-dose,3
700,CDISCPILOT01,PC,01-701-1440,16,XAN,XANOMELINE,<BLQ,ug/ml,<BLQ,,ug/ml,Imaginary Labs,URINE,0.01,BASELINE,3,1,2013-08-08T12:00:00,1,6-12h Post-dose,9
701,CDISCPILOT01,PC,01-701-1440,17,XAN,XANOMELINE,<BLQ,ug/ml,<BLQ,,ug/ml,Imaginary Labs,URINE,0.01,BASELINE,3,1,2013-08-09T00:00:00,2,12-24h Post-dose,18
702,CDISCPILOT01,PC,01-701-1440,18,XAN,XANOMELINE,<BLQ,ug/ml,<BLQ,,ug/ml,Imaginary Labs,URINE,0.01,BASELINE,3,1,2013-08-10T00:00:00,3,24-48h Post-dose,37
703,CDISCPILOT01,PC,01-701-1442,1,XAN,XANOMELINE,<BLQ,ug/ml,<BLQ,0,ug/ml,Imaginary Labs,PLASMA,0.01,BASELINE,3,1,2013-10-25T23:30:00,-1,Pre-dose,-0.5
704,CDISCPILOT01,PC,01-701-1442,2,XAN,XANOMELINE,0.105526545376363,ug/ml,0.105526545376363,0.10552654537636288,ug/ml,Imaginary Labs,PLASMA,0.01,BASELINE,3,1,2013-10-26T00:05:00,1,5 Min Post-dose,0.08
705,CDISCPILOT01,PC,01-701-1442,3,XAN,XANOMELINE,0.56794457202344,ug/ml,0.56794457202344,0.56794457202344,ug/ml,Imaginary Labs,PLASMA,0.01,BASELINE,3,1,2013-10-26T00:30:00,1,30 Min Post-dose,0.5
706,CDISCPILOT01,PC,01-701-1442,4,XAN,XANOMELINE,0.960573587016936,ug/ml,0.960573587016936,0.960573587016936,ug/ml,Imaginary Labs,PLASMA,0.01,BASELINE,3,1,2013-10-26T01:00:00,1,1h Post-dose,1
707,CDISCPILOT01,PC,01-701-1442,5,XAN,XANOMELINE,1.23200420015853,ug/ml,1.23200420015853,1.2320042001585303,ug/ml,Imaginary Labs,PLASMA,0.01,BASELINE,3,1,2013-10-26T01:30:00,1,1.5h Post-dose,1.5
708,CDISCPILOT01,PC,01-701-1442,6,XAN,XANOMELINE,1.41964845195088,ug/ml,1.41964845195088,1.4196484519508803,ug/ml,Imaginary Labs,PLASMA,0.01,BASELINE,3,1,2013-10-26T02:00:00,1,2h Post-dose,2
709,CDISCPILOT01,PC,01-701-1442,7,XAN,XANOMELINE,1.7439033627723,ug/ml,1.7439033627723,1.7439033627723048,ug/ml,Imaginary Labs,PLASMA,0.01,BASELINE,3,1,2013-10-26T04:00:00,1,4h Post-dose,4
710,CDISCPILOT01,PC,01-701-1442,8,XAN,XANOMELINE,1.81796482992449,ug/ml,1.81796482992449,1.8179648299244893,ug/ml,Imaginary Labs,PLASMA,0.01,BASELINE,3,1,2013-10-26T06:00:00,1,6h Post-dose,6
711,CDISCPILOT01,PC,01-701-1442,9,XAN,XANOMELINE,1.8348808448673,ug/ml,1.8348808448673,1.8348808448672977,ug/ml,Imaginary Labs,PLASMA,0.01,BASELINE,3,1,2013-10-26T08:00:00,1,8h Post-dose,8
712,CDISCPILOT01,PC,01-701-1442,10,XAN,XANOMELINE,0.510353025992866,ug/ml,0.510353025992866,0.5103530259928665,ug/ml,Imaginary Labs,PLASMA,0.01,BASELINE,3,1,2013-10-26T12:00:00,1,12h Post-dose,12
713,CDISCPILOT01,PC,01-701-1442,11,XAN,XANOMELINE,0.141563058701369,ug/ml,0.141563058701369,0.14156305870136873,ug/ml,Imaginary Labs,PLASMA,0.01,BASELINE,3,1,2013-10-26T16:00:00,1,16h Post-dose,16
714,CDISCPILOT01,PC,01-701-1442,12,XAN,XANOMELINE,0.0108920198676995,ug/ml,0.0108920198676995,0.010892019867699504,ug/ml,Imaginary Labs,PLASMA,0.01,BASELINE,3,1,2013-10-27T00:00:00,2,24h Post-dose,24
715,CDISCPILOT01,PC,01-701-1442,13,XAN,XANOMELINE,<BLQ,ug/ml,<BLQ,,ug/ml,Imaginary Labs,PLASMA,0.01,BASELINE,3,1,2013-10-27T12:00:00,2,36h Post-dose,36
716,CDISCPILOT01,PC,01-701-1442,14,XAN,XANOMELINE,<BLQ,ug/ml,<BLQ,,ug/ml,Imaginary Labs,PLASMA,0.01,BASELINE,3,1,2013-10-28T00:00:00,3,48h Post-dose,48
717,CDISCPILOT01,PC,01-701-1442,15,XAN,XANOMELINE,24.8258109073735,ug/ml,24.8258109073735,24.825810907373466,ug/ml,Imaginary Labs,URINE,0.01,BASELINE,3,1,2013-10-26T06:00:00,1,0-6h Post-dose,3
718,CDISCPILOT01,PC,01-701-1442,16,XAN,XANOMELINE,20.3959071594405,ug/ml,20.3959071594405,20.395907159440483,ug/ml,Imaginary Labs,URINE,0.01,BASELINE,3,1,2013-10-26T12:00:00,1,6-12h Post-dose,9
719,CDISCPILOT01,PC,01-701-1442,17,XAN,XANOMELINE,11.5360996635745,ug/ml,11.5360996635745,11.536099663574511,ug/ml,Imaginary Labs,URINE,0.01,BASELINE,3,1,2013-10-27T00:00:00,2,12-24h Post-dose,18
720,CDISCPILOT01,PC,01-701-1442,18,XAN,XANOMELINE,<BLQ,ug/ml,<BLQ,,ug/ml,Imaginary Labs,URINE,0.01,BASELINE,3,1,2013-10-28T00:00:00,3,24-48h Post-dose,37
721,CDISCPILOT01,PC,01-701-1444,1,XAN,XANOMELINE,<BLQ,ug/ml,<BLQ,0,ug/ml,Imaginary Labs,PLASMA,0.01,BASELINE,3,1,2013-01-04T23:30:00,-1,Pre-dose,-0.5
722,CDISCPILOT01,PC,01-701-1444,2,XAN,XANOMELINE,0.0974399190418884,ug/ml,0.0974399190418884,0.0974399190418884,ug/ml,Imaginary Labs,PLASMA,0.01,BASELINE,3,1,2013-01-05T00:05:00,1,5 Min Post-dose,0.08
723,CDISCPILOT01,PC,01-701-1444,3,XAN,XANOMELINE,0.527961878902247,ug/ml,0.527961878902247,0.527961878902247,ug/ml,Imaginary Labs,PLASMA,0.01,BASELINE,3,1,2013-01-05T00:30:00,1,30 Min Post-dose,0.5
724,CDISCPILOT01,PC,01-701-1444,4,XAN,XANOMELINE,0.899287327596805,ug/ml,0.899287327596805,0.899287327596805,ug/ml,Imaginary Labs,PLASMA,0.01,BASELINE,3,1,2013-01-05T01:00:00,1,1h Post-dose,1
725,CDISCPILOT01,PC,01-701-1444,5,XAN,XANOMELINE,1.16044744986719,ug/ml,1.16044744986719,1.1604474498671928,ug/ml,Imaginary Labs,PLASMA,0.01,BASELINE,3,1,2013-01-05T01:30:00,1,1.5h Post-dose,1.5
726,CDISCPILOT01,PC,01-701-1444,6,XAN,XANOMELINE,1.34412624081477,ug/ml,1.34412624081477,1.3441262408147727,ug/ml,Imaginary Labs,PLASMA,0.01,BASELINE,3,1,2013-01-05T02:00:00,1,2h Post-dose,2
727,CDISCPILOT01,PC,01-701-1444,7,XAN,XANOMELINE,1.67301471555593,ug/ml,1.67301471555593,1.6730147155559327,ug/ml,Imaginary Labs,PLASMA,0.01,BASELINE,3,1,2013-01-05T04:00:00,1,4h Post-dose,4
728,CDISCPILOT01,PC,01-701-1444,8,XAN,XANOMELINE,1.75348902335012,ug/ml,1.75348902335012,1.753489023350116,ug/ml,Imaginary Labs,PLASMA,0.01,BASELINE,3,1,2013-01-05T06:00:00,1,6h Post-dose,6
729,CDISCPILOT01,PC,01-701-1444,9,XAN,XANOMELINE,1.7731799359613,ug/ml,1.7731799359613,1.7731799359612974,ug/ml,Imaginary Labs,PLASMA,0.01,BASELINE,3,1,2013-01-05T08:00:00,1,8h Post-dose,8
730,CDISCPILOT01,PC,01-701-1444,10,XAN,XANOMELINE,0.524034887428497,ug/ml,0.524034887428497,0.5240348874284971,ug/ml,Imaginary Labs,PLASMA,0.01,BASELINE,3,1,2013-01-05T12:00:00,1,12h Post-dose,12
731,CDISCPILOT01,PC,01-701-1444,11,XAN,XANOMELINE,0.154314965912027,ug/ml,0.154314965912027,0.15431496591202706,ug/ml,Imaginary Labs,PLASMA,0.01,BASELINE,3,1,2013-01-05T16:00:00,1,16h Post-dose,16
732,CDISCPILOT01,PC,01-701-1444,12,XAN,XANOMELINE,0.0133814673829855,ug/ml,0.0133814673829855,0.01338146738298554,ug/ml,Imaginary Labs,PLASMA,0.01,BASELINE,3,1,2013-01-06T00:00:00,2,24h Post-dose,24
733,CDISCPILOT01,PC,01-701-1444,13,XAN,XANOMELINE,<BLQ,ug/ml,<BLQ,,ug/ml,Imaginary Labs,PLASMA,0.01,BASELINE,3,1,2013-01-06T12:00:00,2,36h Post-dose,36
734,CDISCPILOT01,PC,01-701-1444,14,XAN,XANOMELINE,<BLQ,ug/ml,<BLQ,,ug/ml,Imaginary Labs,PLASMA,0.01,BASELINE,3,1,2013-01-07T00:00:00,3,48h Post-dose,48
735,CDISCPILOT01,PC,01-701-1444,15,XAN,XANOMELINE,26.4632547361457,ug/ml,26.4632547361457,26.463254736145714,ug/ml,Imaginary Labs,URINE,0.01,BASELINE,3,1,2013-01-05T06:00:00,1,0-6h Post-dose,3
736,CDISCPILOT01,PC,01-701-1444,16,XAN,XANOMELINE,22.2399125308411,ug/ml,22.2399125308411,22.239912530841064,ug/ml,Imaginary Labs,URINE,0.01,BASELINE,3,1,2013-01-05T12:00:00,1,6-12h Post-dose,9
737,CDISCPILOT01,PC,01-701-1444,17,XAN,XANOMELINE,13.7932281202318,ug/ml,13.7932281202318,13.79322812023176,ug/ml,Imaginary Labs,URINE,0.01,BASELINE,3,1,2013-01-06T00:00:00,2,12-24h Post-dose,18
738,CDISCPILOT01,PC,01-701-1444,18,XAN,XANOMELINE,<BLQ,ug/ml,<BLQ,,ug/ml,Imaginary Labs,URINE,0.01,BASELINE,3,1,2013-01-07T00:00:00,3,24-48h Post-dose,37
739,CDISCPILOT01,PC,01-702-1082,1,XAN,XANOMELINE,<BLQ,ug/ml,<BLQ,0,ug/ml,Imaginary Labs,PLASMA,0.01,BASELINE,3,1,2013-07-25T23:30:00,-1,Pre-dose,-0.5
740,CDISCPILOT01,PC,01-702-1082,2,XAN,XANOMELINE,0.103772425420284,ug/ml,0.103772425420284,0.10377242542028356,ug/ml,Imaginary Labs,PLASMA,0.01,BASELINE,3,1,2013-07-26T00:05:00,1,5 Min Post-dose,0.08
741,CDISCPILOT01,PC,01-702-1082,3,XAN,XANOMELINE,0.562822722640429,ug/ml,0.562822722640429,0.5628227226404289,ug/ml,Imaginary Labs,PLASMA,0.01,BASELINE,3,1,2013-07-26T00:30:00,1,30 Min Post-dose,0.5
742,CDISCPILOT01,PC,01-702-1082,4,XAN,XANOMELINE,0.959654613498979,ug/ml,0.959654613498979,0.9596546134989791,ug/ml,Imaginary Labs,PLASMA,0.01,BASELINE,3,1,2013-07-26T01:00:00,1,1h Post-dose,1
743,CDISCPILOT01,PC,01-702-1082,5,XAN,XANOMELINE,1.23945061900421,ug/ml,1.23945061900421,1.2394506190042127,ug/ml,Imaginary Labs,PLASMA,0.01,BASELINE,3,1,2013-07-26T01:30:00,1,1.5h Post-dose,1.5
744,CDISCPILOT01,PC,01-702-1082,6,XAN,XANOMELINE,1.43672761840896,ug/ml,1.43672761840896,1.4367276184089552,ug/ml,Imaginary Labs,PLASMA,0.01,BASELINE,3,1,2013-07-26T02:00:00,1,2h Post-dose,2
745,CDISCPILOT01,PC,01-702-1082,7,XAN,XANOMELINE,1.79179781034719,ug/ml,1.79179781034719,1.7917978103471865,ug/ml,Imaginary Labs,PLASMA,0.01,BASELINE,3,1,2013-07-26T04:00:00,1,4h Post-dose,4
746,CDISCPILOT01,PC,01-702-1082,8,XAN,XANOMELINE,1.87954919730992,ug/ml,1.87954919730992,1.8795491973099214,ug/ml,Imaginary Labs,PLASMA,0.01,BASELINE,3,1,2013-07-26T06:00:00,1,6h Post-dose,6
747,CDISCPILOT01,PC,01-702-1082,9,XAN,XANOMELINE,1.90123591190528,ug/ml,1.90123591190528,1.90123591190528,ug/ml,Imaginary Labs,PLASMA,0.01,BASELINE,3,1,2013-07-26T08:00:00,1,8h Post-dose,8
748,CDISCPILOT01,PC,01-702-1082,10,XAN,XANOMELINE,0.566850230494363,ug/ml,0.566850230494363,0.5668502304943631,ug/ml,Imaginary Labs,PLASMA,0.01,BASELINE,3,1,2013-07-26T12:00:00,1,12h Post-dose,12
749,CDISCPILOT01,PC,01-702-1082,11,XAN,XANOMELINE,0.168374962056635,ug/ml,0.168374962056635,0.1683749620566354,ug/ml,Imaginary Labs,PLASMA,0.01,BASELINE,3,1,2013-07-26T16:00:00,1,16h Post-dose,16
750,CDISCPILOT01,PC,01-702-1082,12,XAN,XANOMELINE,0.0148557943040091,ug/ml,0.0148557943040091,0.014855794304009141,ug/ml,Imaginary Labs,PLASMA,0.01,BASELINE,3,1,2013-07-27T00:00:00,2,24h Post-dose,24
751,CDISCPILOT01,PC,01-702-1082,13,XAN,XANOMELINE,<BLQ,ug/ml,<BLQ,,ug/ml,Imaginary Labs,PLASMA,0.01,BASELINE,3,1,2013-07-27T12:00:00,2,36h Post-dose,36
752,CDISCPILOT01,PC,01-702-1082,14,XAN,XANOMELINE,<BLQ,ug/ml,<BLQ,,ug/ml,Imaginary Labs,PLASMA,0.01,BASELINE,3,1,2013-07-28T00:00:00,3,48h Post-dose,48
753,CDISCPILOT01,PC,01-702-1082,15,XAN,XANOMELINE,26.7121124685213,ug/ml,26.7121124685213,26.712112468521347,ug/ml,Imaginary Labs,URINE,0.01,BASELINE,3,1,2013-07-26T06:00:00,1,0-6h Post-dose,3
754,CDISCPILOT01,PC,01-702-1082,16,XAN,XANOMELINE,22.518688991613,ug/ml,22.518688991613,22.518688991612994,ug/ml,Imaginary Labs,URINE,0.01,BASELINE,3,1,2013-07-26T12:00:00,1,6-12h Post-dose,9
755,CDISCPILOT01,PC,01-702-1082,17,XAN,XANOMELINE,14.1318420377963,ug/ml,14.1318420377963,14.131842037796282,ug/ml,Imaginary Labs,URINE,0.01,BASELINE,3,1,2013-07-27T00:00:00,2,12-24h Post-dose,18
756,CDISCPILOT01,PC,01-702-1082,18,XAN,XANOMELINE,<BLQ,ug/ml,<BLQ,,ug/ml,Imaginary Labs,URINE,0.01,BASELINE,3,1,2013-07-28T00:00:00,3,24-48h Post-dose,37
757,CDISCPILOT01,PC,01-703-1042,1,XAN,XANOMELINE,<BLQ,ug/ml,<BLQ,0,ug/ml,Imaginary Labs,PLASMA,0.01,BASELINE,3,1,2013-03-01T23:30:00,-1,Pre-dose,-0.5
758,CDISCPILOT01,PC,01-703-1042,2,XAN,XANOMELINE,<BLQ,ug/ml,<BLQ,,ug/ml,Imaginary Labs,PLASMA,0.01,BASELINE,3,1,2013-03-02T00:05:00,1,5 Min Post-dose,0.08
759,CDISCPILOT01,PC,01-703-1042,3,XAN,XANOMELINE,<BLQ,ug/ml,<BLQ,,ug/ml,Imaginary Labs,PLASMA,0.01,BASELINE,3,1,2013-03-02T00:30:00,1,30 Min Post-dose,0.5
760,CDISCPILOT01,PC,01-703-1042,4,XAN,XANOMELINE,<BLQ,ug/ml,<BLQ,,ug/ml,Imaginary Labs,PLASMA,0.01,BASELINE,3,1,2013-03-02T01:00:00,1,1h Post-dose,1
761,CDISCPILOT01,PC,01-703-1042,5,XAN,XANOMELINE,<BLQ,ug/ml,<BLQ,,ug/ml,Imaginary Labs,PLASMA,0.01,BASELINE,3,1,2013-03-02T01:30:00,1,1.5h Post-dose,1.5
762,CDISCPILOT01,PC,01-703-1042,6,XAN,XANOMELINE,<BLQ,ug/ml,<BLQ,,ug/ml,Imaginary Labs,PLASMA,0.01,BASELINE,3,1,2013-03-02T02:00:00,1,2h Post-dose,2
763,CDISCPILOT01,PC,01-703-1042,7,XAN,XANOMELINE,<BLQ,ug/ml,<BLQ,,ug/ml,Imaginary Labs,PLASMA,0.01,BASELINE,3,1,2013-03-02T04:00:00,1,4h Post-dose,4
764,CDISCPILOT01,PC,01-703-1042,8,XAN,XANOMELINE,<BLQ,ug/ml,<BLQ,,ug/ml,Imaginary Labs,PLASMA,0.01,BASELINE,3,1,2013-03-02T06:00:00,1,6h Post-dose,6
765,CDISCPILOT01,PC,01-703-1042,9,XAN,XANOMELINE,<BLQ,ug/ml,<BLQ,,ug/ml,Imaginary Labs,PLASMA,0.01,BASELINE,3,1,2013-03-02T08:00:00,1,8h Post-dose,8
766,CDISCPILOT01,PC,01-703-1042,10,XAN,XANOMELINE,<BLQ,ug/ml,<BLQ,,ug/ml,Imaginary Labs,PLASMA,0.01,BASELINE,3,1,2013-03-02T12:00:00,1,12h Post-dose,12
767,CDISCPILOT01,PC,01-703-1042,11,XAN,XANOMELINE,<BLQ,ug/ml,<BLQ,,ug/ml,Imaginary Labs,PLASMA,0.01,BASELINE,3,1,2013-03-02T16:00:00,1,16h Post-dose,16
768,CDISCPILOT01,PC,01-703-1042,12,XAN,XANOMELINE,<BLQ,ug/ml,<BLQ,,ug/ml,Imaginary Labs,PLASMA,0.01,BASELINE,3,1,2013-03-03T00:00:00,2,24h Post-dose,24
769,CDISCPILOT01,PC,01-703-1042,13,XAN,XANOMELINE,<BLQ,ug/ml,<BLQ,,ug/ml,Imaginary Labs,PLASMA,0.01,BASELINE,3,1,2013-03-03T12:00:00,2,36h Post-dose,36
770,CDISCPILOT01,PC,01-703-1042,14,XAN,XANOMELINE,<BLQ,ug/ml,<BLQ,,ug/ml,Imaginary Labs,PLASMA,0.01,BASELINE,3,1,2013-03-04T00:00:00,3,48h Post-dose,48
771,CDISCPILOT01,PC,01-703-1042,15,XAN,XANOMELINE,<BLQ,ug/ml,<BLQ,,ug/ml,Imaginary Labs,URINE,0.01,BASELINE,3,1,2013-03-02T06:00:00,1,0-6h Post-dose,3
772,CDISCPILOT01,PC,01-703-1042,16,XAN,XANOMELINE,<BLQ,ug/ml,<BLQ,,ug/ml,Imaginary Labs,URINE,0.01,BASELINE,3,1,2013-03-02T12:00:00,1,6-12h Post-dose,9
773,CDISCPILOT01,PC,01-703-1042,17,XAN,XANOMELINE,<BLQ,ug/ml,<BLQ,,ug/ml,Imaginary Labs,URINE,0.01,BASELINE,3,1,2013-03-03T00:00:00,2,12-24h Post-dose,18
774,CDISCPILOT01,PC,01-703-1042,18,XAN,XANOMELINE,<BLQ,ug/ml,<BLQ,,ug/ml,Imaginary Labs,URINE,0.01,BASELINE,3,1,2013-03-04T00:00:00,3,24-48h Post-dose,37
775,CDISCPILOT01,PC,01-703-1076,1,XAN,XANOMELINE,<BLQ,ug/ml,<BLQ,0,ug/ml,Imaginary Labs,PLASMA,0.01,BASELINE,3,1,2013-10-24T23:30:00,-1,Pre-dose,-0.5
776,CDISCPILOT01,PC,01-703-1076,2,XAN,XANOMELINE,0.0981278532088665,ug/ml,0.0981278532088665,0.09812785320886647,ug/ml,Imaginary Labs,PLASMA,0.01,BASELINE,3,1,2013-10-25T00:05:00,1,5 Min Post-dose,0.08
777,CDISCPILOT01,PC,01-703-1076,3,XAN,XANOMELINE,0.53392539298713,ug/ml,0.53392539298713,0.53392539298713,ug/ml,Imaginary Labs,PLASMA,0.01,BASELINE,3,1,2013-10-25T00:30:00,1,30 Min Post-dose,0.5
778,CDISCPILOT01,PC,01-703-1076,4,XAN,XANOMELINE,0.913487892949809,ug/ml,0.913487892949809,0.9134878929498091,ug/ml,Imaginary Labs,PLASMA,0.01,BASELINE,3,1,2013-10-25T01:00:00,1,1h Post-dose,1
779,CDISCPILOT01,PC,01-703-1076,5,XAN,XANOMELINE,1.18331527570812,ug/ml,1.18331527570812,1.1833152757081178,ug/ml,Imaginary Labs,PLASMA,0.01,BASELINE,3,1,2013-10-25T01:30:00,1,1.5h Post-dose,1.5
780,CDISCPILOT01,PC,01-703-1076,6,XAN,XANOMELINE,1.37513300399623,ug/ml,1.37513300399623,1.3751330039962326,ug/ml,Imaginary Labs,PLASMA,0.01,BASELINE,3,1,2013-10-25T02:00:00,1,2h Post-dose,2
781,CDISCPILOT01,PC,01-703-1076,7,XAN,XANOMELINE,1.72633388386227,ug/ml,1.72633388386227,1.7263338838622662,ug/ml,Imaginary Labs,PLASMA,0.01,BASELINE,3,1,2013-10-25T04:00:00,1,4h Post-dose,4
782,CDISCPILOT01,PC,01-703-1076,8,XAN,XANOMELINE,1.81602852260647,ug/ml,1.81602852260647,1.8160285226064719,ug/ml,Imaginary Labs,PLASMA,0.01,BASELINE,3,1,2013-10-25T06:00:00,1,6h Post-dose,6
783,CDISCPILOT01,PC,01-703-1076,9,XAN,XANOMELINE,1.83893600570424,ug/ml,1.83893600570424,1.838936005704243,ug/ml,Imaginary Labs,PLASMA,0.01,BASELINE,3,1,2013-10-25T08:00:00,1,8h Post-dose,8
784,CDISCPILOT01,PC,01-703-1076,10,XAN,XANOMELINE,0.56444408439937,ug/ml,0.56444408439937,0.5644440843993697,ug/ml,Imaginary Labs,PLASMA,0.01,BASELINE,3,1,2013-10-25T12:00:00,1,12h Post-dose,12
785,CDISCPILOT01,PC,01-703-1076,11,XAN,XANOMELINE,0.172513707639653,ug/ml,0.172513707639653,0.17251370763965282,ug/ml,Imaginary Labs,PLASMA,0.01,BASELINE,3,1,2013-10-25T16:00:00,1,16h Post-dose,16
786,CDISCPILOT01,PC,01-703-1076,12,XAN,XANOMELINE,0.016114950489745,ug/ml,0.016114950489745,0.016114950489745022,ug/ml,Imaginary Labs,PLASMA,0.01,BASELINE,3,1,2013-10-26T00:00:00,2,24h Post-dose,24
787,CDISCPILOT01,PC,01-703-1076,13,XAN,XANOMELINE,<BLQ,ug/ml,<BLQ,,ug/ml,Imaginary Labs,PLASMA,0.01,BASELINE,3,1,2013-10-26T12:00:00,2,36h Post-dose,36
788,CDISCPILOT01,PC,01-703-1076,14,XAN,XANOMELINE,<BLQ,ug/ml,<BLQ,,ug/ml,Imaginary Labs,PLASMA,0.01,BASELINE,3,1,2013-10-27T00:00:00,3,48h Post-dose,48
789,CDISCPILOT01,PC,01-703-1076,15,XAN,XANOMELINE,27.5547298823065,ug/ml,27.5547298823065,27.554729882306486,ug/ml,Imaginary Labs,URINE,0.01,BASELINE,3,1,2013-10-25T06:00:00,1,0-6h Post-dose,3
790,CDISCPILOT01,PC,01-703-1076,16,XAN,XANOMELINE,23.4598877767148,ug/ml,23.4598877767148,23.459887776714815,ug/ml,Imaginary Labs,URINE,0.01,BASELINE,3,1,2013-10-25T12:00:00,1,6-12h Post-dose,9
791,CDISCPILOT01,PC,01-703-1076,17,XAN,XANOMELINE,15.2702035655315,ug/ml,15.2702035655315,15.270203565531478,ug/ml,Imaginary Labs,URINE,0.01,BASELINE,3,1,2013-10-26T00:00:00,2,12-24h Post-dose,18
792,CDISCPILOT01,PC,01-703-1076,18,XAN,XANOMELINE,<BLQ,ug/ml,<BLQ,,ug/ml,Imaginary Labs,URINE,0.01,BASELINE,3,1,2013-10-27T00:00:00,3,24-48h Post-dose,37
793,CDISCPILOT01,PC,01-703-1086,1,XAN,XANOMELINE,<BLQ,ug/ml,<BLQ,0,ug/ml,Imaginary Labs,PLASMA,0.01,BASELINE,3,1,2012-09-01T23:30:00,-1,Pre-dose,-0.5
794,CDISCPILOT01,PC,01-703-1086,2,XAN,XANOMELINE,0.104173740212896,ug/ml,0.104173740212896,0.10417374021289623,ug/ml,Imaginary Labs,PLASMA,0.01,BASELINE,3,1,2012-09-02T00:05:00,1,5 Min Post-dose,0.08
795,CDISCPILOT01,PC,01-703-1086,3,XAN,XANOMELINE,0.561098247160275,ug/ml,0.561098247160275,0.5610982471602752,ug/ml,Imaginary Labs,PLASMA,0.01,BASELINE,3,1,2012-09-02T00:30:00,1,30 Min Post-dose,0.5
796,CDISCPILOT01,PC,01-703-1086,4,XAN,XANOMELINE,0.949765173847771,ug/ml,0.949765173847771,0.9497651738477711,ug/ml,Imaginary Labs,PLASMA,0.01,BASELINE,3,1,2012-09-02T01:00:00,1,1h Post-dose,1
797,CDISCPILOT01,PC,01-703-1086,5,XAN,XANOMELINE,1.21899071619304,ug/ml,1.21899071619304,1.2189907161930373,ug/ml,Imaginary Labs,PLASMA,0.01,BASELINE,3,1,2012-09-02T01:30:00,1,1.5h Post-dose,1.5
798,CDISCPILOT01,PC,01-703-1086,6,XAN,XANOMELINE,1.40548045245347,ug/ml,1.40548045245347,1.4054804524534668,ug/ml,Imaginary Labs,PLASMA,0.01,BASELINE,3,1,2012-09-02T02:00:00,1,2h Post-dose,2
799,CDISCPILOT01,PC,01-703-1086,7,XAN,XANOMELINE,1.72905884022191,ug/ml,1.72905884022191,1.7290588402219116,ug/ml,Imaginary Labs,PLASMA,0.01,BASELINE,3,1,2012-09-02T04:00:00,1,4h Post-dose,4
800,CDISCPILOT01,PC,01-703-1086,8,XAN,XANOMELINE,1.80355505455777,ug/ml,1.80355505455777,1.8035550545577652,ug/ml,Imaginary Labs,PLASMA,0.01,BASELINE,3,1,2012-09-02T06:00:00,1,6h Post-dose,6
801,CDISCPILOT01,PC,01-703-1086,9,XAN,XANOMELINE,1.82070603299191,ug/ml,1.82070603299191,1.8207060329919147,ug/ml,Imaginary Labs,PLASMA,0.01,BASELINE,3,1,2012-09-02T08:00:00,1,8h Post-dose,8
802,CDISCPILOT01,PC,01-703-1086,10,XAN,XANOMELINE,0.509959976036015,ug/ml,0.509959976036015,0.5099599760360153,ug/ml,Imaginary Labs,PLASMA,0.01,BASELINE,3,1,2012-09-02T12:00:00,1,12h Post-dose,12
803,CDISCPILOT01,PC,01-703-1086,11,XAN,XANOMELINE,0.142432964708418,ug/ml,0.142432964708418,0.14243296470841768,ug/ml,Imaginary Labs,PLASMA,0.01,BASELINE,3,1,2012-09-02T16:00:00,1,16h Post-dose,16
804,CDISCPILOT01,PC,01-703-1086,12,XAN,XANOMELINE,0.0111111588953332,ug/ml,0.0111111588953332,0.01111115889533316,ug/ml,Imaginary Labs,PLASMA,0.01,BASELINE,3,1,2012-09-03T00:00:00,2,24h Post-dose,24
805,CDISCPILOT01,PC,01-703-1086,13,XAN,XANOMELINE,<BLQ,ug/ml,<BLQ,,ug/ml,Imaginary Labs,PLASMA,0.01,BASELINE,3,1,2012-09-03T12:00:00,2,36h Post-dose,36
806,CDISCPILOT01,PC,01-703-1086,14,XAN,XANOMELINE,<BLQ,ug/ml,<BLQ,,ug/ml,Imaginary Labs,PLASMA,0.01,BASELINE,3,1,2012-09-04T00:00:00,3,48h Post-dose,48
807,CDISCPILOT01,PC,01-703-1086,15,XAN,XANOMELINE,25.0078264807769,ug/ml,25.0078264807769,25.00782648077693,ug/ml,Imaginary Labs,URINE,0.01,BASELINE,3,1,2012-09-02T06:00:00,1,0-6h Post-dose,3
808,CDISCPILOT01,PC,01-703-1086,16,XAN,XANOMELINE,20.6017472219606,ug/ml,20.6017472219606,20.601747221960615,ug/ml,Imaginary Labs,URINE,0.01,BASELINE,3,1,2012-09-02T12:00:00,1,6-12h Post-dose,9
809,CDISCPILOT01,PC,01-703-1086,17,XAN,XANOMELINE,11.789588704328,ug/ml,11.789588704328,11.789588704327983,ug/ml,Imaginary Labs,URINE,0.01,BASELINE,3,1,2012-09-03T00:00:00,2,12-24h Post-dose,18
810,CDISCPILOT01,PC,01-703-1086,18,XAN,XANOMELINE,<BLQ,ug/ml,<BLQ,,ug/ml,Imaginary Labs,URINE,0.01,BASELINE,3,1,2012-09-04T00:00:00,3,24-48h Post-dose,37
811,CDISCPILOT01,PC,01-703-1096,1,XAN,XANOMELINE,<BLQ,ug/ml,<BLQ,0,ug/ml,Imaginary Labs,PLASMA,0.01,BASELINE,3,1,2013-01-24T23:30:00,-1,Pre-dose,-0.5
812,CDISCPILOT01,PC,01-703-1096,2,XAN,XANOMELINE,<BLQ,ug/ml,<BLQ,,ug/ml,Imaginary Labs,PLASMA,0.01,BASELINE,3,1,2013-01-25T00:05:00,1,5 Min Post-dose,0.08
813,CDISCPILOT01,PC,01-703-1096,3,XAN,XANOMELINE,<BLQ,ug/ml,<BLQ,,ug/ml,Imaginary Labs,PLASMA,0.01,BASELINE,3,1,2013-01-25T00:30:00,1,30 Min Post-dose,0.5
814,CDISCPILOT01,PC,01-703-1096,4,XAN,XANOMELINE,<BLQ,ug/ml,<BLQ,,ug/ml,Imaginary Labs,PLASMA,0.01,BASELINE,3,1,2013-01-25T01:00:00,1,1h Post-dose,1
815,CDISCPILOT01,PC,01-703-1096,5,XAN,XANOMELINE,<BLQ,ug/ml,<BLQ,,ug/ml,Imaginary Labs,PLASMA,0.01,BASELINE,3,1,2013-01-25T01:30:00,1,1.5h Post-dose,1.5
816,CDISCPILOT01,PC,01-703-1096,6,XAN,XANOMELINE,<BLQ,ug/ml,<BLQ,,ug/ml,Imaginary Labs,PLASMA,0.01,BASELINE,3,1,2013-01-25T02:00:00,1,2h Post-dose,2
817,CDISCPILOT01,PC,01-703-1096,7,XAN,XANOMELINE,<BLQ,ug/ml,<BLQ,,ug/ml,Imaginary Labs,PLASMA,0.01,BASELINE,3,1,2013-01-25T04:00:00,1,4h Post-dose,4
818,CDISCPILOT01,PC,01-703-1096,8,XAN,XANOMELINE,<BLQ,ug/ml,<BLQ,,ug/ml,Imaginary Labs,PLASMA,0.01,BASELINE,3,1,2013-01-25T06:00:00,1,6h Post-dose,6
819,CDISCPILOT01,PC,01-703-1096,9,XAN,XANOMELINE,<BLQ,ug/ml,<BLQ,,ug/ml,Imaginary Labs,PLASMA,0.01,BASELINE,3,1,2013-01-25T08:00:00,1,8h Post-dose,8
820,CDISCPILOT01,PC,01-703-1096,10,XAN,XANOMELINE,<BLQ,ug/ml,<BLQ,,ug/ml,Imaginary Labs,PLASMA,0.01,BASELINE,3,1,2013-01-25T12:00:00,1,12h Post-dose,12
821,CDISCPILOT01,PC,01-703-1096,11,XAN,XANOMELINE,<BLQ,ug/ml,<BLQ,,ug/ml,Imaginary Labs,PLASMA,0.01,BASELINE,3,1,2013-01-25T16:00:00,1,16h Post-dose,16
822,CDISCPILOT01,PC,01-703-1096,12,XAN,XANOMELINE,<BLQ,ug/ml,<BLQ,,ug/ml,Imaginary Labs,PLASMA,0.01,BASELINE,3,1,2013-01-26T00:00:00,2,24h Post-dose,24
823,CDISCPILOT01,PC,01-703-1096,13,XAN,XANOMELINE,<BLQ,ug/ml,<BLQ,,ug/ml,Imaginary Labs,PLASMA,0.01,BASELINE,3,1,2013-01-26T12:00:00,2,36h Post-dose,36
824,CDISCPILOT01,PC,01-703-1096,14,XAN,XANOMELINE,<BLQ,ug/ml,<BLQ,,ug/ml,Imaginary Labs,PLASMA,0.01,BASELINE,3,1,2013-01-27T00:00:00,3,48h Post-dose,48
825,CDISCPILOT01,PC,01-703-1096,15,XAN,XANOMELINE,<BLQ,ug/ml,<BLQ,,ug/ml,Imaginary Labs,URINE,0.01,BASELINE,3,1,2013-01-25T06:00:00,1,0-6h Post-dose,3
826,CDISCPILOT01,PC,01-703-1096,16,XAN,XANOMELINE,<BLQ,ug/ml,<BLQ,,ug/ml,Imaginary Labs,URINE,0.01,BASELINE,3,1,2013-01-25T12:00:00,1,6-12h Post-dose,9
827,CDISCPILOT01,PC,01-703-1096,17,XAN,XANOMELINE,<BLQ,ug/ml,<BLQ,,ug/ml,Imaginary Labs,URINE,0.01,BASELINE,3,1,2013-01-26T00:00:00,2,12-24h Post-dose,18
828,CDISCPILOT01,PC,01-703-1096,18,XAN,XANOMELINE,<BLQ,ug/ml,<BLQ,,ug/ml,Imaginary Labs,URINE,0.01,BASELINE,3,1,2013-01-27T00:00:00,3,24-48h Post-dose,37
829,CDISCPILOT01,PC,01-703-1100,1,XAN,XANOMELINE,<BLQ,ug/ml,<BLQ,0,ug/ml,Imaginary Labs,PLASMA,0.01,BASELINE,3,1,2013-03-12T23:30:00,-1,Pre-dose,-0.5
830,CDISCPILOT01,PC,01-703-1100,2,XAN,XANOMELINE,<BLQ,ug/ml,<BLQ,,ug/ml,Imaginary Labs,PLASMA,0.01,BASELINE,3,1,2013-03-13T00:05:00,1,5 Min Post-dose,0.08
831,CDISCPILOT01,PC,01-703-1100,3,XAN,XANOMELINE,<BLQ,ug/ml,<BLQ,,ug/ml,Imaginary Labs,PLASMA,0.01,BASELINE,3,1,2013-03-13T00:30:00,1,30 Min Post-dose,0.5
832,CDISCPILOT01,PC,01-703-1100,4,XAN,XANOMELINE,<BLQ,ug/ml,<BLQ,,ug/ml,Imaginary Labs,PLASMA,0.01,BASELINE,3,1,2013-03-13T01:00:00,1,1h Post-dose,1
833,CDISCPILOT01,PC,01-703-1100,5,XAN,XANOMELINE,<BLQ,ug/ml,<BLQ,,ug/ml,Imaginary Labs,PLASMA,0.01,BASELINE,3,1,2013-03-13T01:30:00,1,1.5h Post-dose,1.5
834,CDISCPILOT01,PC,01-703-1100,6,XAN,XANOMELINE,<BLQ,ug/ml,<BLQ,,ug/ml,Imaginary Labs,PLASMA,0.01,BASELINE,3,1,2013-03-13T02:00:00,1,2h Post-dose,2
835,CDISCPILOT01,PC,01-703-1100,7,XAN,XANOMELINE,<BLQ,ug/ml,<BLQ,,ug/ml,Imaginary Labs,PLASMA,0.01,BASELINE,3,1,2013-03-13T04:00:00,1,4h Post-dose,4
836,CDISCPILOT01,PC,01-703-1100,8,XAN,XANOMELINE,<BLQ,ug/ml,<BLQ,,ug/ml,Imaginary Labs,PLASMA,0.01,BASELINE,3,1,2013-03-13T06:00:00,1,6h Post-dose,6
837,CDISCPILOT01,PC,01-703-1100,9,XAN,XANOMELINE,<BLQ,ug/ml,<BLQ,,ug/ml,Imaginary Labs,PLASMA,0.01,BASELINE,3,1,2013-03-13T08:00:00,1,8h Post-dose,8
838,CDISCPILOT01,PC,01-703-1100,10,XAN,XANOMELINE,<BLQ,ug/ml,<BLQ,,ug/ml,Imaginary Labs,PLASMA,0.01,BASELINE,3,1,2013-03-13T12:00:00,1,12h Post-dose,12
839,CDISCPILOT01,PC,01-703-1100,11,XAN,XANOMELINE,<BLQ,ug/ml,<BLQ,,ug/ml,Imaginary Labs,PLASMA,0.01,BASELINE,3,1,2013-03-13T16:00:00,1,16h Post-dose,16
840,CDISCPILOT01,PC,01-703-1100,12,XAN,XANOMELINE,<BLQ,ug/ml,<BLQ,,ug/ml,Imaginary Labs,PLASMA,0.01,BASELINE,3,1,2013-03-14T00:00:00,2,24h Post-dose,24
841,CDISCPILOT01,PC,01-703-1100,13,XAN,XANOMELINE,<BLQ,ug/ml,<BLQ,,ug/ml,Imaginary Labs,PLASMA,0.01,BASELINE,3,1,2013-03-14T12:00:00,2,36h Post-dose,36
842,CDISCPILOT01,PC,01-703-1100,14,XAN,XANOMELINE,<BLQ,ug/ml,<BLQ,,ug/ml,Imaginary Labs,PLASMA,0.01,BASELINE,3,1,2013-03-15T00:00:00,3,48h Post-dose,48
843,CDISCPILOT01,PC,01-703-1100,15,XAN,XANOMELINE,<BLQ,ug/ml,<BLQ,,ug/ml,Imaginary Labs,URINE,0.01,BASELINE,3,1,2013-03-13T06:00:00,1,0-6h Post-dose,3
844,CDISCPILOT01,PC,01-703-1100,16,XAN,XANOMELINE,<BLQ,ug/ml,<BLQ,,ug/ml,Imaginary Labs,URINE,0.01,BASELINE,3,1,2013-03-13T12:00:00,1,6-12h Post-dose,9
845,CDISCPILOT01,PC,01-703-1100,17,XAN,XANOMELINE,<BLQ,ug/ml,<BLQ,,ug/ml,Imaginary Labs,URINE,0.01,BASELINE,3,1,2013-03-14T00:00:00,2,12-24h Post-dose,18
846,CDISCPILOT01,PC,01-703-1100,18,XAN,XANOMELINE,<BLQ,ug/ml,<BLQ,,ug/ml,Imaginary Labs,URINE,0.01,BASELINE,3,1,2013-03-15T00:00:00,3,24-48h Post-dose,37
847,CDISCPILOT01,PC,01-703-1119,1,XAN,XANOMELINE,<BLQ,ug/ml,<BLQ,0,ug/ml,Imaginary Labs,PLASMA,0.01,BASELINE,3,1,2013-02-19T23:30:00,-1,Pre-dose,-0.5
848,CDISCPILOT01,PC,01-703-1119,2,XAN,XANOMELINE,0.0939819223325947,ug/ml,0.0939819223325947,0.0939819223325947,ug/ml,Imaginary Labs,PLASMA,0.01,BASELINE,3,1,2013-02-20T00:05:00,1,5 Min Post-dose,0.08
849,CDISCPILOT01,PC,01-703-1119,3,XAN,XANOMELINE,0.512773642942003,ug/ml,0.512773642942003,0.5127736429420026,ug/ml,Imaginary Labs,PLASMA,0.01,BASELINE,3,1,2013-02-20T00:30:00,1,30 Min Post-dose,0.5
850,CDISCPILOT01,PC,01-703-1119,4,XAN,XANOMELINE,0.879859068355701,ug/ml,0.879859068355701,0.8798590683557007,ug/ml,Imaginary Labs,PLASMA,0.01,BASELINE,3,1,2013-02-20T01:00:00,1,1h Post-dose,1
851,CDISCPILOT01,PC,01-703-1119,5,XAN,XANOMELINE,1.14264891999087,ug/ml,1.14264891999087,1.142648919990873,ug/ml,Imaginary Labs,PLASMA,0.01,BASELINE,3,1,2013-02-20T01:30:00,1,1.5h Post-dose,1.5
852,CDISCPILOT01,PC,01-703-1119,6,XAN,XANOMELINE,1.33077544679212,ug/ml,1.33077544679212,1.3307754467921162,ug/ml,Imaginary Labs,PLASMA,0.01,BASELINE,3,1,2013-02-20T02:00:00,1,2h Post-dose,2
853,CDISCPILOT01,PC,01-703-1119,7,XAN,XANOMELINE,1.68029427120375,ug/ml,1.68029427120375,1.6802942712037505,ug/ml,Imaginary Labs,PLASMA,0.01,BASELINE,3,1,2013-02-20T04:00:00,1,4h Post-dose,4
854,CDISCPILOT01,PC,01-703-1119,8,XAN,XANOMELINE,1.77209293559343,ug/ml,1.77209293559343,1.7720929355934263,ug/ml,Imaginary Labs,PLASMA,0.01,BASELINE,3,1,2013-02-20T06:00:00,1,6h Post-dose,6
855,CDISCPILOT01,PC,01-703-1119,9,XAN,XANOMELINE,1.79620321004835,ug/ml,1.79620321004835,1.796203210048355,ug/ml,Imaginary Labs,PLASMA,0.01,BASELINE,3,1,2013-02-20T08:00:00,1,8h Post-dose,8
856,CDISCPILOT01,PC,01-703-1119,10,XAN,XANOMELINE,0.565178136076368,ug/ml,0.565178136076368,0.5651781360763681,ug/ml,Imaginary Labs,PLASMA,0.01,BASELINE,3,1,2013-02-20T12:00:00,1,12h Post-dose,12
857,CDISCPILOT01,PC,01-703-1119,11,XAN,XANOMELINE,0.176987969805074,ug/ml,0.176987969805074,0.17698796980507425,ug/ml,Imaginary Labs,PLASMA,0.01,BASELINE,3,1,2013-02-20T16:00:00,1,16h Post-dose,16
858,CDISCPILOT01,PC,01-703-1119,12,XAN,XANOMELINE,0.0173564354354964,ug/ml,0.0173564354354964,0.017356435435496448,ug/ml,Imaginary Labs,PLASMA,0.01,BASELINE,3,1,2013-02-21T00:00:00,2,24h Post-dose,24
859,CDISCPILOT01,PC,01-703-1119,13,XAN,XANOMELINE,<BLQ,ug/ml,<BLQ,,ug/ml,Imaginary Labs,PLASMA,0.01,BASELINE,3,1,2013-02-21T12:00:00,2,36h Post-dose,36
860,CDISCPILOT01,PC,01-703-1119,14,XAN,XANOMELINE,<BLQ,ug/ml,<BLQ,,ug/ml,Imaginary Labs,PLASMA,0.01,BASELINE,3,1,2013-02-22T00:00:00,3,48h Post-dose,48
861,CDISCPILOT01,PC,01-703-1119,15,XAN,XANOMELINE,28.3012399470709,ug/ml,28.3012399470709,28.30123994707087,ug/ml,Imaginary Labs,URINE,0.01,BASELINE,3,1,2013-02-20T06:00:00,1,0-6h Post-dose,3
862,CDISCPILOT01,PC,01-703-1119,16,XAN,XANOMELINE,24.2903609286338,ug/ml,24.2903609286338,24.290360928633753,ug/ml,Imaginary Labs,URINE,0.01,BASELINE,3,1,2013-02-20T12:00:00,1,6-12h Post-dose,9
863,CDISCPILOT01,PC,01-703-1119,17,XAN,XANOMELINE,16.2686028917595,ug/ml,16.2686028917595,16.268602891759517,ug/ml,Imaginary Labs,URINE,0.01,BASELINE,3,1,2013-02-21T00:00:00,2,12-24h Post-dose,18
864,CDISCPILOT01,PC,01-703-1119,18,XAN,XANOMELINE,0.22508681801105,ug/ml,0.22508681801105,0.22508681801105013,ug/ml,Imaginary Labs,URINE,0.01,BASELINE,3,1,2013-02-22T00:00:00,3,24-48h Post-dose,37
865,CDISCPILOT01,PC,01-703-1175,1,XAN,XANOMELINE,<BLQ,ug/ml,<BLQ,0,ug/ml,Imaginary Labs,PLASMA,0.01,BASELINE,3,1,2013-12-19T23:30:00,-1,Pre-dose,-0.5
866,CDISCPILOT01,PC,01-703-1175,2,XAN,XANOMELINE,<BLQ,ug/ml,<BLQ,,ug/ml,Imaginary Labs,PLASMA,0.01,BASELINE,3,1,2013-12-20T00:05:00,1,5 Min Post-dose,0.08
867,CDISCPILOT01,PC,01-703-1175,3,XAN,XANOMELINE,<BLQ,ug/ml,<BLQ,,ug/ml,Imaginary Labs,PLASMA,0.01,BASELINE,3,1,2013-12-20T00:30:00,1,30 Min Post-dose,0.5
868,CDISCPILOT01,PC,01-703-1175,4,XAN,XANOMELINE,<BLQ,ug/ml,<BLQ,,ug/ml,Imaginary Labs,PLASMA,0.01,BASELINE,3,1,2013-12-20T01:00:00,1,1h Post-dose,1
869,CDISCPILOT01,PC,01-703-1175,5,XAN,XANOMELINE,<BLQ,ug/ml,<BLQ,,ug/ml,Imaginary Labs,PLASMA,0.01,BASELINE,3,1,2013-12-20T01:30:00,1,1.5h Post-dose,1.5
870,CDISCPILOT01,PC,01-703-1175,6,XAN,XANOMELINE,<BLQ,ug/ml,<BLQ,,ug/ml,Imaginary Labs,PLASMA,0.01,BASELINE,3,1,2013-12-20T02:00:00,1,2h Post-dose,2
871,CDISCPILOT01,PC,01-703-1175,7,XAN,XANOMELINE,<BLQ,ug/ml,<BLQ,,ug/ml,Imaginary Labs,PLASMA,0.01,BASELINE,3,1,2013-12-20T04:00:00,1,4h Post-dose,4
872,CDISCPILOT01,PC,01-703-1175,8,XAN,XANOMELINE,<BLQ,ug/ml,<BLQ,,ug/ml,Imaginary Labs,PLASMA,0.01,BASELINE,3,1,2013-12-20T06:00:00,1,6h Post-dose,6
873,CDISCPILOT01,PC,01-703-1175,9,XAN,XANOMELINE,<BLQ,ug/ml,<BLQ,,ug/ml,Imaginary Labs,PLASMA,0.01,BASELINE,3,1,2013-12-20T08:00:00,1,8h Post-dose,8
874,CDISCPILOT01,PC,01-703-1175,10,XAN,XANOMELINE,<BLQ,ug/ml,<BLQ,,ug/ml,Imaginary Labs,PLASMA,0.01,BASELINE,3,1,2013-12-20T12:00:00,1,12h Post-dose,12
875,CDISCPILOT01,PC,01-703-1175,11,XAN,XANOMELINE,<BLQ,ug/ml,<BLQ,,ug/ml,Imaginary Labs,PLASMA,0.01,BASELINE,3,1,2013-12-20T16:00:00,1,16h Post-dose,16
876,CDISCPILOT01,PC,01-703-1175,12,XAN,XANOMELINE,<BLQ,ug/ml,<BLQ,,ug/ml,Imaginary Labs,PLASMA,0.01,BASELINE,3,1,2013-12-21T00:00:00,2,24h Post-dose,24
877,CDISCPILOT01,PC,01-703-1175,13,XAN,XANOMELINE,<BLQ,ug/ml,<BLQ,,ug/ml,Imaginary Labs,PLASMA,0.01,BASELINE,3,1,2013-12-21T12:00:00,2,36h Post-dose,36
878,CDISCPILOT01,PC,01-703-1175,14,XAN,XANOMELINE,<BLQ,ug/ml,<BLQ,,ug/ml,Imaginary Labs,PLASMA,0.01,BASELINE,3,1,2013-12-22T00:00:00,3,48h Post-dose,48
879,CDISCPILOT01,PC,01-703-1175,15,XAN,XANOMELINE,<BLQ,ug/ml,<BLQ,,ug/ml,Imaginary Labs,URINE,0.01,BASELINE,3,1,2013-12-20T06:00:00,1,0-6h Post-dose,3
880,CDISCPILOT01,PC,01-703-1175,16,XAN,XANOMELINE,<BLQ,ug/ml,<BLQ,,ug/ml,Imaginary Labs,URINE,0.01,BASELINE,3,1,2013-12-20T12:00:00,1,6-12h Post-dose,9
881,CDISCPILOT01,PC,01-703-1175,17,XAN,XANOMELINE,<BLQ,ug/ml,<BLQ,,ug/ml,Imaginary Labs,URINE,0.01,BASELINE,3,1,2013-12-21T00:00:00,2,12-24h Post-dose,18
882,CDISCPILOT01,PC,01-703-1175,18,XAN,XANOMELINE,<BLQ,ug/ml,<BLQ,,ug/ml,Imaginary Labs,URINE,0.01,BASELINE,3,1,2013-12-22T00:00:00,3,24-48h Post-dose,37
883,CDISCPILOT01,PC,01-703-1182,1,XAN,XANOMELINE,<BLQ,ug/ml,<BLQ,0,ug/ml,Imaginary Labs,PLASMA,0.01,BASELINE,3,1,2013-10-16T23:30:00,-1,Pre-dose,-0.5
884,CDISCPILOT01,PC,01-703-1182,2,XAN,XANOMELINE,0.0979046255606151,ug/ml,0.0979046255606151,0.09790462556061513,ug/ml,Imaginary Labs,PLASMA,0.01,BASELINE,3,1,2013-10-17T00:05:00,1,5 Min Post-dose,0.08
885,CDISCPILOT01,PC,01-703-1182,3,XAN,XANOMELINE,0.52969240804857,ug/ml,0.52969240804857,0.5296924080485704,ug/ml,Imaginary Labs,PLASMA,0.01,BASELINE,3,1,2013-10-17T00:30:00,1,30 Min Post-dose,0.5
886,CDISCPILOT01,PC,01-703-1182,4,XAN,XANOMELINE,0.900823532986515,ug/ml,0.900823532986515,0.900823532986515,ug/ml,Imaginary Labs,PLASMA,0.01,BASELINE,3,1,2013-10-17T01:00:00,1,1h Post-dose,1
887,CDISCPILOT01,PC,01-703-1182,5,XAN,XANOMELINE,1.16085805454053,ug/ml,1.16085805454053,1.16085805454053,ug/ml,Imaginary Labs,PLASMA,0.01,BASELINE,3,1,2013-10-17T01:30:00,1,1.5h Post-dose,1.5
888,CDISCPILOT01,PC,01-703-1182,6,XAN,XANOMELINE,1.34305229225404,ug/ml,1.34305229225404,1.343052292254038,ug/ml,Imaginary Labs,PLASMA,0.01,BASELINE,3,1,2013-10-17T02:00:00,1,2h Post-dose,2
889,CDISCPILOT01,PC,01-703-1182,7,XAN,XANOMELINE,1.66672601365638,ug/ml,1.66672601365638,1.6667260136563813,ug/ml,Imaginary Labs,PLASMA,0.01,BASELINE,3,1,2013-10-17T04:00:00,1,4h Post-dose,4
890,CDISCPILOT01,PC,01-703-1182,8,XAN,XANOMELINE,1.74473092718854,ug/ml,1.74473092718854,1.7447309271885387,ug/ml,Imaginary Labs,PLASMA,0.01,BASELINE,3,1,2013-10-17T06:00:00,1,6h Post-dose,6
891,CDISCPILOT01,PC,01-703-1182,9,XAN,XANOMELINE,1.7635300020989,ug/ml,1.7635300020989,1.7635300020989038,ug/ml,Imaginary Labs,PLASMA,0.01,BASELINE,3,1,2013-10-17T08:00:00,1,8h Post-dose,8
892,CDISCPILOT01,PC,01-703-1182,10,XAN,XANOMELINE,0.514246898843856,ug/ml,0.514246898843856,0.5142468988438559,ug/ml,Imaginary Labs,PLASMA,0.01,BASELINE,3,1,2013-10-17T12:00:00,1,12h Post-dose,12
893,CDISCPILOT01,PC,01-703-1182,11,XAN,XANOMELINE,0.1494490014434,ug/ml,0.1494490014434,0.14944900144340043,ug/ml,Imaginary Labs,PLASMA,0.01,BASELINE,3,1,2013-10-17T16:00:00,1,16h Post-dose,16
894,CDISCPILOT01,PC,01-703-1182,12,XAN,XANOMELINE,0.0126222183901483,ug/ml,0.0126222183901483,0.012622218390148283,ug/ml,Imaginary Labs,PLASMA,0.01,BASELINE,3,1,2013-10-18T00:00:00,2,24h Post-dose,24
895,CDISCPILOT01,PC,01-703-1182,13,XAN,XANOMELINE,<BLQ,ug/ml,<BLQ,,ug/ml,Imaginary Labs,PLASMA,0.01,BASELINE,3,1,2013-10-18T12:00:00,2,36h Post-dose,36
896,CDISCPILOT01,PC,01-703-1182,14,XAN,XANOMELINE,<BLQ,ug/ml,<BLQ,,ug/ml,Imaginary Labs,PLASMA,0.01,BASELINE,3,1,2013-10-19T00:00:00,3,48h Post-dose,48
897,CDISCPILOT01,PC,01-703-1182,15,XAN,XANOMELINE,26.0902699775083,ug/ml,26.0902699775083,26.090269977508274,ug/ml,Imaginary Labs,URINE,0.01,BASELINE,3,1,2013-10-17T06:00:00,1,0-6h Post-dose,3
898,CDISCPILOT01,PC,01-703-1182,16,XAN,XANOMELINE,21.8213775065748,ug/ml,21.8213775065748,21.821377506574777,ug/ml,Imaginary Labs,URINE,0.01,BASELINE,3,1,2013-10-17T12:00:00,1,6-12h Post-dose,9
899,CDISCPILOT01,PC,01-703-1182,17,XAN,XANOMELINE,13.2835925647078,ug/ml,13.2835925647078,13.283592564707785,ug/ml,Imaginary Labs,URINE,0.01,BASELINE,3,1,2013-10-18T00:00:00,2,12-24h Post-dose,18
900,CDISCPILOT01,PC,01-703-1182,18,XAN,XANOMELINE,<BLQ,ug/ml,<BLQ,,ug/ml,Imaginary Labs,URINE,0.01,BASELINE,3,1,2013-10-19T00:00:00,3,24-48h Post-dose,37
901,CDISCPILOT01,PC,01-703-1197,1,XAN,XANOMELINE,<BLQ,ug/ml,<BLQ,0,ug/ml,Imaginary Labs,PLASMA,0.01,BASELINE,3,1,2013-06-15T23:30:00,-1,Pre-dose,-0.5
902,CDISCPILOT01,PC,01-703-1197,2,XAN,XANOMELINE,0.103865751255451,ug/ml,0.103865751255451,0.10386575125545107,ug/ml,Imaginary Labs,PLASMA,0.01,BASELINE,3,1,2013-06-16T00:05:00,1,5 Min Post-dose,0.08
903,CDISCPILOT01,PC,01-703-1197,3,XAN,XANOMELINE,0.562750432002395,ug/ml,0.562750432002395,0.5627504320023953,ug/ml,Imaginary Labs,PLASMA,0.01,BASELINE,3,1,2013-06-16T00:30:00,1,30 Min Post-dose,0.5
904,CDISCPILOT01,PC,01-703-1197,4,XAN,XANOMELINE,0.958491686607759,ug/ml,0.958491686607759,0.9584916866077585,ug/ml,Imaginary Labs,PLASMA,0.01,BASELINE,3,1,2013-06-16T01:00:00,1,1h Post-dose,1
905,CDISCPILOT01,PC,01-703-1197,5,XAN,XANOMELINE,1.23678759131168,ug/ml,1.23678759131168,1.2367875913116757,ug/ml,Imaginary Labs,PLASMA,0.01,BASELINE,3,1,2013-06-16T01:30:00,1,1.5h Post-dose,1.5
906,CDISCPILOT01,PC,01-703-1197,6,XAN,XANOMELINE,1.43249276400641,ug/ml,1.43249276400641,1.4324927640064062,ug/ml,Imaginary Labs,PLASMA,0.01,BASELINE,3,1,2013-06-16T02:00:00,1,2h Post-dose,2
907,CDISCPILOT01,PC,01-703-1197,7,XAN,XANOMELINE,1.78282039613464,ug/ml,1.78282039613464,1.7828203961346414,ug/ml,Imaginary Labs,PLASMA,0.01,BASELINE,3,1,2013-06-16T04:00:00,1,4h Post-dose,4
908,CDISCPILOT01,PC,01-703-1197,8,XAN,XANOMELINE,1.86849583751651,ug/ml,1.86849583751651,1.8684958375165064,ug/ml,Imaginary Labs,PLASMA,0.01,BASELINE,3,1,2013-06-16T06:00:00,1,6h Post-dose,6
909,CDISCPILOT01,PC,01-703-1197,9,XAN,XANOMELINE,1.8894484561021,ug/ml,1.8894484561021,1.8894484561021005,ug/ml,Imaginary Labs,PLASMA,0.01,BASELINE,3,1,2013-06-16T08:00:00,1,8h Post-dose,8
910,CDISCPILOT01,PC,01-703-1197,10,XAN,XANOMELINE,0.558138991777575,ug/ml,0.558138991777575,0.5581389917775753,ug/ml,Imaginary Labs,PLASMA,0.01,BASELINE,3,1,2013-06-16T12:00:00,1,12h Post-dose,12
911,CDISCPILOT01,PC,01-703-1197,11,XAN,XANOMELINE,0.164283289334848,ug/ml,0.164283289334848,0.16428328933484804,ug/ml,Imaginary Labs,PLASMA,0.01,BASELINE,3,1,2013-06-16T16:00:00,1,16h Post-dose,16
912,CDISCPILOT01,PC,01-703-1197,12,XAN,XANOMELINE,0.0142329670027839,ug/ml,0.0142329670027839,0.01423296700278386,ug/ml,Imaginary Labs,PLASMA,0.01,BASELINE,3,1,2013-06-17T00:00:00,2,24h Post-dose,24
913,CDISCPILOT01,PC,01-703-1197,13,XAN,XANOMELINE,<BLQ,ug/ml,<BLQ,,ug/ml,Imaginary Labs,PLASMA,0.01,BASELINE,3,1,2013-06-17T12:00:00,2,36h Post-dose,36
914,CDISCPILOT01,PC,01-703-1197,14,XAN,XANOMELINE,<BLQ,ug/ml,<BLQ,,ug/ml,Imaginary Labs,PLASMA,0.01,BASELINE,3,1,2013-06-18T00:00:00,3,48h Post-dose,48
915,CDISCPILOT01,PC,01-703-1197,15,XAN,XANOMELINE,26.4503180988923,ug/ml,26.4503180988923,26.450318098892335,ug/ml,Imaginary Labs,URINE,0.01,BASELINE,3,1,2013-06-16T06:00:00,1,0-6h Post-dose,3
916,CDISCPILOT01,PC,01-703-1197,16,XAN,XANOMELINE,22.2254103323304,ug/ml,22.2254103323304,22.22541033233038,ug/ml,Imaginary Labs,URINE,0.01,BASELINE,3,1,2013-06-16T12:00:00,1,6-12h Post-dose,9
917,CDISCPILOT01,PC,01-703-1197,17,XAN,XANOMELINE,13.7755947992065,ug/ml,13.7755947992065,13.77559479920647,ug/ml,Imaginary Labs,URINE,0.01,BASELINE,3,1,2013-06-17T00:00:00,2,12-24h Post-dose,18
918,CDISCPILOT01,PC,01-703-1197,18,XAN,XANOMELINE,<BLQ,ug/ml,<BLQ,,ug/ml,Imaginary Labs,URINE,0.01,BASELINE,3,1,2013-06-18T00:00:00,3,24-48h Post-dose,37
919,CDISCPILOT01,PC,01-703-1210,1,XAN,XANOMELINE,<BLQ,ug/ml,<BLQ,0,ug/ml,Imaginary Labs,PLASMA,0.01,BASELINE,3,1,2013-03-15T23:30:00,-1,Pre-dose,-0.5
920,CDISCPILOT01,PC,01-703-1210,2,XAN,XANOMELINE,<BLQ,ug/ml,<BLQ,,ug/ml,Imaginary Labs,PLASMA,0.01,BASELINE,3,1,2013-03-16T00:05:00,1,5 Min Post-dose,0.08
921,CDISCPILOT01,PC,01-703-1210,3,XAN,XANOMELINE,<BLQ,ug/ml,<BLQ,,ug/ml,Imaginary Labs,PLASMA,0.01,BASELINE,3,1,2013-03-16T00:30:00,1,30 Min Post-dose,0.5
922,CDISCPILOT01,PC,01-703-1210,4,XAN,XANOMELINE,<BLQ,ug/ml,<BLQ,,ug/ml,Imaginary Labs,PLASMA,0.01,BASELINE,3,1,2013-03-16T01:00:00,1,1h Post-dose,1
923,CDISCPILOT01,PC,01-703-1210,5,XAN,XANOMELINE,<BLQ,ug/ml,<BLQ,,ug/ml,Imaginary Labs,PLASMA,0.01,BASELINE,3,1,2013-03-16T01:30:00,1,1.5h Post-dose,1.5
924,CDISCPILOT01,PC,01-703-1210,6,XAN,XANOMELINE,<BLQ,ug/ml,<BLQ,,ug/ml,Imaginary Labs,PLASMA,0.01,BASELINE,3,1,2013-03-16T02:00:00,1,2h Post-dose,2
925,CDISCPILOT01,PC,01-703-1210,7,XAN,XANOMELINE,<BLQ,ug/ml,<BLQ,,ug/ml,Imaginary Labs,PLASMA,0.01,BASELINE,3,1,2013-03-16T04:00:00,1,4h Post-dose,4
926,CDISCPILOT01,PC,01-703-1210,8,XAN,XANOMELINE,<BLQ,ug/ml,<BLQ,,ug/ml,Imaginary Labs,PLASMA,0.01,BASELINE,3,1,2013-03-16T06:00:00,1,6h Post-dose,6
927,CDISCPILOT01,PC,01-703-1210,9,XAN,XANOMELINE,<BLQ,ug/ml,<BLQ,,ug/ml,Imaginary Labs,PLASMA,0.01,BASELINE,3,1,2013-03-16T08:00:00,1,8h Post-dose,8
928,CDISCPILOT01,PC,01-703-1210,10,XAN,XANOMELINE,<BLQ,ug/ml,<BLQ,,ug/ml,Imaginary Labs,PLASMA,0.01,BASELINE,3,1,2013-03-16T12:00:00,1,12h Post-dose,12
929,CDISCPILOT01,PC,01-703-1210,11,XAN,XANOMELINE,<BLQ,ug/ml,<BLQ,,ug/ml,Imaginary Labs,PLASMA,0.01,BASELINE,3,1,2013-03-16T16:00:00,1,16h Post-dose,16
930,CDISCPILOT01,PC,01-703-1210,12,XAN,XANOMELINE,<BLQ,ug/ml,<BLQ,,ug/ml,Imaginary Labs,PLASMA,0.01,BASELINE,3,1,2013-03-17T00:00:00,2,24h Post-dose,24
931,CDISCPILOT01,PC,01-703-1210,13,XAN,XANOMELINE,<BLQ,ug/ml,<BLQ,,ug/ml,Imaginary Labs,PLASMA,0.01,BASELINE,3,1,2013-03-17T12:00:00,2,36h Post-dose,36
932,CDISCPILOT01,PC,01-703-1210,14,XAN,XANOMELINE,<BLQ,ug/ml,<BLQ,,ug/ml,Imaginary Labs,PLASMA,0.01,BASELINE,3,1,2013-03-18T00:00:00,3,48h Post-dose,48
933,CDISCPILOT01,PC,01-703-1210,15,XAN,XANOMELINE,<BLQ,ug/ml,<BLQ,,ug/ml,Imaginary Labs,URINE,0.01,BASELINE,3,1,2013-03-16T06:00:00,1,0-6h Post-dose,3
934,CDISCPILOT01,PC,01-703-1210,16,XAN,XANOMELINE,<BLQ,ug/ml,<BLQ,,ug/ml,Imaginary Labs,URINE,0.01,BASELINE,3,1,2013-03-16T12:00:00,1,6-12h Post-dose,9
935,CDISCPILOT01,PC,01-703-1210,17,XAN,XANOMELINE,<BLQ,ug/ml,<BLQ,,ug/ml,Imaginary Labs,URINE,0.01,BASELINE,3,1,2013-03-17T00:00:00,2,12-24h Post-dose,18
936,CDISCPILOT01,PC,01-703-1210,18,XAN,XANOMELINE,<BLQ,ug/ml,<BLQ,,ug/ml,Imaginary Labs,URINE,0.01,BASELINE,3,1,2013-03-18T00:00:00,3,24-48h Post-dose,37
937,CDISCPILOT01,PC,01-703-1258,1,XAN,XANOMELINE,<BLQ,ug/ml,<BLQ,0,ug/ml,Imaginary Labs,PLASMA,0.01,BASELINE,3,1,2012-07-19T23:30:00,-1,Pre-dose,-0.5
938,CDISCPILOT01,PC,01-703-1258,2,XAN,XANOMELINE,0.10089203318083,ug/ml,0.10089203318083,0.10089203318083032,ug/ml,Imaginary Labs,PLASMA,0.01,BASELINE,3,1,2012-07-20T00:05:00,1,5 Min Post-dose,0.08
939,CDISCPILOT01,PC,01-703-1258,3,XAN,XANOMELINE,0.544132894775696,ug/ml,0.544132894775696,0.544132894775696,ug/ml,Imaginary Labs,PLASMA,0.01,BASELINE,3,1,2012-07-20T00:30:00,1,30 Min Post-dose,0.5
940,CDISCPILOT01,PC,01-703-1258,4,XAN,XANOMELINE,0.922311723350723,ug/ml,0.922311723350723,0.922311723350723,ug/ml,Imaginary Labs,PLASMA,0.01,BASELINE,3,1,2012-07-20T01:00:00,1,1h Post-dose,1
941,CDISCPILOT01,PC,01-703-1258,5,XAN,XANOMELINE,1.18515050364783,ug/ml,1.18515050364783,1.1851505036478325,ug/ml,Imaginary Labs,PLASMA,0.01,BASELINE,3,1,2012-07-20T01:30:00,1,1.5h Post-dose,1.5
942,CDISCPILOT01,PC,01-703-1258,6,XAN,XANOMELINE,1.36782657964178,ug/ml,1.36782657964178,1.3678265796417766,ug/ml,Imaginary Labs,PLASMA,0.01,BASELINE,3,1,2012-07-20T02:00:00,1,2h Post-dose,2
943,CDISCPILOT01,PC,01-703-1258,7,XAN,XANOMELINE,1.68698033749047,ug/ml,1.68698033749047,1.6869803374904682,ug/ml,Imaginary Labs,PLASMA,0.01,BASELINE,3,1,2012-07-20T04:00:00,1,4h Post-dose,4
944,CDISCPILOT01,PC,01-703-1258,8,XAN,XANOMELINE,1.76144819961932,ug/ml,1.76144819961932,1.761448199619319,ug/ml,Imaginary Labs,PLASMA,0.01,BASELINE,3,1,2012-07-20T06:00:00,1,6h Post-dose,6
945,CDISCPILOT01,PC,01-703-1258,9,XAN,XANOMELINE,1.77882371958005,ug/ml,1.77882371958005,1.7788237195800476,ug/ml,Imaginary Labs,PLASMA,0.01,BASELINE,3,1,2012-07-20T08:00:00,1,8h Post-dose,8
946,CDISCPILOT01,PC,01-703-1258,10,XAN,XANOMELINE,0.504133723504046,ug/ml,0.504133723504046,0.5041337235040463,ug/ml,Imaginary Labs,PLASMA,0.01,BASELINE,3,1,2012-07-20T12:00:00,1,12h Post-dose,12
947,CDISCPILOT01,PC,01-703-1258,11,XAN,XANOMELINE,0.142452290086401,ug/ml,0.142452290086401,0.1424522900864012,ug/ml,Imaginary Labs,PLASMA,0.01,BASELINE,3,1,2012-07-20T16:00:00,1,16h Post-dose,16
948,CDISCPILOT01,PC,01-703-1258,12,XAN,XANOMELINE,0.0113740938159095,ug/ml,0.0113740938159095,0.011374093815909462,ug/ml,Imaginary Labs,PLASMA,0.01,BASELINE,3,1,2012-07-21T00:00:00,2,24h Post-dose,24
949,CDISCPILOT01,PC,01-703-1258,13,XAN,XANOMELINE,<BLQ,ug/ml,<BLQ,,ug/ml,Imaginary Labs,PLASMA,0.01,BASELINE,3,1,2012-07-21T12:00:00,2,36h Post-dose,36
950,CDISCPILOT01,PC,01-703-1258,14,XAN,XANOMELINE,<BLQ,ug/ml,<BLQ,,ug/ml,Imaginary Labs,PLASMA,0.01,BASELINE,3,1,2012-07-22T00:00:00,3,48h Post-dose,48
951,CDISCPILOT01,PC,01-703-1258,15,XAN,XANOMELINE,25.3185762946586,ug/ml,25.3185762946586,25.318576294658598,ug/ml,Imaginary Labs,URINE,0.01,BASELINE,3,1,2012-07-20T06:00:00,1,0-6h Post-dose,3
952,CDISCPILOT01,PC,01-703-1258,16,XAN,XANOMELINE,20.9526602905801,ug/ml,20.9526602905801,20.952660290580134,ug/ml,Imaginary Labs,URINE,0.01,BASELINE,3,1,2012-07-20T12:00:00,1,6-12h Post-dose,9
953,CDISCPILOT01,PC,01-703-1258,17,XAN,XANOMELINE,12.2208282824232,ug/ml,12.2208282824232,12.22082828242321,ug/ml,Imaginary Labs,URINE,0.01,BASELINE,3,1,2012-07-21T00:00:00,2,12-24h Post-dose,18
954,CDISCPILOT01,PC,01-703-1258,18,XAN,XANOMELINE,<BLQ,ug/ml,<BLQ,,ug/ml,Imaginary Labs,URINE,0.01,BASELINE,3,1,2012-07-22T00:00:00,3,24-48h Post-dose,37
955,CDISCPILOT01,PC,01-703-1279,1,XAN,XANOMELINE,<BLQ,ug/ml,<BLQ,0,ug/ml,Imaginary Labs,PLASMA,0.01,BASELINE,3,1,2013-05-12T23:30:00,-1,Pre-dose,-0.5
956,CDISCPILOT01,PC,01-703-1279,2,XAN,XANOMELINE,0.107715918568509,ug/ml,0.107715918568509,0.10771591856850903,ug/ml,Imaginary Labs,PLASMA,0.01,BASELINE,3,1,2013-05-13T00:05:00,1,5 Min Post-dose,0.08
957,CDISCPILOT01,PC,01-703-1279,3,XAN,XANOMELINE,0.581643263221692,ug/ml,0.581643263221692,0.5816432632216924,ug/ml,Imaginary Labs,PLASMA,0.01,BASELINE,3,1,2013-05-13T00:30:00,1,30 Min Post-dose,0.5
958,CDISCPILOT01,PC,01-703-1279,4,XAN,XANOMELINE,0.987153978463508,ug/ml,0.987153978463508,0.9871539784635082,ug/ml,Imaginary Labs,PLASMA,0.01,BASELINE,3,1,2013-05-13T01:00:00,1,1h Post-dose,1
959,CDISCPILOT01,PC,01-703-1279,5,XAN,XANOMELINE,1.26986840253353,ug/ml,1.26986840253353,1.2698684025335303,ug/ml,Imaginary Labs,PLASMA,0.01,BASELINE,3,1,2013-05-13T01:30:00,1,1.5h Post-dose,1.5
960,CDISCPILOT01,PC,01-703-1279,6,XAN,XANOMELINE,1.46697156793221,ug/ml,1.46697156793221,1.46697156793221,ug/ml,Imaginary Labs,PLASMA,0.01,BASELINE,3,1,2013-05-13T02:00:00,1,2h Post-dose,2
961,CDISCPILOT01,PC,01-703-1279,7,XAN,XANOMELINE,1.8135521489701,ug/ml,1.8135521489701,1.8135521489700999,ug/ml,Imaginary Labs,PLASMA,0.01,BASELINE,3,1,2013-05-13T04:00:00,1,4h Post-dose,4
962,CDISCPILOT01,PC,01-703-1279,8,XAN,XANOMELINE,1.89543383078202,ug/ml,1.89543383078202,1.895433830782022,ug/ml,Imaginary Labs,PLASMA,0.01,BASELINE,3,1,2013-05-13T06:00:00,1,6h Post-dose,6
963,CDISCPILOT01,PC,01-703-1279,9,XAN,XANOMELINE,1.91477885523859,ug/ml,1.91477885523859,1.9147788552385878,ug/ml,Imaginary Labs,PLASMA,0.01,BASELINE,3,1,2013-05-13T08:00:00,1,8h Post-dose,8
964,CDISCPILOT01,PC,01-703-1279,10,XAN,XANOMELINE,0.548654344835393,ug/ml,0.548654344835393,0.5486543448353932,ug/ml,Imaginary Labs,PLASMA,0.01,BASELINE,3,1,2013-05-13T12:00:00,1,12h Post-dose,12
965,CDISCPILOT01,PC,01-703-1279,11,XAN,XANOMELINE,0.156719796349434,ug/ml,0.156719796349434,0.1567197963494338,ug/ml,Imaginary Labs,PLASMA,0.01,BASELINE,3,1,2013-05-13T16:00:00,1,16h Post-dose,16
966,CDISCPILOT01,PC,01-703-1279,12,XAN,XANOMELINE,0.0127871550257274,ug/ml,0.0127871550257274,0.01278715502572745,ug/ml,Imaginary Labs,PLASMA,0.01,BASELINE,3,1,2013-05-14T00:00:00,2,24h Post-dose,24
967,CDISCPILOT01,PC,01-703-1279,13,XAN,XANOMELINE,<BLQ,ug/ml,<BLQ,,ug/ml,Imaginary Labs,PLASMA,0.01,BASELINE,3,1,2013-05-14T12:00:00,2,36h Post-dose,36
968,CDISCPILOT01,PC,01-703-1279,14,XAN,XANOMELINE,<BLQ,ug/ml,<BLQ,,ug/ml,Imaginary Labs,PLASMA,0.01,BASELINE,3,1,2013-05-15T00:00:00,3,48h Post-dose,48
969,CDISCPILOT01,PC,01-703-1279,15,XAN,XANOMELINE,25.6124286496302,ug/ml,25.6124286496302,25.612428649630154,ug/ml,Imaginary Labs,URINE,0.01,BASELINE,3,1,2013-05-13T06:00:00,1,0-6h Post-dose,3
970,CDISCPILOT01,PC,01-703-1279,16,XAN,XANOMELINE,21.2839085051545,ug/ml,21.2839085051545,21.28390850515453,ug/ml,Imaginary Labs,URINE,0.01,BASELINE,3,1,2013-05-13T12:00:00,1,6-12h Post-dose,9
971,CDISCPILOT01,PC,01-703-1279,17,XAN,XANOMELINE,12.6268682162033,ug/ml,12.6268682162033,12.626868216203281,ug/ml,Imaginary Labs,URINE,0.01,BASELINE,3,1,2013-05-14T00:00:00,2,12-24h Post-dose,18
972,CDISCPILOT01,PC,01-703-1279,18,XAN,XANOMELINE,<BLQ,ug/ml,<BLQ,,ug/ml,Imaginary Labs,URINE,0.01,BASELINE,3,1,2013-05-15T00:00:00,3,24-48h Post-dose,37
973,CDISCPILOT01,PC,01-703-1295,1,XAN,XANOMELINE,<BLQ,ug/ml,<BLQ,0,ug/ml,Imaginary Labs,PLASMA,0.01,BASELINE,3,1,2013-11-20T23:30:00,-1,Pre-dose,-0.5
974,CDISCPILOT01,PC,01-703-1295,2,XAN,XANOMELINE,0.101975267458167,ug/ml,0.101975267458167,0.10197526745816672,ug/ml,Imaginary Labs,PLASMA,0.01,BASELINE,3,1,2013-11-21T00:05:00,1,5 Min Post-dose,0.08
975,CDISCPILOT01,PC,01-703-1295,3,XAN,XANOMELINE,0.549563911283024,ug/ml,0.549563911283024,0.5495639112830243,ug/ml,Imaginary Labs,PLASMA,0.01,BASELINE,3,1,2013-11-21T00:30:00,1,30 Min Post-dose,0.5
976,CDISCPILOT01,PC,01-703-1295,4,XAN,XANOMELINE,0.930786551960674,ug/ml,0.930786551960674,0.9307865519606738,ug/ml,Imaginary Labs,PLASMA,0.01,BASELINE,3,1,2013-11-21T01:00:00,1,1h Post-dose,1
977,CDISCPILOT01,PC,01-703-1295,5,XAN,XANOMELINE,1.19523386879039,ug/ml,1.19523386879039,1.1952338687903905,ug/ml,Imaginary Labs,PLASMA,0.01,BASELINE,3,1,2013-11-21T01:30:00,1,1.5h Post-dose,1.5
978,CDISCPILOT01,PC,01-703-1295,6,XAN,XANOMELINE,1.37867623531439,ug/ml,1.37867623531439,1.3786762353143909,ug/ml,Imaginary Labs,PLASMA,0.01,BASELINE,3,1,2013-11-21T02:00:00,1,2h Post-dose,2
979,CDISCPILOT01,PC,01-703-1295,7,XAN,XANOMELINE,1.69790661010662,ug/ml,1.69790661010662,1.6979066101066185,ug/ml,Imaginary Labs,PLASMA,0.01,BASELINE,3,1,2013-11-21T04:00:00,1,4h Post-dose,4
980,CDISCPILOT01,PC,01-703-1295,8,XAN,XANOMELINE,1.77182391540256,ug/ml,1.77182391540256,1.771823915402555,ug/ml,Imaginary Labs,PLASMA,0.01,BASELINE,3,1,2013-11-21T06:00:00,1,6h Post-dose,6
981,CDISCPILOT01,PC,01-703-1295,9,XAN,XANOMELINE,1.78893935445114,ug/ml,1.78893935445114,1.7889393544511378,ug/ml,Imaginary Labs,PLASMA,0.01,BASELINE,3,1,2013-11-21T08:00:00,1,8h Post-dose,8
982,CDISCPILOT01,PC,01-703-1295,10,XAN,XANOMELINE,0.503593616587247,ug/ml,0.503593616587247,0.5035936165872471,ug/ml,Imaginary Labs,PLASMA,0.01,BASELINE,3,1,2013-11-21T12:00:00,1,12h Post-dose,12
983,CDISCPILOT01,PC,01-703-1295,11,XAN,XANOMELINE,0.141356122033351,ug/ml,0.141356122033351,0.14135612203335074,ug/ml,Imaginary Labs,PLASMA,0.01,BASELINE,3,1,2013-11-21T16:00:00,1,16h Post-dose,16
984,CDISCPILOT01,PC,01-703-1295,12,XAN,XANOMELINE,0.0111373901541653,ug/ml,0.0111373901541653,0.011137390154165316,ug/ml,Imaginary Labs,PLASMA,0.01,BASELINE,3,1,2013-11-22T00:00:00,2,24h Post-dose,24
985,CDISCPILOT01,PC,01-703-1295,13,XAN,XANOMELINE,<BLQ,ug/ml,<BLQ,,ug/ml,Imaginary Labs,PLASMA,0.01,BASELINE,3,1,2013-11-22T12:00:00,2,36h Post-dose,36
986,CDISCPILOT01,PC,01-703-1295,14,XAN,XANOMELINE,<BLQ,ug/ml,<BLQ,,ug/ml,Imaginary Labs,PLASMA,0.01,BASELINE,3,1,2013-11-23T00:00:00,3,48h Post-dose,48
987,CDISCPILOT01,PC,01-703-1295,15,XAN,XANOMELINE,25.1401535142604,ug/ml,25.1401535142604,25.140153514260383,ug/ml,Imaginary Labs,URINE,0.01,BASELINE,3,1,2013-11-21T06:00:00,1,0-6h Post-dose,3
988,CDISCPILOT01,PC,01-703-1295,16,XAN,XANOMELINE,20.7512553707622,ug/ml,20.7512553707622,20.75125537076216,ug/ml,Imaginary Labs,URINE,0.01,BASELINE,3,1,2013-11-21T12:00:00,1,6-12h Post-dose,9
989,CDISCPILOT01,PC,01-703-1295,17,XAN,XANOMELINE,11.9734590837657,ug/ml,11.9734590837657,11.973459083765704,ug/ml,Imaginary Labs,URINE,0.01,BASELINE,3,1,2013-11-22T00:00:00,2,12-24h Post-dose,18
990,CDISCPILOT01,PC,01-703-1295,18,XAN,XANOMELINE,<BLQ,ug/ml,<BLQ,,ug/ml,Imaginary Labs,URINE,0.01,BASELINE,3,1,2013-11-23T00:00:00,3,24-48h Post-dose,37
991,CDISCPILOT01,PC,01-703-1299,1,XAN,XANOMELINE,<BLQ,ug/ml,<BLQ,0,ug/ml,Imaginary Labs,PLASMA,0.01,BASELINE,3,1,2012-09-11T23:30:00,-1,Pre-dose,-0.5
992,CDISCPILOT01,PC,01-703-1299,2,XAN,XANOMELINE,<BLQ,ug/ml,<BLQ,,ug/ml,Imaginary Labs,PLASMA,0.01,BASELINE,3,1,2012-09-12T00:05:00,1,5 Min Post-dose,0.08
993,CDISCPILOT01,PC,01-703-1299,3,XAN,XANOMELINE,<BLQ,ug/ml,<BLQ,,ug/ml,Imaginary Labs,PLASMA,0.01,BASELINE,3,1,2012-09-12T00:30:00,1,30 Min Post-dose,0.5
994,CDISCPILOT01,PC,01-703-1299,4,XAN,XANOMELINE,<BLQ,ug/ml,<BLQ,,ug/ml,Imaginary Labs,PLASMA,0.01,BASELINE,3,1,2012-09-12T01:00:00,1,1h Post-dose,1
995,CDISCPILOT01,PC,01-703-1299,5,XAN,XANOMELINE,<BLQ,ug/ml,<BLQ,,ug/ml,Imaginary Labs,PLASMA,0.01,BASELINE,3,1,2012-09-12T01:30:00,1,1.5h Post-dose,1.5
996,CDISCPILOT01,PC,01-703-1299,6,XAN,XANOMELINE,<BLQ,ug/ml,<BLQ,,ug/ml,Imaginary Labs,PLASMA,0.01,BASELINE,3,1,2012-09-12T02:00:00,1,2h Post-dose,2
997,CDISCPILOT01,PC,01-703-1299,7,XAN,XANOMELINE,<BLQ,ug/ml,<BLQ,,ug/ml,Imaginary Labs,PLASMA,0.01,BASELINE,3,1,2012-09-12T04:00:00,1,4h Post-dose,4
998,CDISCPILOT01,PC,01-703-1299,8,XAN,XANOMELINE,<BLQ,ug/ml,<BLQ,,ug/ml,Imaginary Labs,PLASMA,0.01,BASELINE,3,1,2012-09-12T06:00:00,1,6h Post-dose,6
999,CDISCPILOT01,PC,01-703-1299,9,XAN,XANOMELINE,<BLQ,ug/ml,<BLQ,,ug/ml,Imaginary Labs,PLASMA,0.01,BASELINE,3,1,2012-09-12T08:00:00,1,8h Post-dose,8
1000,CDISCPILOT01,PC,01-703-1299,10,XAN,XANOMELINE,<BLQ,ug/ml,<BLQ,,ug/ml,Imaginary Labs,PLASMA,0.01,BASELINE,3,1,2012-09-12T12:00:00,1,12h Post-dose,12
1001,CDISCPILOT01,PC,01-703-1299,11,XAN,XANOMELINE,<BLQ,ug/ml,<BLQ,,ug/ml,Imaginary Labs,PLASMA,0.01,BASELINE,3,1,2012-09-12T16:00:00,1,16h Post-dose,16
1002,CDISCPILOT01,PC,01-703-1299,12,XAN,XANOMELINE,<BLQ,ug/ml,<BLQ,,ug/ml,Imaginary Labs,PLASMA,0.01,BASELINE,3,1,2012-09-13T00:00:00,2,24h Post-dose,24
1003,CDISCPILOT01,PC,01-703-1299,13,XAN,XANOMELINE,<BLQ,ug/ml,<BLQ,,ug/ml,Imaginary Labs,PLASMA,0.01,BASELINE,3,1,2012-09-13T12:00:00,2,36h Post-dose,36
1004,CDISCPILOT01,PC,01-703-1299,14,XAN,XANOMELINE,<BLQ,ug/ml,<BLQ,,ug/ml,Imaginary Labs,PLASMA,0.01,BASELINE,3,1,2012-09-14T00:00:00,3,48h Post-dose,48
1005,CDISCPILOT01,PC,01-703-1299,15,XAN,XANOMELINE,<BLQ,ug/ml,<BLQ,,ug/ml,Imaginary Labs,URINE,0.01,BASELINE,3,1,2012-09-12T06:00:00,1,0-6h Post-dose,3
1006,CDISCPILOT01,PC,01-703-1299,16,XAN,XANOMELINE,<BLQ,ug/ml,<BLQ,,ug/ml,Imaginary Labs,URINE,0.01,BASELINE,3,1,2012-09-12T12:00:00,1,6-12h Post-dose,9
1007,CDISCPILOT01,PC,01-703-1299,17,XAN,XANOMELINE,<BLQ,ug/ml,<BLQ,,ug/ml,Imaginary Labs,URINE,0.01,BASELINE,3,1,2012-09-13T00:00:00,2,12-24h Post-dose,18
1008,CDISCPILOT01,PC,01-703-1299,18,XAN,XANOMELINE,<BLQ,ug/ml,<BLQ,,ug/ml,Imaginary Labs,URINE,0.01,BASELINE,3,1,2012-09-14T00:00:00,3,24-48h Post-dose,37
1009,CDISCPILOT01,PC,01-703-1335,1,XAN,XANOMELINE,<BLQ,ug/ml,<BLQ,0,ug/ml,Imaginary Labs,PLASMA,0.01,BASELINE,3,1,2014-03-16T23:30:00,-1,Pre-dose,-0.5
1010,CDISCPILOT01,PC,01-703-1335,2,XAN,XANOMELINE,0.0958949201687893,ug/ml,0.0958949201687893,0.0958949201687893,ug/ml,Imaginary Labs,PLASMA,0.01,BASELINE,3,1,2014-03-17T00:05:00,1,5 Min Post-dose,0.08
1011,CDISCPILOT01,PC,01-703-1335,3,XAN,XANOMELINE,0.520383376410898,ug/ml,0.520383376410898,0.5203833764108979,ug/ml,Imaginary Labs,PLASMA,0.01,BASELINE,3,1,2014-03-17T00:30:00,1,30 Min Post-dose,0.5
1012,CDISCPILOT01,PC,01-703-1335,4,XAN,XANOMELINE,0.887806348338434,ug/ml,0.887806348338434,0.887806348338434,ug/ml,Imaginary Labs,PLASMA,0.01,BASELINE,3,1,2014-03-17T01:00:00,1,1h Post-dose,1
1013,CDISCPILOT01,PC,01-703-1335,5,XAN,XANOMELINE,1.14722977810124,ug/ml,1.14722977810124,1.147229778101237,ug/ml,Imaginary Labs,PLASMA,0.01,BASELINE,3,1,2014-03-17T01:30:00,1,1.5h Post-dose,1.5
1014,CDISCPILOT01,PC,01-703-1335,6,XAN,XANOMELINE,1.33039882590691,ug/ml,1.33039882590691,1.3303988259069068,ug/ml,Imaginary Labs,PLASMA,0.01,BASELINE,3,1,2014-03-17T02:00:00,1,2h Post-dose,2
1015,CDISCPILOT01,PC,01-703-1335,7,XAN,XANOMELINE,1.66103732218293,ug/ml,1.66103732218293,1.6610373221829315,ug/ml,Imaginary Labs,PLASMA,0.01,BASELINE,3,1,2014-03-17T04:00:00,1,4h Post-dose,4
1016,CDISCPILOT01,PC,01-703-1335,8,XAN,XANOMELINE,1.74320953482386,ug/ml,1.74320953482386,1.7432095348238648,ug/ml,Imaginary Labs,PLASMA,0.01,BASELINE,3,1,2014-03-17T06:00:00,1,6h Post-dose,6
1017,CDISCPILOT01,PC,01-703-1335,9,XAN,XANOMELINE,1.76363145364565,ug/ml,1.76363145364565,1.7636314536456523,ug/ml,Imaginary Labs,PLASMA,0.01,BASELINE,3,1,2014-03-17T08:00:00,1,8h Post-dose,8
1018,CDISCPILOT01,PC,01-703-1335,10,XAN,XANOMELINE,0.528431665596352,ug/ml,0.528431665596352,0.5284316655963525,ug/ml,Imaginary Labs,PLASMA,0.01,BASELINE,3,1,2014-03-17T12:00:00,1,12h Post-dose,12
1019,CDISCPILOT01,PC,01-703-1335,11,XAN,XANOMELINE,0.157728387219168,ug/ml,0.157728387219168,0.15772838721916807,ug/ml,Imaginary Labs,PLASMA,0.01,BASELINE,3,1,2014-03-17T16:00:00,1,16h Post-dose,16
1020,CDISCPILOT01,PC,01-703-1335,12,XAN,XANOMELINE,0.0140524458173235,ug/ml,0.0140524458173235,0.014052445817323471,ug/ml,Imaginary Labs,PLASMA,0.01,BASELINE,3,1,2014-03-18T00:00:00,2,24h Post-dose,24
1021,CDISCPILOT01,PC,01-703-1335,13,XAN,XANOMELINE,<BLQ,ug/ml,<BLQ,,ug/ml,Imaginary Labs,PLASMA,0.01,BASELINE,3,1,2014-03-18T12:00:00,2,36h Post-dose,36
1022,CDISCPILOT01,PC,01-703-1335,14,XAN,XANOMELINE,<BLQ,ug/ml,<BLQ,,ug/ml,Imaginary Labs,PLASMA,0.01,BASELINE,3,1,2014-03-19T00:00:00,3,48h Post-dose,48
1023,CDISCPILOT01,PC,01-703-1335,15,XAN,XANOMELINE,26.8532114156809,ug/ml,26.8532114156809,26.853211415680914,ug/ml,Imaginary Labs,URINE,0.01,BASELINE,3,1,2014-03-17T06:00:00,1,0-6h Post-dose,3
1024,CDISCPILOT01,PC,01-703-1335,16,XAN,XANOMELINE,22.676586146402,ug/ml,22.676586146402,22.67658614640203,ug/ml,Imaginary Labs,URINE,0.01,BASELINE,3,1,2014-03-17T12:00:00,1,6-12h Post-dose,9
1025,CDISCPILOT01,PC,01-703-1335,17,XAN,XANOMELINE,14.3233356078443,ug/ml,14.3233356078443,14.323335607844264,ug/ml,Imaginary Labs,URINE,0.01,BASELINE,3,1,2014-03-18T00:00:00,2,12-24h Post-dose,18
1026,CDISCPILOT01,PC,01-703-1335,18,XAN,XANOMELINE,<BLQ,ug/ml,<BLQ,,ug/ml,Imaginary Labs,URINE,0.01,BASELINE,3,1,2014-03-19T00:00:00,3,24-48h Post-dose,37
1027,CDISCPILOT01,PC,01-703-1379,1,XAN,XANOMELINE,<BLQ,ug/ml,<BLQ,0,ug/ml,Imaginary Labs,PLASMA,0.01,BASELINE,3,1,2013-09-21T23:30:00,-1,Pre-dose,-0.5
1028,CDISCPILOT01,PC,01-703-1379,2,XAN,XANOMELINE,0.0965822971792243,ug/ml,0.0965822971792243,0.09658229717922427,ug/ml,Imaginary Labs,PLASMA,0.01,BASELINE,3,1,2013-09-22T00:05:00,1,5 Min Post-dose,0.08
1029,CDISCPILOT01,PC,01-703-1379,3,XAN,XANOMELINE,0.528631600820285,ug/ml,0.528631600820285,0.528631600820285,ug/ml,Imaginary Labs,PLASMA,0.01,BASELINE,3,1,2013-09-22T00:30:00,1,30 Min Post-dose,0.5
1030,CDISCPILOT01,PC,01-703-1379,4,XAN,XANOMELINE,0.910126918396144,ug/ml,0.910126918396144,0.9101269183961437,ug/ml,Imaginary Labs,PLASMA,0.01,BASELINE,3,1,2013-09-22T01:00:00,1,1h Post-dose,1
1031,CDISCPILOT01,PC,01-703-1379,5,XAN,XANOMELINE,1.1854390206361,ug/ml,1.1854390206361,1.1854390206360985,ug/ml,Imaginary Labs,PLASMA,0.01,BASELINE,3,1,2013-09-22T01:30:00,1,1.5h Post-dose,1.5
1032,CDISCPILOT01,PC,01-703-1379,6,XAN,XANOMELINE,1.3841223337667,ug/ml,1.3841223337667,1.3841223337667017,ug/ml,Imaginary Labs,PLASMA,0.01,BASELINE,3,1,2013-09-22T02:00:00,1,2h Post-dose,2
1033,CDISCPILOT01,PC,01-703-1379,7,XAN,XANOMELINE,1.75954357349945,ug/ml,1.75954357349945,1.7595435734994456,ug/ml,Imaginary Labs,PLASMA,0.01,BASELINE,3,1,2013-09-22T04:00:00,1,4h Post-dose,4
1034,CDISCPILOT01,PC,01-703-1379,8,XAN,XANOMELINE,1.86137063300431,ug/ml,1.86137063300431,1.8613706330043076,ug/ml,Imaginary Labs,PLASMA,0.01,BASELINE,3,1,2013-09-22T06:00:00,1,6h Post-dose,6
1035,CDISCPILOT01,PC,01-703-1379,9,XAN,XANOMELINE,1.88898960857103,ug/ml,1.88898960857103,1.8889896085710287,ug/ml,Imaginary Labs,PLASMA,0.01,BASELINE,3,1,2013-09-22T08:00:00,1,8h Post-dose,8
1036,CDISCPILOT01,PC,01-703-1379,10,XAN,XANOMELINE,0.611623693657589,ug/ml,0.611623693657589,0.611623693657589,ug/ml,Imaginary Labs,PLASMA,0.01,BASELINE,3,1,2013-09-22T12:00:00,1,12h Post-dose,12
1037,CDISCPILOT01,PC,01-703-1379,11,XAN,XANOMELINE,0.196961862124424,ug/ml,0.196961862124424,0.19696186212442376,ug/ml,Imaginary Labs,PLASMA,0.01,BASELINE,3,1,2013-09-22T16:00:00,1,16h Post-dose,16
1038,CDISCPILOT01,PC,01-703-1379,12,XAN,XANOMELINE,0.0204257410714207,ug/ml,0.0204257410714207,0.02042574107142068,ug/ml,Imaginary Labs,PLASMA,0.01,BASELINE,3,1,2013-09-23T00:00:00,2,24h Post-dose,24
1039,CDISCPILOT01,PC,01-703-1379,13,XAN,XANOMELINE,<BLQ,ug/ml,<BLQ,,ug/ml,Imaginary Labs,PLASMA,0.01,BASELINE,3,1,2013-09-23T12:00:00,2,36h Post-dose,36
1040,CDISCPILOT01,PC,01-703-1379,14,XAN,XANOMELINE,<BLQ,ug/ml,<BLQ,,ug/ml,Imaginary Labs,PLASMA,0.01,BASELINE,3,1,2013-09-24T00:00:00,3,48h Post-dose,48
1041,CDISCPILOT01,PC,01-703-1379,15,XAN,XANOMELINE,29.1948935462169,ug/ml,29.1948935462169,29.19489354621694,ug/ml,Imaginary Labs,URINE,0.01,BASELINE,3,1,2013-09-22T06:00:00,1,0-6h Post-dose,3
1042,CDISCPILOT01,PC,01-703-1379,16,XAN,XANOMELINE,25.2805750795182,ug/ml,25.2805750795182,25.28057507951819,ug/ml,Imaginary Labs,URINE,0.01,BASELINE,3,1,2013-09-22T12:00:00,1,6-12h Post-dose,9
1043,CDISCPILOT01,PC,01-703-1379,17,XAN,XANOMELINE,17.4519381461207,ug/ml,17.4519381461207,17.45193814612069,ug/ml,Imaginary Labs,URINE,0.01,BASELINE,3,1,2013-09-23T00:00:00,2,12-24h Post-dose,18
1044,CDISCPILOT01,PC,01-703-1379,18,XAN,XANOMELINE,1.79466427932569,ug/ml,1.79466427932569,1.794664279325687,ug/ml,Imaginary Labs,URINE,0.01,BASELINE,3,1,2013-09-24T00:00:00,3,24-48h Post-dose,37
1045,CDISCPILOT01,PC,01-703-1403,1,XAN,XANOMELINE,<BLQ,ug/ml,<BLQ,0,ug/ml,Imaginary Labs,PLASMA,0.01,BASELINE,3,1,2012-12-11T23:30:00,-1,Pre-dose,-0.5
1046,CDISCPILOT01,PC,01-703-1403,2,XAN,XANOMELINE,0.0994120834203583,ug/ml,0.0994120834203583,0.09941208342035826,ug/ml,Imaginary Labs,PLASMA,0.01,BASELINE,3,1,2012-12-12T00:05:00,1,5 Min Post-dose,0.08
1047,CDISCPILOT01,PC,01-703-1403,3,XAN,XANOMELINE,0.539765320861532,ug/ml,0.539765320861532,0.5397653208615322,ug/ml,Imaginary Labs,PLASMA,0.01,BASELINE,3,1,2012-12-12T00:30:00,1,30 Min Post-dose,0.5
1048,CDISCPILOT01,PC,01-703-1403,4,XAN,XANOMELINE,0.921406487457693,ug/ml,0.921406487457693,0.9214064874576932,ug/ml,Imaginary Labs,PLASMA,0.01,BASELINE,3,1,2012-12-12T01:00:00,1,1h Post-dose,1
1049,CDISCPILOT01,PC,01-703-1403,5,XAN,XANOMELINE,1.19124594251643,ug/ml,1.19124594251643,1.191245942516427,ug/ml,Imaginary Labs,PLASMA,0.01,BASELINE,3,1,2012-12-12T01:30:00,1,1.5h Post-dose,1.5
1050,CDISCPILOT01,PC,01-703-1403,6,XAN,XANOMELINE,1.38203597744849,ug/ml,1.38203597744849,1.3820359774484894,ug/ml,Imaginary Labs,PLASMA,0.01,BASELINE,3,1,2012-12-12T02:00:00,1,2h Post-dose,2
1051,CDISCPILOT01,PC,01-703-1403,7,XAN,XANOMELINE,1.72743435596206,ug/ml,1.72743435596206,1.7274343559620602,ug/ml,Imaginary Labs,PLASMA,0.01,BASELINE,3,1,2012-12-12T04:00:00,1,4h Post-dose,4
1052,CDISCPILOT01,PC,01-703-1403,8,XAN,XANOMELINE,1.81375630548182,ug/ml,1.81375630548182,1.8137563054818224,ug/ml,Imaginary Labs,PLASMA,0.01,BASELINE,3,1,2012-12-12T06:00:00,1,6h Post-dose,6
1053,CDISCPILOT01,PC,01-703-1403,9,XAN,XANOMELINE,1.83532988379727,ug/ml,1.83532988379727,1.8353298837972736,ug/ml,Imaginary Labs,PLASMA,0.01,BASELINE,3,1,2012-12-12T08:00:00,1,8h Post-dose,8
1054,CDISCPILOT01,PC,01-703-1403,10,XAN,XANOMELINE,0.552640263648971,ug/ml,0.552640263648971,0.5526402636489715,ug/ml,Imaginary Labs,PLASMA,0.01,BASELINE,3,1,2012-12-12T12:00:00,1,12h Post-dose,12
1055,CDISCPILOT01,PC,01-703-1403,11,XAN,XANOMELINE,0.165757544737763,ug/ml,0.165757544737763,0.16575754473776316,ug/ml,Imaginary Labs,PLASMA,0.01,BASELINE,3,1,2012-12-12T16:00:00,1,16h Post-dose,16
1056,CDISCPILOT01,PC,01-703-1403,12,XAN,XANOMELINE,0.014911964784256,ug/ml,0.014911964784256,0.01491196478425602,ug/ml,Imaginary Labs,PLASMA,0.01,BASELINE,3,1,2012-12-13T00:00:00,2,24h Post-dose,24
1057,CDISCPILOT01,PC,01-703-1403,13,XAN,XANOMELINE,<BLQ,ug/ml,<BLQ,,ug/ml,Imaginary Labs,PLASMA,0.01,BASELINE,3,1,2012-12-13T12:00:00,2,36h Post-dose,36
1058,CDISCPILOT01,PC,01-703-1403,14,XAN,XANOMELINE,<BLQ,ug/ml,<BLQ,,ug/ml,Imaginary Labs,PLASMA,0.01,BASELINE,3,1,2012-12-14T00:00:00,3,48h Post-dose,48
1059,CDISCPILOT01,PC,01-703-1403,15,XAN,XANOMELINE,26.9951730385781,ug/ml,26.9951730385781,26.995173038578134,ug/ml,Imaginary Labs,URINE,0.01,BASELINE,3,1,2012-12-12T06:00:00,1,0-6h Post-dose,3
1060,CDISCPILOT01,PC,01-703-1403,16,XAN,XANOMELINE,22.8353293415052,ug/ml,22.8353293415052,22.835329341505194,ug/ml,Imaginary Labs,URINE,0.01,BASELINE,3,1,2012-12-12T12:00:00,1,6-12h Post-dose,9
1061,CDISCPILOT01,PC,01-703-1403,17,XAN,XANOMELINE,14.5156419473593,ug/ml,14.5156419473593,14.51564194735932,ug/ml,Imaginary Labs,URINE,0.01,BASELINE,3,1,2012-12-13T00:00:00,2,12-24h Post-dose,18
1062,CDISCPILOT01,PC,01-703-1403,18,XAN,XANOMELINE,<BLQ,ug/ml,<BLQ,,ug/ml,Imaginary Labs,URINE,0.01,BASELINE,3,1,2012-12-14T00:00:00,3,24-48h Post-dose,37
1063,CDISCPILOT01,PC,01-703-1439,1,XAN,XANOMELINE,<BLQ,ug/ml,<BLQ,0,ug/ml,Imaginary Labs,PLASMA,0.01,BASELINE,3,1,2014-03-11T23:30:00,-1,Pre-dose,-0.5
1064,CDISCPILOT01,PC,01-703-1439,2,XAN,XANOMELINE,0.098792796688967,ug/ml,0.098792796688967,0.098792796688967,ug/ml,Imaginary Labs,PLASMA,0.01,BASELINE,3,1,2014-03-12T00:05:00,1,5 Min Post-dose,0.08
1065,CDISCPILOT01,PC,01-703-1439,3,XAN,XANOMELINE,0.539650595091111,ug/ml,0.539650595091111,0.5396505950911111,ug/ml,Imaginary Labs,PLASMA,0.01,BASELINE,3,1,2014-03-12T00:30:00,1,30 Min Post-dose,0.5
1066,CDISCPILOT01,PC,01-703-1439,4,XAN,XANOMELINE,0.927123701702493,ug/ml,0.927123701702493,0.9271237017024935,ug/ml,Imaginary Labs,PLASMA,0.01,BASELINE,3,1,2014-03-12T01:00:00,1,1h Post-dose,1
1067,CDISCPILOT01,PC,01-703-1439,5,XAN,XANOMELINE,1.20533224944203,ug/ml,1.20533224944203,1.2053322494420313,ug/ml,Imaginary Labs,PLASMA,0.01,BASELINE,3,1,2014-03-12T01:30:00,1,1.5h Post-dose,1.5
1068,CDISCPILOT01,PC,01-703-1439,6,XAN,XANOMELINE,1.40508803820435,ug/ml,1.40508803820435,1.4050880382043502,ug/ml,Imaginary Labs,PLASMA,0.01,BASELINE,3,1,2014-03-12T02:00:00,1,2h Post-dose,2
1069,CDISCPILOT01,PC,01-703-1439,7,XAN,XANOMELINE,1.77852659362656,ug/ml,1.77852659362656,1.7785265936265635,ug/ml,Imaginary Labs,PLASMA,0.01,BASELINE,3,1,2014-03-12T04:00:00,1,4h Post-dose,4
1070,CDISCPILOT01,PC,01-703-1439,8,XAN,XANOMELINE,1.87777756643682,ug/ml,1.87777756643682,1.8777775664368153,ug/ml,Imaginary Labs,PLASMA,0.01,BASELINE,3,1,2014-03-12T06:00:00,1,6h Post-dose,6
1071,CDISCPILOT01,PC,01-703-1439,9,XAN,XANOMELINE,1.90415608429672,ug/ml,1.90415608429672,1.9041560842967182,ug/ml,Imaginary Labs,PLASMA,0.01,BASELINE,3,1,2014-03-12T08:00:00,1,8h Post-dose,8
1072,CDISCPILOT01,PC,01-703-1439,10,XAN,XANOMELINE,0.6054880544867,ug/ml,0.6054880544867,0.6054880544867003,ug/ml,Imaginary Labs,PLASMA,0.01,BASELINE,3,1,2014-03-12T12:00:00,1,12h Post-dose,12
1073,CDISCPILOT01,PC,01-703-1439,11,XAN,XANOMELINE,0.19157386033012,ug/ml,0.19157386033012,0.19157386033012028,ug/ml,Imaginary Labs,PLASMA,0.01,BASELINE,3,1,2014-03-12T16:00:00,1,16h Post-dose,16
1074,CDISCPILOT01,PC,01-703-1439,12,XAN,XANOMELINE,0.0191777473513149,ug/ml,0.0191777473513149,0.019177747351314854,ug/ml,Imaginary Labs,PLASMA,0.01,BASELINE,3,1,2014-03-13T00:00:00,2,24h Post-dose,24
1075,CDISCPILOT01,PC,01-703-1439,13,XAN,XANOMELINE,<BLQ,ug/ml,<BLQ,,ug/ml,Imaginary Labs,PLASMA,0.01,BASELINE,3,1,2014-03-13T12:00:00,2,36h Post-dose,36
1076,CDISCPILOT01,PC,01-703-1439,14,XAN,XANOMELINE,<BLQ,ug/ml,<BLQ,,ug/ml,Imaginary Labs,PLASMA,0.01,BASELINE,3,1,2014-03-14T00:00:00,3,48h Post-dose,48
1077,CDISCPILOT01,PC,01-703-1439,15,XAN,XANOMELINE,28.625964536845,ug/ml,28.625964536845,28.62596453684495,ug/ml,Imaginary Labs,URINE,0.01,BASELINE,3,1,2014-03-12T06:00:00,1,0-6h Post-dose,3
1078,CDISCPILOT01,PC,01-703-1439,16,XAN,XANOMELINE,24.6506592578732,ug/ml,24.6506592578732,24.65065925787316,ug/ml,Imaginary Labs,URINE,0.01,BASELINE,3,1,2014-03-12T12:00:00,1,6-12h Post-dose,9
1079,CDISCPILOT01,PC,01-703-1439,17,XAN,XANOMELINE,16.7000486999296,ug/ml,16.7000486999296,16.700048699929578,ug/ml,Imaginary Labs,URINE,0.01,BASELINE,3,1,2014-03-13T00:00:00,2,12-24h Post-dose,18
1080,CDISCPILOT01,PC,01-703-1439,18,XAN,XANOMELINE,0.798827584042414,ug/ml,0.798827584042414,0.7988275840424137,ug/ml,Imaginary Labs,URINE,0.01,BASELINE,3,1,2014-03-14T00:00:00,3,24-48h Post-dose,37
1081,CDISCPILOT01,PC,01-704-1008,1,XAN,XANOMELINE,<BLQ,ug/ml,<BLQ,0,ug/ml,Imaginary Labs,PLASMA,0.01,BASELINE,3,1,2013-01-12T23:30:00,-1,Pre-dose,-0.5
1082,CDISCPILOT01,PC,01-704-1008,2,XAN,XANOMELINE,0.112126219495447,ug/ml,0.112126219495447,0.11212621949544703,ug/ml,Imaginary Labs,PLASMA,0.01,BASELINE,3,1,2013-01-13T00:05:00,1,5 Min Post-dose,0.08
1083,CDISCPILOT01,PC,01-704-1008,3,XAN,XANOMELINE,0.602906697625771,ug/ml,0.602906697625771,0.6029066976257713,ug/ml,Imaginary Labs,PLASMA,0.01,BASELINE,3,1,2013-01-13T00:30:00,1,30 Min Post-dose,0.5
1084,CDISCPILOT01,PC,01-704-1008,4,XAN,XANOMELINE,1.01871921429109,ug/ml,1.01871921429109,1.018719214291086,ug/ml,Imaginary Labs,PLASMA,0.01,BASELINE,3,1,2013-01-13T01:00:00,1,1h Post-dose,1
1085,CDISCPILOT01,PC,01-704-1008,5,XAN,XANOMELINE,1.305496670399,ug/ml,1.305496670399,1.305496670399001,ug/ml,Imaginary Labs,PLASMA,0.01,BASELINE,3,1,2013-01-13T01:30:00,1,1.5h Post-dose,1.5
1086,CDISCPILOT01,PC,01-704-1008,6,XAN,XANOMELINE,1.50328126329985,ug/ml,1.50328126329985,1.5032812632998507,ug/ml,Imaginary Labs,PLASMA,0.01,BASELINE,3,1,2013-01-13T02:00:00,1,2h Post-dose,2
1087,CDISCPILOT01,PC,01-704-1008,7,XAN,XANOMELINE,1.84339959768546,ug/ml,1.84339959768546,1.8433995976854631,ug/ml,Imaginary Labs,PLASMA,0.01,BASELINE,3,1,2013-01-13T04:00:00,1,4h Post-dose,4
1088,CDISCPILOT01,PC,01-704-1008,8,XAN,XANOMELINE,1.92035158545342,ug/ml,1.92035158545342,1.920351585453416,ug/ml,Imaginary Labs,PLASMA,0.01,BASELINE,3,1,2013-01-13T06:00:00,1,6h Post-dose,6
1089,CDISCPILOT01,PC,01-704-1008,9,XAN,XANOMELINE,1.93776202124229,ug/ml,1.93776202124229,1.9377620212422895,ug/ml,Imaginary Labs,PLASMA,0.01,BASELINE,3,1,2013-01-13T08:00:00,1,8h Post-dose,8
1090,CDISCPILOT01,PC,01-704-1008,10,XAN,XANOMELINE,0.534496364572232,ug/ml,0.534496364572232,0.5344963645722324,ug/ml,Imaginary Labs,PLASMA,0.01,BASELINE,3,1,2013-01-13T12:00:00,1,12h Post-dose,12
1091,CDISCPILOT01,PC,01-704-1008,11,XAN,XANOMELINE,0.147044767386013,ug/ml,0.147044767386013,0.1470447673860129,ug/ml,Imaginary Labs,PLASMA,0.01,BASELINE,3,1,2013-01-13T16:00:00,1,16h Post-dose,16
1092,CDISCPILOT01,PC,01-704-1008,12,XAN,XANOMELINE,0.0111290786777712,ug/ml,0.0111290786777712,0.011129078677771156,ug/ml,Imaginary Labs,PLASMA,0.01,BASELINE,3,1,2013-01-14T00:00:00,2,24h Post-dose,24
1093,CDISCPILOT01,PC,01-704-1008,13,XAN,XANOMELINE,<BLQ,ug/ml,<BLQ,,ug/ml,Imaginary Labs,PLASMA,0.01,BASELINE,3,1,2013-01-14T12:00:00,2,36h Post-dose,36
1094,CDISCPILOT01,PC,01-704-1008,14,XAN,XANOMELINE,<BLQ,ug/ml,<BLQ,,ug/ml,Imaginary Labs,PLASMA,0.01,BASELINE,3,1,2013-01-15T00:00:00,3,48h Post-dose,48
1095,CDISCPILOT01,PC,01-704-1008,15,XAN,XANOMELINE,24.6108075787748,ug/ml,24.6108075787748,24.610807578774814,ug/ml,Imaginary Labs,URINE,0.01,BASELINE,3,1,2013-01-13T06:00:00,1,0-6h Post-dose,3
1096,CDISCPILOT01,PC,01-704-1008,16,XAN,XANOMELINE,20.1524718563507,ug/ml,20.1524718563507,20.152471856350722,ug/ml,Imaginary Labs,URINE,0.01,BASELINE,3,1,2013-01-13T12:00:00,1,6-12h Post-dose,9
1097,CDISCPILOT01,PC,01-704-1008,17,XAN,XANOMELINE,11.2358004115025,ug/ml,11.2358004115025,11.235800411502545,ug/ml,Imaginary Labs,URINE,0.01,BASELINE,3,1,2013-01-14T00:00:00,2,12-24h Post-dose,18
1098,CDISCPILOT01,PC,01-704-1008,18,XAN,XANOMELINE,<BLQ,ug/ml,<BLQ,,ug/ml,Imaginary Labs,URINE,0.01,BASELINE,3,1,2013-01-15T00:00:00,3,24-48h Post-dose,37
1099,CDISCPILOT01,PC,01-704-1009,1,XAN,XANOMELINE,<BLQ,ug/ml,<BLQ,0,ug/ml,Imaginary Labs,PLASMA,0.01,BASELINE,3,1,2013-08-26T23:30:00,-1,Pre-dose,-0.5
1100,CDISCPILOT01,PC,01-704-1009,2,XAN,XANOMELINE,0.108912724791648,ug/ml,0.108912724791648,0.1089127247916478,ug/ml,Imaginary Labs,PLASMA,0.01,BASELINE,3,1,2013-08-27T00:05:00,1,5 Min Post-dose,0.08
1101,CDISCPILOT01,PC,01-704-1009,3,XAN,XANOMELINE,0.586371711994885,ug/ml,0.586371711994885,0.5863717119948852,ug/ml,Imaginary Labs,PLASMA,0.01,BASELINE,3,1,2013-08-27T00:30:00,1,30 Min Post-dose,0.5
1102,CDISCPILOT01,PC,01-704-1009,4,XAN,XANOMELINE,0.992099107050601,ug/ml,0.992099107050601,0.992099107050601,ug/ml,Imaginary Labs,PLASMA,0.01,BASELINE,3,1,2013-08-27T01:00:00,1,1h Post-dose,1
1103,CDISCPILOT01,PC,01-704-1009,5,XAN,XANOMELINE,1.27283352129897,ug/ml,1.27283352129897,1.2728335212989688,ug/ml,Imaginary Labs,PLASMA,0.01,BASELINE,3,1,2013-08-27T01:30:00,1,1.5h Post-dose,1.5
1104,CDISCPILOT01,PC,01-704-1009,6,XAN,XANOMELINE,1.46708170937745,ug/ml,1.46708170937745,1.4670817093774484,ug/ml,Imaginary Labs,PLASMA,0.01,BASELINE,3,1,2013-08-27T02:00:00,1,2h Post-dose,2
1105,CDISCPILOT01,PC,01-704-1009,7,XAN,XANOMELINE,1.80336058781194,ug/ml,1.80336058781194,1.8033605878119394,ug/ml,Imaginary Labs,PLASMA,0.01,BASELINE,3,1,2013-08-27T04:00:00,1,4h Post-dose,4
1106,CDISCPILOT01,PC,01-704-1009,8,XAN,XANOMELINE,1.8804411507815,ug/ml,1.8804411507815,1.8804411507815002,ug/ml,Imaginary Labs,PLASMA,0.01,BASELINE,3,1,2013-08-27T06:00:00,1,6h Post-dose,6
1107,CDISCPILOT01,PC,01-704-1009,9,XAN,XANOMELINE,1.89810926367448,ug/ml,1.89810926367448,1.8981092636744776,ug/ml,Imaginary Labs,PLASMA,0.01,BASELINE,3,1,2013-08-27T08:00:00,1,8h Post-dose,8
1108,CDISCPILOT01,PC,01-704-1009,10,XAN,XANOMELINE,0.529587769941572,ug/ml,0.529587769941572,0.5295877699415718,ug/ml,Imaginary Labs,PLASMA,0.01,BASELINE,3,1,2013-08-27T12:00:00,1,12h Post-dose,12
1109,CDISCPILOT01,PC,01-704-1009,11,XAN,XANOMELINE,0.147351369339608,ug/ml,0.147351369339608,0.14735136933960832,ug/ml,Imaginary Labs,PLASMA,0.01,BASELINE,3,1,2013-08-27T16:00:00,1,16h Post-dose,16
1110,CDISCPILOT01,PC,01-704-1009,12,XAN,XANOMELINE,0.0114073990467872,ug/ml,0.0114073990467872,0.011407399046787198,ug/ml,Imaginary Labs,PLASMA,0.01,BASELINE,3,1,2013-08-28T00:00:00,2,24h Post-dose,24
1111,CDISCPILOT01,PC,01-704-1009,13,XAN,XANOMELINE,<BLQ,ug/ml,<BLQ,,ug/ml,Imaginary Labs,PLASMA,0.01,BASELINE,3,1,2013-08-28T12:00:00,2,36h Post-dose,36
1112,CDISCPILOT01,PC,01-704-1009,14,XAN,XANOMELINE,<BLQ,ug/ml,<BLQ,,ug/ml,Imaginary Labs,PLASMA,0.01,BASELINE,3,1,2013-08-29T00:00:00,3,48h Post-dose,48
1113,CDISCPILOT01,PC,01-704-1009,15,XAN,XANOMELINE,24.906848122034,ug/ml,24.906848122034,24.906848122033963,ug/ml,Imaginary Labs,URINE,0.01,BASELINE,3,1,2013-08-27T06:00:00,1,0-6h Post-dose,3
1114,CDISCPILOT01,PC,01-704-1009,16,XAN,XANOMELINE,20.4875791305618,ug/ml,20.4875791305618,20.487579130561766,ug/ml,Imaginary Labs,URINE,0.01,BASELINE,3,1,2013-08-27T12:00:00,1,6-12h Post-dose,9
1115,CDISCPILOT01,PC,01-704-1009,17,XAN,XANOMELINE,11.6490411476174,ug/ml,11.6490411476174,11.649041147617368,ug/ml,Imaginary Labs,URINE,0.01,BASELINE,3,1,2013-08-28T00:00:00,2,12-24h Post-dose,18
1116,CDISCPILOT01,PC,01-704-1009,18,XAN,XANOMELINE,<BLQ,ug/ml,<BLQ,,ug/ml,Imaginary Labs,URINE,0.01,BASELINE,3,1,2013-08-29T00:00:00,3,24-48h Post-dose,37
1117,CDISCPILOT01,PC,01-704-1010,1,XAN,XANOMELINE,<BLQ,ug/ml,<BLQ,0,ug/ml,Imaginary Labs,PLASMA,0.01,BASELINE,3,1,2014-02-20T23:30:00,-1,Pre-dose,-0.5
1118,CDISCPILOT01,PC,01-704-1010,2,XAN,XANOMELINE,<BLQ,ug/ml,<BLQ,,ug/ml,Imaginary Labs,PLASMA,0.01,BASELINE,3,1,2014-02-21T00:05:00,1,5 Min Post-dose,0.08
1119,CDISCPILOT01,PC,01-704-1010,3,XAN,XANOMELINE,<BLQ,ug/ml,<BLQ,,ug/ml,Imaginary Labs,PLASMA,0.01,BASELINE,3,1,2014-02-21T00:30:00,1,30 Min Post-dose,0.5
1120,CDISCPILOT01,PC,01-704-1010,4,XAN,XANOMELINE,<BLQ,ug/ml,<BLQ,,ug/ml,Imaginary Labs,PLASMA,0.01,BASELINE,3,1,2014-02-21T01:00:00,1,1h Post-dose,1
1121,CDISCPILOT01,PC,01-704-1010,5,XAN,XANOMELINE,<BLQ,ug/ml,<BLQ,,ug/ml,Imaginary Labs,PLASMA,0.01,BASELINE,3,1,2014-02-21T01:30:00,1,1.5h Post-dose,1.5
1122,CDISCPILOT01,PC,01-704-1010,6,XAN,XANOMELINE,<BLQ,ug/ml,<BLQ,,ug/ml,Imaginary Labs,PLASMA,0.01,BASELINE,3,1,2014-02-21T02:00:00,1,2h Post-dose,2
1123,CDISCPILOT01,PC,01-704-1010,7,XAN,XANOMELINE,<BLQ,ug/ml,<BLQ,,ug/ml,Imaginary Labs,PLASMA,0.01,BASELINE,3,1,2014-02-21T04:00:00,1,4h Post-dose,4
1124,CDISCPILOT01,PC,01-704-1010,8,XAN,XANOMELINE,<BLQ,ug/ml,<BLQ,,ug/ml,Imaginary Labs,PLASMA,0.01,BASELINE,3,1,2014-02-21T06:00:00,1,6h Post-dose,6
1125,CDISCPILOT01,PC,01-704-1010,9,XAN,XANOMELINE,<BLQ,ug/ml,<BLQ,,ug/ml,Imaginary Labs,PLASMA,0.01,BASELINE,3,1,2014-02-21T08:00:00,1,8h Post-dose,8
1126,CDISCPILOT01,PC,01-704-1010,10,XAN,XANOMELINE,<BLQ,ug/ml,<BLQ,,ug/ml,Imaginary Labs,PLASMA,0.01,BASELINE,3,1,2014-02-21T12:00:00,1,12h Post-dose,12
1127,CDISCPILOT01,PC,01-704-1010,11,XAN,XANOMELINE,<BLQ,ug/ml,<BLQ,,ug/ml,Imaginary Labs,PLASMA,0.01,BASELINE,3,1,2014-02-21T16:00:00,1,16h Post-dose,16
1128,CDISCPILOT01,PC,01-704-1010,12,XAN,XANOMELINE,<BLQ,ug/ml,<BLQ,,ug/ml,Imaginary Labs,PLASMA,0.01,BASELINE,3,1,2014-02-22T00:00:00,2,24h Post-dose,24
1129,CDISCPILOT01,PC,01-704-1010,13,XAN,XANOMELINE,<BLQ,ug/ml,<BLQ,,ug/ml,Imaginary Labs,PLASMA,0.01,BASELINE,3,1,2014-02-22T12:00:00,2,36h Post-dose,36
1130,CDISCPILOT01,PC,01-704-1010,14,XAN,XANOMELINE,<BLQ,ug/ml,<BLQ,,ug/ml,Imaginary Labs,PLASMA,0.01,BASELINE,3,1,2014-02-23T00:00:00,3,48h Post-dose,48
1131,CDISCPILOT01,PC,01-704-1010,15,XAN,XANOMELINE,<BLQ,ug/ml,<BLQ,,ug/ml,Imaginary Labs,URINE,0.01,BASELINE,3,1,2014-02-21T06:00:00,1,0-6h Post-dose,3
1132,CDISCPILOT01,PC,01-704-1010,16,XAN,XANOMELINE,<BLQ,ug/ml,<BLQ,,ug/ml,Imaginary Labs,URINE,0.01,BASELINE,3,1,2014-02-21T12:00:00,1,6-12h Post-dose,9
1133,CDISCPILOT01,PC,01-704-1010,17,XAN,XANOMELINE,<BLQ,ug/ml,<BLQ,,ug/ml,Imaginary Labs,URINE,0.01,BASELINE,3,1,2014-02-22T00:00:00,2,12-24h Post-dose,18
1134,CDISCPILOT01,PC,01-704-1010,18,XAN,XANOMELINE,<BLQ,ug/ml,<BLQ,,ug/ml,Imaginary Labs,URINE,0.01,BASELINE,3,1,2014-02-23T00:00:00,3,24-48h Post-dose,37
1135,CDISCPILOT01,PC,01-704-1017,1,XAN,XANOMELINE,<BLQ,ug/ml,<BLQ,0,ug/ml,Imaginary Labs,PLASMA,0.01,BASELINE,3,1,2013-10-05T23:30:00,-1,Pre-dose,-0.5
1136,CDISCPILOT01,PC,01-704-1017,2,XAN,XANOMELINE,0.0988619573126184,ug/ml,0.0988619573126184,0.09886195731261839,ug/ml,Imaginary Labs,PLASMA,0.01,BASELINE,3,1,2013-10-06T00:05:00,1,5 Min Post-dose,0.08
1137,CDISCPILOT01,PC,01-704-1017,3,XAN,XANOMELINE,0.540730869988226,ug/ml,0.540730869988226,0.540730869988226,ug/ml,Imaginary Labs,PLASMA,0.01,BASELINE,3,1,2013-10-06T00:30:00,1,30 Min Post-dose,0.5
1138,CDISCPILOT01,PC,01-704-1017,4,XAN,XANOMELINE,0.930265091670862,ug/ml,0.930265091670862,0.9302650916708624,ug/ml,Imaginary Labs,PLASMA,0.01,BASELINE,3,1,2013-10-06T01:00:00,1,1h Post-dose,1
1139,CDISCPILOT01,PC,01-704-1017,5,XAN,XANOMELINE,1.21087956789857,ug/ml,1.21087956789857,1.2108795678985673,ug/ml,Imaginary Labs,PLASMA,0.01,BASELINE,3,1,2013-10-06T01:30:00,1,1.5h Post-dose,1.5
1140,CDISCPILOT01,PC,01-704-1017,6,XAN,XANOMELINE,1.41302993078171,ug/ml,1.41302993078171,1.4130299307817142,ug/ml,Imaginary Labs,PLASMA,0.01,BASELINE,3,1,2013-10-06T02:00:00,1,2h Post-dose,2
1141,CDISCPILOT01,PC,01-704-1017,7,XAN,XANOMELINE,1.79357769642505,ug/ml,1.79357769642505,1.7935776964250532,ug/ml,Imaginary Labs,PLASMA,0.01,BASELINE,3,1,2013-10-06T04:00:00,1,4h Post-dose,4
1142,CDISCPILOT01,PC,01-704-1017,8,XAN,XANOMELINE,1.89606427422601,ug/ml,1.89606427422601,1.8960642742260074,ug/ml,Imaginary Labs,PLASMA,0.01,BASELINE,3,1,2013-10-06T06:00:00,1,6h Post-dose,6
1143,CDISCPILOT01,PC,01-704-1017,9,XAN,XANOMELINE,1.92366527356861,ug/ml,1.92366527356861,1.923665273568611,ug/ml,Imaginary Labs,PLASMA,0.01,BASELINE,3,1,2013-10-06T08:00:00,1,8h Post-dose,8
1144,CDISCPILOT01,PC,01-704-1017,10,XAN,XANOMELINE,0.618924316436025,ug/ml,0.618924316436025,0.6189243164360254,ug/ml,Imaginary Labs,PLASMA,0.01,BASELINE,3,1,2013-10-06T12:00:00,1,12h Post-dose,12
1145,CDISCPILOT01,PC,01-704-1017,11,XAN,XANOMELINE,0.198086522367303,ug/ml,0.198086522367303,0.19808652236730268,ug/ml,Imaginary Labs,PLASMA,0.01,BASELINE,3,1,2013-10-06T16:00:00,1,16h Post-dose,16
