rownames,STUDYID,DOMAIN,USUBJID,PPSEQ,PPTESTCD,PPTEST,PPCAT,PPORRES,PPORRESU,PPSTRESC,PPSTRESN,PPSTRESU,PPSPEC,PPRFDTC
1,CDISCPILOT01,PP,01-701-1028,1,AUCALL,AUC All,XANOMELINE,18.12104095132858,h*ug/ml,18.12104095132858,18.12104095132858,h*ug/ml,PLASMA,2013-07-19
2,CDISCPILOT01,PP,01-701-1028,2,AUCALL,AUC All,XANOMELINE,18.12104095132858,h*ug/ml,18.12104095132858,18.12104095132858,h*ug/ml,PLASMA,2013-07-19
3,CDISCPILOT01,PP,01-701-1028,3,AUCALL,AUC All,XANOMELINE,18.12104095132858,h*ug/ml,18.12104095132858,18.12104095132858,h*ug/ml,PLASMA,2013-07-19
4,CDISCPILOT01,PP,01-701-1028,4,AUCALL,AUC All,XANOMELINE,18.12104095132858,h*ug/ml,18.12104095132858,18.12104095132858,h*ug/ml,PLASMA,2013-07-19
5,CDISCPILOT01,PP,01-701-1028,5,AUCLST,AUC to Last Nonzero Conc,XANOMELINE,18.087515148760218,h*ug/ml,18.087515148760218,18.087515148760218,h*ug/ml,PLASMA,2013-07-19
6,CDISCPILOT01,PP,01-701-1028,6,CLST,Last Nonzero Conc,XANOMELINE,0.010706273436356134,ug/ml,0.010706273436356134,0.010706273436356134,ug/ml,PLASMA,2013-07-19
7,CDISCPILOT01,PP,01-701-1028,7,CLST,Last Nonzero Conc,XANOMELINE,0.010706273436356134,ug/ml,0.010706273436356134,0.010706273436356134,ug/ml,PLASMA,2013-07-19
8,CDISCPILOT01,PP,01-701-1028,8,CLST,Last Nonzero Conc,XANOMELINE,0.010706273436356134,ug/ml,0.010706273436356134,0.010706273436356134,ug/ml,PLASMA,2013-07-19
9,CDISCPILOT01,PP,01-701-1028,9,CLST,Last Nonzero Conc,XANOMELINE,0.010706273436356134,ug/ml,0.010706273436356134,0.010706273436356134,ug/ml,PLASMA,2013-07-19
10,CDISCPILOT01,PP,01-701-1028,10,CMAX,Max Conc,XANOMELINE,1.7718546978766763,ug/ml,1.7718546978766763,1.7718546978766763,ug/ml,PLASMA,2013-07-19
11,CDISCPILOT01,PP,01-701-1028,11,LAMZ,Lambda z,XANOMELINE,0.31934428458570974,/h,0.31934428458570974,0.31934428458570974,/h,PLASMA,2013-07-19
12,CDISCPILOT01,PP,01-701-1028,12,LAMZHL,Half-Life Lambda z,XANOMELINE,2.1700717171094497,h,2.1700717171094497,2.1700717171094497,h,PLASMA,2013-07-19
13,CDISCPILOT01,PP,01-701-1028,13,LAMZNPT,Number of Points for Lambda z,XANOMELINE,4,U,4,4,U,PLASMA,2013-07-19
14,CDISCPILOT01,PP,01-701-1028,14,RCAMINT,Ae,XANOMELINE,57.1686321209494,mg,57.1686321209494,57.1686321209494,mg,URINE,2013-07-19
15,CDISCPILOT01,PP,01-701-1028,15,RENALCL,CLR,XANOMELINE,52.677801650077164,mL/min,52.677801650077164,52.677801650077164,mL/min,URINE,2013-07-19
16,CDISCPILOT01,PP,01-701-1028,16,TMAX,Time of CMAX,XANOMELINE,8,h,8,8,h,PLASMA,2013-07-19
17,CDISCPILOT01,PP,01-701-1033,1,AUCALL,AUC All,XANOMELINE,19.819577895185798,h*ug/ml,19.819577895185798,19.819577895185798,h*ug/ml,PLASMA,2014-03-18
18,CDISCPILOT01,PP,01-701-1033,2,AUCALL,AUC All,XANOMELINE,19.819577895185798,h*ug/ml,19.819577895185798,19.819577895185798,h*ug/ml,PLASMA,2014-03-18
19,CDISCPILOT01,PP,01-701-1033,3,AUCALL,AUC All,XANOMELINE,19.819577895185798,h*ug/ml,19.819577895185798,19.819577895185798,h*ug/ml,PLASMA,2014-03-18
20,CDISCPILOT01,PP,01-701-1033,4,AUCALL,AUC All,XANOMELINE,19.819577895185798,h*ug/ml,19.819577895185798,19.819577895185798,h*ug/ml,PLASMA,2014-03-18
21,CDISCPILOT01,PP,01-701-1033,5,AUCLST,AUC to Last Nonzero Conc,XANOMELINE,19.758514615541905,h*ug/ml,19.758514615541905,19.758514615541905,h*ug/ml,PLASMA,2014-03-18
22,CDISCPILOT01,PP,01-701-1033,6,CLST,Last Nonzero Conc,XANOMELINE,0.01783681221320965,ug/ml,0.01783681221320965,0.01783681221320965,ug/ml,PLASMA,2014-03-18
23,CDISCPILOT01,PP,01-701-1033,7,CLST,Last Nonzero Conc,XANOMELINE,0.01783681221320965,ug/ml,0.01783681221320965,0.01783681221320965,ug/ml,PLASMA,2014-03-18
24,CDISCPILOT01,PP,01-701-1033,8,CLST,Last Nonzero Conc,XANOMELINE,0.01783681221320965,ug/ml,0.01783681221320965,0.01783681221320965,ug/ml,PLASMA,2014-03-18
25,CDISCPILOT01,PP,01-701-1033,9,CLST,Last Nonzero Conc,XANOMELINE,0.01783681221320965,ug/ml,0.01783681221320965,0.01783681221320965,ug/ml,PLASMA,2014-03-18
26,CDISCPILOT01,PP,01-701-1033,10,CMAX,Max Conc,XANOMELINE,1.908372420121069,ug/ml,1.908372420121069,1.908372420121069,ug/ml,PLASMA,2014-03-18
27,CDISCPILOT01,PP,01-701-1033,11,LAMZ,Lambda z,XANOMELINE,0.2921037375854916,/h,0.2921037375854916,0.2921037375854916,/h,PLASMA,2014-03-18
28,CDISCPILOT01,PP,01-701-1033,12,LAMZHL,Half-Life Lambda z,XANOMELINE,2.3724448229532697,h,2.3724448229532697,2.3724448229532697,h,PLASMA,2014-03-18
29,CDISCPILOT01,PP,01-701-1033,13,LAMZNPT,Number of Points for Lambda z,XANOMELINE,4,U,4,4,U,PLASMA,2014-03-18
30,CDISCPILOT01,PP,01-701-1033,14,RCAMINT,Ae,XANOMELINE,67.97422641309919,mg,67.97422641309919,67.97422641309919,mg,URINE,2014-03-18
31,CDISCPILOT01,PP,01-701-1033,15,RENALCL,CLR,XANOMELINE,57.33749705357503,mL/min,57.33749705357503,57.33749705357503,mL/min,URINE,2014-03-18
32,CDISCPILOT01,PP,01-701-1033,16,TMAX,Time of CMAX,XANOMELINE,8,h,8,8,h,PLASMA,2014-03-18
33,CDISCPILOT01,PP,01-701-1034,1,AUCALL,AUC All,XANOMELINE,19.535323718507254,h*ug/ml,19.535323718507254,19.535323718507254,h*ug/ml,PLASMA,2014-07-01
34,CDISCPILOT01,PP,01-701-1034,2,AUCALL,AUC All,XANOMELINE,19.535323718507254,h*ug/ml,19.535323718507254,19.535323718507254,h*ug/ml,PLASMA,2014-07-01
35,CDISCPILOT01,PP,01-701-1034,3,AUCALL,AUC All,XANOMELINE,19.535323718507254,h*ug/ml,19.535323718507254,19.535323718507254,h*ug/ml,PLASMA,2014-07-01
36,CDISCPILOT01,PP,01-701-1034,4,AUCALL,AUC All,XANOMELINE,19.535323718507254,h*ug/ml,19.535323718507254,19.535323718507254,h*ug/ml,PLASMA,2014-07-01
37,CDISCPILOT01,PP,01-701-1034,5,AUCLST,AUC to Last Nonzero Conc,XANOMELINE,19.490361211018367,h*ug/ml,19.490361211018367,19.490361211018367,h*ug/ml,PLASMA,2014-07-01
38,CDISCPILOT01,PP,01-701-1034,6,CLST,Last Nonzero Conc,XANOMELINE,0.013832754761395649,ug/ml,0.013832754761395649,0.013832754761395649,ug/ml,PLASMA,2014-07-01
39,CDISCPILOT01,PP,01-701-1034,7,CLST,Last Nonzero Conc,XANOMELINE,0.013832754761395649,ug/ml,0.013832754761395649,0.013832754761395649,ug/ml,PLASMA,2014-07-01
40,CDISCPILOT01,PP,01-701-1034,8,CLST,Last Nonzero Conc,XANOMELINE,0.013832754761395649,ug/ml,0.013832754761395649,0.013832754761395649,ug/ml,PLASMA,2014-07-01
41,CDISCPILOT01,PP,01-701-1034,9,CLST,Last Nonzero Conc,XANOMELINE,0.013832754761395649,ug/ml,0.013832754761395649,0.013832754761395649,ug/ml,PLASMA,2014-07-01
42,CDISCPILOT01,PP,01-701-1034,10,CMAX,Max Conc,XANOMELINE,1.8983938580458302,ug/ml,1.8983938580458302,1.8983938580458302,ug/ml,PLASMA,2014-07-01
43,CDISCPILOT01,PP,01-701-1034,11,LAMZ,Lambda z,XANOMELINE,0.30765087478304687,/h,0.30765087478304687,0.30765087478304687,/h,PLASMA,2014-07-01
44,CDISCPILOT01,PP,01-701-1034,12,LAMZHL,Half-Life Lambda z,XANOMELINE,2.2525533219715315,h,2.2525533219715315,2.2525533219715315,h,PLASMA,2014-07-01
45,CDISCPILOT01,PP,01-701-1034,13,LAMZNPT,Number of Points for Lambda z,XANOMELINE,4,U,4,4,U,PLASMA,2014-07-01
46,CDISCPILOT01,PP,01-701-1034,14,RCAMINT,Ae,XANOMELINE,61.632495617020936,mg,61.632495617020936,61.632495617020936,mg,URINE,2014-07-01
47,CDISCPILOT01,PP,01-701-1034,15,RENALCL,CLR,XANOMELINE,52.70339780583322,mL/min,52.70339780583322,52.70339780583322,mL/min,URINE,2014-07-01
48,CDISCPILOT01,PP,01-701-1034,16,TMAX,Time of CMAX,XANOMELINE,8,h,8,8,h,PLASMA,2014-07-01
49,CDISCPILOT01,PP,01-701-1097,1,AUCALL,AUC All,XANOMELINE,19.304648760712,h*ug/ml,19.304648760712,19.304648760712,h*ug/ml,PLASMA,2014-01-01
50,CDISCPILOT01,PP,01-701-1097,2,AUCALL,AUC All,XANOMELINE,19.304648760712,h*ug/ml,19.304648760712,19.304648760712,h*ug/ml,PLASMA,2014-01-01
51,CDISCPILOT01,PP,01-701-1097,3,AUCALL,AUC All,XANOMELINE,19.304648760712,h*ug/ml,19.304648760712,19.304648760712,h*ug/ml,PLASMA,2014-01-01
52,CDISCPILOT01,PP,01-701-1097,4,AUCALL,AUC All,XANOMELINE,19.304648760712,h*ug/ml,19.304648760712,19.304648760712,h*ug/ml,PLASMA,2014-01-01
53,CDISCPILOT01,PP,01-701-1097,5,AUCLST,AUC to Last Nonzero Conc,XANOMELINE,19.249666185747344,h*ug/ml,19.249666185747344,19.249666185747344,h*ug/ml,PLASMA,2014-01-01
54,CDISCPILOT01,PP,01-701-1097,6,CLST,Last Nonzero Conc,XANOMELINE,0.016290472392322015,ug/ml,0.016290472392322015,0.016290472392322015,ug/ml,PLASMA,2014-01-01
55,CDISCPILOT01,PP,01-701-1097,7,CLST,Last Nonzero Conc,XANOMELINE,0.016290472392322015,ug/ml,0.016290472392322015,0.016290472392322015,ug/ml,PLASMA,2014-01-01
56,CDISCPILOT01,PP,01-701-1097,8,CLST,Last Nonzero Conc,XANOMELINE,0.016290472392322015,ug/ml,0.016290472392322015,0.016290472392322015,ug/ml,PLASMA,2014-01-01
57,CDISCPILOT01,PP,01-701-1097,9,CLST,Last Nonzero Conc,XANOMELINE,0.016290472392322015,ug/ml,0.016290472392322015,0.016290472392322015,ug/ml,PLASMA,2014-01-01
58,CDISCPILOT01,PP,01-701-1097,10,CMAX,Max Conc,XANOMELINE,1.8636245853982596,ug/ml,1.8636245853982596,1.8636245853982596,ug/ml,PLASMA,2014-01-01
59,CDISCPILOT01,PP,01-701-1097,11,LAMZ,Lambda z,XANOMELINE,0.2962842755690301,/h,0.2962842755690301,0.2962842755690301,/h,PLASMA,2014-01-01
60,CDISCPILOT01,PP,01-701-1097,12,LAMZHL,Half-Life Lambda z,XANOMELINE,2.338969891902146,h,2.338969891902146,2.338969891902146,h,PLASMA,2014-01-01
61,CDISCPILOT01,PP,01-701-1097,13,LAMZNPT,Number of Points for Lambda z,XANOMELINE,4,U,4,4,U,PLASMA,2014-01-01
62,CDISCPILOT01,PP,01-701-1097,14,RCAMINT,Ae,XANOMELINE,66.21990738139236,mg,66.21990738139236,66.21990738139236,mg,URINE,2014-01-01
63,CDISCPILOT01,PP,01-701-1097,15,RENALCL,CLR,XANOMELINE,57.33424737725433,mL/min,57.33424737725433,57.33424737725433,mL/min,URINE,2014-01-01
64,CDISCPILOT01,PP,01-701-1097,16,TMAX,Time of CMAX,XANOMELINE,8,h,8,8,h,PLASMA,2014-01-01
65,CDISCPILOT01,PP,01-701-1111,1,AUCALL,AUC All,XANOMELINE,18.410727031080466,h*ug/ml,18.410727031080466,18.410727031080466,h*ug/ml,PLASMA,2012-09-07
66,CDISCPILOT01,PP,01-701-1111,2,AUCALL,AUC All,XANOMELINE,18.410727031080466,h*ug/ml,18.410727031080466,18.410727031080466,h*ug/ml,PLASMA,2012-09-07
67,CDISCPILOT01,PP,01-701-1111,3,AUCALL,AUC All,XANOMELINE,18.410727031080466,h*ug/ml,18.410727031080466,18.410727031080466,h*ug/ml,PLASMA,2012-09-07
68,CDISCPILOT01,PP,01-701-1111,4,AUCALL,AUC All,XANOMELINE,18.410727031080466,h*ug/ml,18.410727031080466,18.410727031080466,h*ug/ml,PLASMA,2012-09-07
69,CDISCPILOT01,PP,01-701-1111,5,AUCLST,AUC to Last Nonzero Conc,XANOMELINE,18.346455823505952,h*ug/ml,18.346455823505952,18.346455823505952,h*ug/ml,PLASMA,2012-09-07
70,CDISCPILOT01,PP,01-701-1111,6,CLST,Last Nonzero Conc,XANOMELINE,0.018347406138684474,ug/ml,0.018347406138684474,0.018347406138684474,ug/ml,PLASMA,2012-09-07
71,CDISCPILOT01,PP,01-701-1111,7,CLST,Last Nonzero Conc,XANOMELINE,0.018347406138684474,ug/ml,0.018347406138684474,0.018347406138684474,ug/ml,PLASMA,2012-09-07
72,CDISCPILOT01,PP,01-701-1111,8,CLST,Last Nonzero Conc,XANOMELINE,0.018347406138684474,ug/ml,0.018347406138684474,0.018347406138684474,ug/ml,PLASMA,2012-09-07
73,CDISCPILOT01,PP,01-701-1111,9,CLST,Last Nonzero Conc,XANOMELINE,0.018347406138684474,ug/ml,0.018347406138684474,0.018347406138684474,ug/ml,PLASMA,2012-09-07
74,CDISCPILOT01,PP,01-701-1111,10,CMAX,Max Conc,XANOMELINE,1.7650725944910504,ug/ml,1.7650725944910504,1.7650725944910504,ug/ml,PLASMA,2012-09-07
75,CDISCPILOT01,PP,01-701-1111,11,LAMZ,Lambda z,XANOMELINE,0.28546851430187903,/h,0.28546851430187903,0.28546851430187903,/h,PLASMA,2012-09-07
76,CDISCPILOT01,PP,01-701-1111,12,LAMZHL,Half-Life Lambda z,XANOMELINE,2.4275882112419653,h,2.4275882112419653,2.4275882112419653,h,PLASMA,2012-09-07
77,CDISCPILOT01,PP,01-701-1111,13,LAMZNPT,Number of Points for Lambda z,XANOMELINE,4,U,4,4,U,PLASMA,2012-09-07
78,CDISCPILOT01,PP,01-701-1111,14,RCAMINT,Ae,XANOMELINE,72.07794638164756,mg,72.07794638164756,72.07794638164756,mg,URINE,2012-09-07
79,CDISCPILOT01,PP,01-701-1111,15,RENALCL,CLR,XANOMELINE,65.47853808481403,mL/min,65.47853808481403,65.47853808481403,mL/min,URINE,2012-09-07
80,CDISCPILOT01,PP,01-701-1111,16,TMAX,Time of CMAX,XANOMELINE,8,h,8,8,h,PLASMA,2012-09-07
81,CDISCPILOT01,PP,01-701-1115,1,AUCALL,AUC All,XANOMELINE,18.847056498906984,h*ug/ml,18.847056498906984,18.847056498906984,h*ug/ml,PLASMA,2012-11-30
82,CDISCPILOT01,PP,01-701-1115,2,AUCALL,AUC All,XANOMELINE,18.847056498906984,h*ug/ml,18.847056498906984,18.847056498906984,h*ug/ml,PLASMA,2012-11-30
83,CDISCPILOT01,PP,01-701-1115,3,AUCALL,AUC All,XANOMELINE,18.847056498906984,h*ug/ml,18.847056498906984,18.847056498906984,h*ug/ml,PLASMA,2012-11-30
84,CDISCPILOT01,PP,01-701-1115,4,AUCALL,AUC All,XANOMELINE,18.847056498906984,h*ug/ml,18.847056498906984,18.847056498906984,h*ug/ml,PLASMA,2012-11-30
85,CDISCPILOT01,PP,01-701-1115,5,AUCLST,AUC to Last Nonzero Conc,XANOMELINE,18.79783780284963,h*ug/ml,18.79783780284963,18.79783780284963,h*ug/ml,PLASMA,2012-11-30
86,CDISCPILOT01,PP,01-701-1115,6,CLST,Last Nonzero Conc,XANOMELINE,0.014810258428298619,ug/ml,0.014810258428298619,0.014810258428298619,ug/ml,PLASMA,2012-11-30
87,CDISCPILOT01,PP,01-701-1115,7,CLST,Last Nonzero Conc,XANOMELINE,0.014810258428298619,ug/ml,0.014810258428298619,0.014810258428298619,ug/ml,PLASMA,2012-11-30
88,CDISCPILOT01,PP,01-701-1115,8,CLST,Last Nonzero Conc,XANOMELINE,0.014810258428298619,ug/ml,0.014810258428298619,0.014810258428298619,ug/ml,PLASMA,2012-11-30
89,CDISCPILOT01,PP,01-701-1115,9,CLST,Last Nonzero Conc,XANOMELINE,0.014810258428298619,ug/ml,0.014810258428298619,0.014810258428298619,ug/ml,PLASMA,2012-11-30
90,CDISCPILOT01,PP,01-701-1115,10,CMAX,Max Conc,XANOMELINE,1.8244864129651253,ug/ml,1.8244864129651253,1.8244864129651253,ug/ml,PLASMA,2012-11-30
91,CDISCPILOT01,PP,01-701-1115,11,LAMZ,Lambda z,XANOMELINE,0.3009071676958184,/h,0.3009071676958184,0.3009071676958184,/h,PLASMA,2012-11-30
92,CDISCPILOT01,PP,01-701-1115,12,LAMZHL,Half-Life Lambda z,XANOMELINE,2.303035867528889,h,2.303035867528889,2.303035867528889,h,PLASMA,2012-11-30
93,CDISCPILOT01,PP,01-701-1115,13,LAMZNPT,Number of Points for Lambda z,XANOMELINE,4,U,4,4,U,PLASMA,2012-11-30
94,CDISCPILOT01,PP,01-701-1115,14,RCAMINT,Ae,XANOMELINE,64.3228869611013,mg,64.3228869611013,64.3228869611013,mg,URINE,2012-11-30
95,CDISCPILOT01,PP,01-701-1115,15,RENALCL,CLR,XANOMELINE,57.030395051915995,mL/min,57.030395051915995,57.030395051915995,mL/min,URINE,2012-11-30
96,CDISCPILOT01,PP,01-701-1115,16,TMAX,Time of CMAX,XANOMELINE,8,h,8,8,h,PLASMA,2012-11-30
97,CDISCPILOT01,PP,01-701-1133,1,AUCALL,AUC All,XANOMELINE,19.25583376504473,h*ug/ml,19.25583376504473,19.25583376504473,h*ug/ml,PLASMA,2012-10-28
98,CDISCPILOT01,PP,01-701-1133,2,AUCALL,AUC All,XANOMELINE,19.25583376504473,h*ug/ml,19.25583376504473,19.25583376504473,h*ug/ml,PLASMA,2012-10-28
99,CDISCPILOT01,PP,01-701-1133,3,AUCALL,AUC All,XANOMELINE,19.25583376504473,h*ug/ml,19.25583376504473,19.25583376504473,h*ug/ml,PLASMA,2012-10-28
100,CDISCPILOT01,PP,01-701-1133,4,AUCALL,AUC All,XANOMELINE,19.25583376504473,h*ug/ml,19.25583376504473,19.25583376504473,h*ug/ml,PLASMA,2012-10-28
101,CDISCPILOT01,PP,01-701-1133,5,AUCLST,AUC to Last Nonzero Conc,XANOMELINE,19.19507117346304,h*ug/ml,19.19507117346304,19.19507117346304,h*ug/ml,PLASMA,2012-10-28
102,CDISCPILOT01,PP,01-701-1133,6,CLST,Last Nonzero Conc,XANOMELINE,0.017671718975101242,ug/ml,0.017671718975101242,0.017671718975101242,ug/ml,PLASMA,2012-10-28
103,CDISCPILOT01,PP,01-701-1133,7,CLST,Last Nonzero Conc,XANOMELINE,0.017671718975101242,ug/ml,0.017671718975101242,0.017671718975101242,ug/ml,PLASMA,2012-10-28
104,CDISCPILOT01,PP,01-701-1133,8,CLST,Last Nonzero Conc,XANOMELINE,0.017671718975101242,ug/ml,0.017671718975101242,0.017671718975101242,ug/ml,PLASMA,2012-10-28
105,CDISCPILOT01,PP,01-701-1133,9,CLST,Last Nonzero Conc,XANOMELINE,0.017671718975101242,ug/ml,0.017671718975101242,0.017671718975101242,ug/ml,PLASMA,2012-10-28
106,CDISCPILOT01,PP,01-701-1133,10,CMAX,Max Conc,XANOMELINE,1.8525920520276775,ug/ml,1.8525920520276775,1.8525920520276775,ug/ml,PLASMA,2012-10-28
107,CDISCPILOT01,PP,01-701-1133,11,LAMZ,Lambda z,XANOMELINE,0.2908322129635209,/h,0.2908322129635209,0.2908322129635209,/h,PLASMA,2012-10-28
108,CDISCPILOT01,PP,01-701-1133,12,LAMZHL,Half-Life Lambda z,XANOMELINE,2.3828172021884075,h,2.3828172021884075,2.3828172021884075,h,PLASMA,2012-10-28
109,CDISCPILOT01,PP,01-701-1133,13,LAMZNPT,Number of Points for Lambda z,XANOMELINE,4,U,4,4,U,PLASMA,2012-10-28
110,CDISCPILOT01,PP,01-701-1133,14,RCAMINT,Ae,XANOMELINE,68.56267559166348,mg,68.56267559166348,68.56267559166348,mg,URINE,2012-10-28
111,CDISCPILOT01,PP,01-701-1133,15,RENALCL,CLR,XANOMELINE,59.53149376392221,mL/min,59.53149376392221,59.53149376392221,mL/min,URINE,2012-10-28
112,CDISCPILOT01,PP,01-701-1133,16,TMAX,Time of CMAX,XANOMELINE,8,h,8,8,h,PLASMA,2012-10-28
113,CDISCPILOT01,PP,01-701-1146,1,AUCALL,AUC All,XANOMELINE,18.20504789425184,h*ug/ml,18.20504789425184,18.20504789425184,h*ug/ml,PLASMA,2013-05-20
114,CDISCPILOT01,PP,01-701-1146,2,AUCALL,AUC All,XANOMELINE,18.20504789425184,h*ug/ml,18.20504789425184,18.20504789425184,h*ug/ml,PLASMA,2013-05-20
115,CDISCPILOT01,PP,01-701-1146,3,AUCALL,AUC All,XANOMELINE,18.20504789425184,h*ug/ml,18.20504789425184,18.20504789425184,h*ug/ml,PLASMA,2013-05-20
116,CDISCPILOT01,PP,01-701-1146,4,AUCALL,AUC All,XANOMELINE,18.20504789425184,h*ug/ml,18.20504789425184,18.20504789425184,h*ug/ml,PLASMA,2013-05-20
117,CDISCPILOT01,PP,01-701-1146,5,AUCLST,AUC to Last Nonzero Conc,XANOMELINE,18.153075249058286,h*ug/ml,18.153075249058286,18.153075249058286,h*ug/ml,PLASMA,2013-05-20
118,CDISCPILOT01,PP,01-701-1146,6,CLST,Last Nonzero Conc,XANOMELINE,0.015392179338246673,ug/ml,0.015392179338246673,0.015392179338246673,ug/ml,PLASMA,2013-05-20
119,CDISCPILOT01,PP,01-701-1146,7,CLST,Last Nonzero Conc,XANOMELINE,0.015392179338246673,ug/ml,0.015392179338246673,0.015392179338246673,ug/ml,PLASMA,2013-05-20
120,CDISCPILOT01,PP,01-701-1146,8,CLST,Last Nonzero Conc,XANOMELINE,0.015392179338246673,ug/ml,0.015392179338246673,0.015392179338246673,ug/ml,PLASMA,2013-05-20
121,CDISCPILOT01,PP,01-701-1146,9,CLST,Last Nonzero Conc,XANOMELINE,0.015392179338246673,ug/ml,0.015392179338246673,0.015392179338246673,ug/ml,PLASMA,2013-05-20
122,CDISCPILOT01,PP,01-701-1146,10,CMAX,Max Conc,XANOMELINE,1.7573376482414305,ug/ml,1.7573376482414305,1.7573376482414305,ug/ml,PLASMA,2013-05-20
123,CDISCPILOT01,PP,01-701-1146,11,LAMZ,Lambda z,XANOMELINE,0.2961592445588284,/h,0.2961592445588284,0.2961592445588284,/h,PLASMA,2013-05-20
124,CDISCPILOT01,PP,01-701-1146,12,LAMZHL,Half-Life Lambda z,XANOMELINE,2.339957346367231,h,2.339957346367231,2.339957346367231,h,PLASMA,2013-05-20
125,CDISCPILOT01,PP,01-701-1146,13,LAMZNPT,Number of Points for Lambda z,XANOMELINE,4,U,4,4,U,PLASMA,2013-05-20
126,CDISCPILOT01,PP,01-701-1146,14,RCAMINT,Ae,XANOMELINE,66.27183223001815,mg,66.27183223001815,66.27183223001815,mg,URINE,2013-05-20
127,CDISCPILOT01,PP,01-701-1146,15,RENALCL,CLR,XANOMELINE,60.84536763126502,mL/min,60.84536763126502,60.84536763126502,mL/min,URINE,2013-05-20
128,CDISCPILOT01,PP,01-701-1146,16,TMAX,Time of CMAX,XANOMELINE,8,h,8,8,h,PLASMA,2013-05-20
129,CDISCPILOT01,PP,01-701-1148,1,AUCALL,AUC All,XANOMELINE,19.99171427543699,h*ug/ml,19.99171427543699,19.99171427543699,h*ug/ml,PLASMA,2013-08-23
130,CDISCPILOT01,PP,01-701-1148,2,AUCALL,AUC All,XANOMELINE,19.99171427543699,h*ug/ml,19.99171427543699,19.99171427543699,h*ug/ml,PLASMA,2013-08-23
131,CDISCPILOT01,PP,01-701-1148,3,AUCALL,AUC All,XANOMELINE,19.99171427543699,h*ug/ml,19.99171427543699,19.99171427543699,h*ug/ml,PLASMA,2013-08-23
132,CDISCPILOT01,PP,01-701-1148,4,AUCALL,AUC All,XANOMELINE,19.99171427543699,h*ug/ml,19.99171427543699,19.99171427543699,h*ug/ml,PLASMA,2013-08-23
133,CDISCPILOT01,PP,01-701-1148,5,AUCLST,AUC to Last Nonzero Conc,XANOMELINE,19.938784906814895,h*ug/ml,19.938784906814895,19.938784906814895,h*ug/ml,PLASMA,2013-08-23
134,CDISCPILOT01,PP,01-701-1148,6,CLST,Last Nonzero Conc,XANOMELINE,0.015888093653987235,ug/ml,0.015888093653987235,0.015888093653987235,ug/ml,PLASMA,2013-08-23
135,CDISCPILOT01,PP,01-701-1148,7,CLST,Last Nonzero Conc,XANOMELINE,0.015888093653987235,ug/ml,0.015888093653987235,0.015888093653987235,ug/ml,PLASMA,2013-08-23
136,CDISCPILOT01,PP,01-701-1148,8,CLST,Last Nonzero Conc,XANOMELINE,0.015888093653987235,ug/ml,0.015888093653987235,0.015888093653987235,ug/ml,PLASMA,2013-08-23
137,CDISCPILOT01,PP,01-701-1148,9,CLST,Last Nonzero Conc,XANOMELINE,0.015888093653987235,ug/ml,0.015888093653987235,0.015888093653987235,ug/ml,PLASMA,2013-08-23
138,CDISCPILOT01,PP,01-701-1148,10,CMAX,Max Conc,XANOMELINE,1.9344622161331648,ug/ml,1.9344622161331648,1.9344622161331648,ug/ml,PLASMA,2013-08-23
139,CDISCPILOT01,PP,01-701-1148,11,LAMZ,Lambda z,XANOMELINE,0.3001753859454695,/h,0.3001753859454695,0.3001753859454695,/h,PLASMA,2013-08-23
140,CDISCPILOT01,PP,01-701-1148,12,LAMZHL,Half-Life Lambda z,XANOMELINE,2.308650317271156,h,2.308650317271156,2.308650317271156,h,PLASMA,2013-08-23
141,CDISCPILOT01,PP,01-701-1148,13,LAMZNPT,Number of Points for Lambda z,XANOMELINE,4,U,4,4,U,PLASMA,2013-08-23
142,CDISCPILOT01,PP,01-701-1148,14,RCAMINT,Ae,XANOMELINE,64.62025050779455,mg,64.62025050779455,64.62025050779455,mg,URINE,2013-08-23
143,CDISCPILOT01,PP,01-701-1148,15,RENALCL,CLR,XANOMELINE,54.01553706323393,mL/min,54.01553706323393,54.01553706323393,mL/min,URINE,2013-08-23
144,CDISCPILOT01,PP,01-701-1148,16,TMAX,Time of CMAX,XANOMELINE,8,h,8,8,h,PLASMA,2013-08-23
145,CDISCPILOT01,PP,01-701-1180,1,AUCALL,AUC All,XANOMELINE,19.4793556078017,h*ug/ml,19.4793556078017,19.4793556078017,h*ug/ml,PLASMA,2013-02-12
146,CDISCPILOT01,PP,01-701-1180,2,AUCALL,AUC All,XANOMELINE,19.4793556078017,h*ug/ml,19.4793556078017,19.4793556078017,h*ug/ml,PLASMA,2013-02-12
147,CDISCPILOT01,PP,01-701-1180,3,AUCALL,AUC All,XANOMELINE,19.4793556078017,h*ug/ml,19.4793556078017,19.4793556078017,h*ug/ml,PLASMA,2013-02-12
148,CDISCPILOT01,PP,01-701-1180,4,AUCALL,AUC All,XANOMELINE,19.4793556078017,h*ug/ml,19.4793556078017,19.4793556078017,h*ug/ml,PLASMA,2013-02-12
149,CDISCPILOT01,PP,01-701-1180,5,AUCLST,AUC to Last Nonzero Conc,XANOMELINE,19.439333678833307,h*ug/ml,19.439333678833307,19.439333678833307,h*ug/ml,PLASMA,2013-02-12
150,CDISCPILOT01,PP,01-701-1180,6,CLST,Last Nonzero Conc,XANOMELINE,0.01255588246808136,ug/ml,0.01255588246808136,0.01255588246808136,ug/ml,PLASMA,2013-02-12
151,CDISCPILOT01,PP,01-701-1180,7,CLST,Last Nonzero Conc,XANOMELINE,0.01255588246808136,ug/ml,0.01255588246808136,0.01255588246808136,ug/ml,PLASMA,2013-02-12
152,CDISCPILOT01,PP,01-701-1180,8,CLST,Last Nonzero Conc,XANOMELINE,0.01255588246808136,ug/ml,0.01255588246808136,0.01255588246808136,ug/ml,PLASMA,2013-02-12
153,CDISCPILOT01,PP,01-701-1180,9,CLST,Last Nonzero Conc,XANOMELINE,0.01255588246808136,ug/ml,0.01255588246808136,0.01255588246808136,ug/ml,PLASMA,2013-02-12
154,CDISCPILOT01,PP,01-701-1180,10,CMAX,Max Conc,XANOMELINE,1.8991724193565522,ug/ml,1.8991724193565522,1.8991724193565522,ug/ml,PLASMA,2013-02-12
155,CDISCPILOT01,PP,01-701-1180,11,LAMZ,Lambda z,XANOMELINE,0.3137250700234067,/h,0.3137250700234067,0.3137250700234067,/h,PLASMA,2013-02-12
156,CDISCPILOT01,PP,01-701-1180,12,LAMZHL,Half-Life Lambda z,XANOMELINE,2.2089404584348196,h,2.2089404584348196,2.2089404584348196,h,PLASMA,2013-02-12
157,CDISCPILOT01,PP,01-701-1180,13,LAMZNPT,Number of Points for Lambda z,XANOMELINE,4,U,4,4,U,PLASMA,2013-02-12
158,CDISCPILOT01,PP,01-701-1180,14,RCAMINT,Ae,XANOMELINE,59.283127942342034,mg,59.283127942342034,59.283127942342034,mg,URINE,2013-02-12
159,CDISCPILOT01,PP,01-701-1180,15,RENALCL,CLR,XANOMELINE,50.82746912504602,mL/min,50.82746912504602,50.82746912504602,mL/min,URINE,2013-02-12
160,CDISCPILOT01,PP,01-701-1180,16,TMAX,Time of CMAX,XANOMELINE,8,h,8,8,h,PLASMA,2013-02-12
161,CDISCPILOT01,PP,01-701-1181,1,AUCALL,AUC All,XANOMELINE,18.304980331618882,h*ug/ml,18.304980331618882,18.304980331618882,h*ug/ml,PLASMA,2013-12-05
162,CDISCPILOT01,PP,01-701-1181,2,AUCALL,AUC All,XANOMELINE,18.304980331618882,h*ug/ml,18.304980331618882,18.304980331618882,h*ug/ml,PLASMA,2013-12-05
163,CDISCPILOT01,PP,01-701-1181,3,AUCALL,AUC All,XANOMELINE,18.304980331618882,h*ug/ml,18.304980331618882,18.304980331618882,h*ug/ml,PLASMA,2013-12-05
164,CDISCPILOT01,PP,01-701-1181,4,AUCALL,AUC All,XANOMELINE,18.304980331618882,h*ug/ml,18.304980331618882,18.304980331618882,h*ug/ml,PLASMA,2013-12-05
165,CDISCPILOT01,PP,01-701-1181,5,AUCLST,AUC to Last Nonzero Conc,XANOMELINE,18.267304581475447,h*ug/ml,18.267304581475447,18.267304581475447,h*ug/ml,PLASMA,2013-12-05
166,CDISCPILOT01,PP,01-701-1181,6,CLST,Last Nonzero Conc,XANOMELINE,0.011816253693434716,ug/ml,0.011816253693434716,0.011816253693434716,ug/ml,PLASMA,2013-12-05
167,CDISCPILOT01,PP,01-701-1181,7,CLST,Last Nonzero Conc,XANOMELINE,0.011816253693434716,ug/ml,0.011816253693434716,0.011816253693434716,ug/ml,PLASMA,2013-12-05
168,CDISCPILOT01,PP,01-701-1181,8,CLST,Last Nonzero Conc,XANOMELINE,0.011816253693434716,ug/ml,0.011816253693434716,0.011816253693434716,ug/ml,PLASMA,2013-12-05
169,CDISCPILOT01,PP,01-701-1181,9,CLST,Last Nonzero Conc,XANOMELINE,0.011816253693434716,ug/ml,0.011816253693434716,0.011816253693434716,ug/ml,PLASMA,2013-12-05
170,CDISCPILOT01,PP,01-701-1181,10,CMAX,Max Conc,XANOMELINE,1.78458560404552,ug/ml,1.78458560404552,1.78458560404552,ug/ml,PLASMA,2013-12-05
171,CDISCPILOT01,PP,01-701-1181,11,LAMZ,Lambda z,XANOMELINE,0.313630217008261,/h,0.313630217008261,0.313630217008261,/h,PLASMA,2013-12-05
172,CDISCPILOT01,PP,01-701-1181,12,LAMZHL,Half-Life Lambda z,XANOMELINE,2.2096085211768557,h,2.2096085211768557,2.2096085211768557,h,PLASMA,2013-12-05
173,CDISCPILOT01,PP,01-701-1181,13,LAMZNPT,Number of Points for Lambda z,XANOMELINE,4,U,4,4,U,PLASMA,2013-12-05
174,CDISCPILOT01,PP,01-701-1181,14,RCAMINT,Ae,XANOMELINE,59.319297705304045,mg,59.319297705304045,59.319297705304045,mg,URINE,2013-12-05
175,CDISCPILOT01,PP,01-701-1181,15,RENALCL,CLR,XANOMELINE,54.12155675981037,mL/min,54.12155675981037,54.12155675981037,mL/min,URINE,2013-12-05
176,CDISCPILOT01,PP,01-701-1181,16,TMAX,Time of CMAX,XANOMELINE,8,h,8,8,h,PLASMA,2013-12-05
177,CDISCPILOT01,PP,01-701-1188,1,AUCALL,AUC All,XANOMELINE,19.540206646422927,h*ug/ml,19.540206646422927,19.540206646422927,h*ug/ml,PLASMA,2013-02-15
178,CDISCPILOT01,PP,01-701-1188,2,AUCALL,AUC All,XANOMELINE,19.540206646422927,h*ug/ml,19.540206646422927,19.540206646422927,h*ug/ml,PLASMA,2013-02-15
179,CDISCPILOT01,PP,01-701-1188,3,AUCALL,AUC All,XANOMELINE,19.540206646422927,h*ug/ml,19.540206646422927,19.540206646422927,h*ug/ml,PLASMA,2013-02-15
180,CDISCPILOT01,PP,01-701-1188,4,AUCALL,AUC All,XANOMELINE,19.540206646422927,h*ug/ml,19.540206646422927,19.540206646422927,h*ug/ml,PLASMA,2013-02-15
181,CDISCPILOT01,PP,01-701-1188,5,AUCLST,AUC to Last Nonzero Conc,XANOMELINE,19.500354005346512,h*ug/ml,19.500354005346512,19.500354005346512,h*ug/ml,PLASMA,2013-02-15
182,CDISCPILOT01,PP,01-701-1188,6,CLST,Last Nonzero Conc,XANOMELINE,0.012518477418847228,ug/ml,0.012518477418847228,0.012518477418847228,ug/ml,PLASMA,2013-02-15
183,CDISCPILOT01,PP,01-701-1188,7,CLST,Last Nonzero Conc,XANOMELINE,0.012518477418847228,ug/ml,0.012518477418847228,0.012518477418847228,ug/ml,PLASMA,2013-02-15
184,CDISCPILOT01,PP,01-701-1188,8,CLST,Last Nonzero Conc,XANOMELINE,0.012518477418847228,ug/ml,0.012518477418847228,0.012518477418847228,ug/ml,PLASMA,2013-02-15
185,CDISCPILOT01,PP,01-701-1188,9,CLST,Last Nonzero Conc,XANOMELINE,0.012518477418847228,ug/ml,0.012518477418847228,0.012518477418847228,ug/ml,PLASMA,2013-02-15
186,CDISCPILOT01,PP,01-701-1188,10,CMAX,Max Conc,XANOMELINE,1.9054997271194938,ug/ml,1.9054997271194938,1.9054997271194938,ug/ml,PLASMA,2013-02-15
187,CDISCPILOT01,PP,01-701-1188,11,LAMZ,Lambda z,XANOMELINE,0.3141191419370264,/h,0.3141191419370264,0.3141191419370264,/h,PLASMA,2013-02-15
188,CDISCPILOT01,PP,01-701-1188,12,LAMZHL,Half-Life Lambda z,XANOMELINE,2.2061692761752494,h,2.2061692761752494,2.2061692761752494,h,PLASMA,2013-02-15
189,CDISCPILOT01,PP,01-701-1188,13,LAMZNPT,Number of Points for Lambda z,XANOMELINE,4,U,4,4,U,PLASMA,2013-02-15
190,CDISCPILOT01,PP,01-701-1188,14,RCAMINT,Ae,XANOMELINE,59.133030969934254,mg,59.133030969934254,59.133030969934254,mg,URINE,2013-02-15
191,CDISCPILOT01,PP,01-701-1188,15,RENALCL,CLR,XANOMELINE,50.54013459936971,mL/min,50.54013459936971,50.54013459936971,mL/min,URINE,2013-02-15
192,CDISCPILOT01,PP,01-701-1188,16,TMAX,Time of CMAX,XANOMELINE,8,h,8,8,h,PLASMA,2013-02-15
193,CDISCPILOT01,PP,01-701-1192,1,AUCALL,AUC All,XANOMELINE,18.50068776129727,h*ug/ml,18.50068776129727,18.50068776129727,h*ug/ml,PLASMA,2012-07-22
194,CDISCPILOT01,PP,01-701-1192,2,AUCALL,AUC All,XANOMELINE,18.50068776129727,h*ug/ml,18.50068776129727,18.50068776129727,h*ug/ml,PLASMA,2012-07-22
195,CDISCPILOT01,PP,01-701-1192,3,AUCALL,AUC All,XANOMELINE,18.50068776129727,h*ug/ml,18.50068776129727,18.50068776129727,h*ug/ml,PLASMA,2012-07-22
196,CDISCPILOT01,PP,01-701-1192,4,AUCALL,AUC All,XANOMELINE,18.50068776129727,h*ug/ml,18.50068776129727,18.50068776129727,h*ug/ml,PLASMA,2012-07-22
197,CDISCPILOT01,PP,01-701-1192,5,AUCLST,AUC to Last Nonzero Conc,XANOMELINE,18.43684024946124,h*ug/ml,18.43684024946124,18.43684024946124,h*ug/ml,PLASMA,2012-07-22
198,CDISCPILOT01,PP,01-701-1192,6,CLST,Last Nonzero Conc,XANOMELINE,0.018265369033323854,ug/ml,0.018265369033323854,0.018265369033323854,ug/ml,PLASMA,2012-07-22
199,CDISCPILOT01,PP,01-701-1192,7,CLST,Last Nonzero Conc,XANOMELINE,0.018265369033323854,ug/ml,0.018265369033323854,0.018265369033323854,ug/ml,PLASMA,2012-07-22
200,CDISCPILOT01,PP,01-701-1192,8,CLST,Last Nonzero Conc,XANOMELINE,0.018265369033323854,ug/ml,0.018265369033323854,0.018265369033323854,ug/ml,PLASMA,2012-07-22
201,CDISCPILOT01,PP,01-701-1192,9,CLST,Last Nonzero Conc,XANOMELINE,0.018265369033323854,ug/ml,0.018265369033323854,0.018265369033323854,ug/ml,PLASMA,2012-07-22
202,CDISCPILOT01,PP,01-701-1192,10,CMAX,Max Conc,XANOMELINE,1.7744205871659093,ug/ml,1.7744205871659093,1.7744205871659093,ug/ml,PLASMA,2012-07-22
203,CDISCPILOT01,PP,01-701-1192,11,LAMZ,Lambda z,XANOMELINE,0.28607800849361875,/h,0.28607800849361875,0.28607800849361875,/h,PLASMA,2012-07-22
204,CDISCPILOT01,PP,01-701-1192,12,LAMZHL,Half-Life Lambda z,XANOMELINE,2.422416192174583,h,2.422416192174583,2.422416192174583,h,PLASMA,2012-07-22
205,CDISCPILOT01,PP,01-701-1192,13,LAMZNPT,Number of Points for Lambda z,XANOMELINE,4,U,4,4,U,PLASMA,2012-07-22
206,CDISCPILOT01,PP,01-701-1192,14,RCAMINT,Ae,XANOMELINE,71.67405248801157,mg,71.67405248801157,71.67405248801157,mg,URINE,2012-07-22
207,CDISCPILOT01,PP,01-701-1192,15,RENALCL,CLR,XANOMELINE,64.79242241640439,mL/min,64.79242241640439,64.79242241640439,mL/min,URINE,2012-07-22
208,CDISCPILOT01,PP,01-701-1192,16,TMAX,Time of CMAX,XANOMELINE,8,h,8,8,h,PLASMA,2012-07-22
209,CDISCPILOT01,PP,01-701-1211,1,AUCALL,AUC All,XANOMELINE,19.945534354020847,h*ug/ml,19.945534354020847,19.945534354020847,h*ug/ml,PLASMA,2012-11-15
210,CDISCPILOT01,PP,01-701-1211,2,AUCALL,AUC All,XANOMELINE,19.945534354020847,h*ug/ml,19.945534354020847,19.945534354020847,h*ug/ml,PLASMA,2012-11-15
211,CDISCPILOT01,PP,01-701-1211,3,AUCALL,AUC All,XANOMELINE,19.945534354020847,h*ug/ml,19.945534354020847,19.945534354020847,h*ug/ml,PLASMA,2012-11-15
212,CDISCPILOT01,PP,01-701-1211,4,AUCALL,AUC All,XANOMELINE,19.945534354020847,h*ug/ml,19.945534354020847,19.945534354020847,h*ug/ml,PLASMA,2012-11-15
213,CDISCPILOT01,PP,01-701-1211,5,AUCLST,AUC to Last Nonzero Conc,XANOMELINE,19.88184402036812,h*ug/ml,19.88184402036812,19.88184402036812,h*ug/ml,PLASMA,2012-11-15
214,CDISCPILOT01,PP,01-701-1211,6,CLST,Last Nonzero Conc,XANOMELINE,0.018483035628678625,ug/ml,0.018483035628678625,0.018483035628678625,ug/ml,PLASMA,2012-11-15
215,CDISCPILOT01,PP,01-701-1211,7,CLST,Last Nonzero Conc,XANOMELINE,0.018483035628678625,ug/ml,0.018483035628678625,0.018483035628678625,ug/ml,PLASMA,2012-11-15
216,CDISCPILOT01,PP,01-701-1211,8,CLST,Last Nonzero Conc,XANOMELINE,0.018483035628678625,ug/ml,0.018483035628678625,0.018483035628678625,ug/ml,PLASMA,2012-11-15
217,CDISCPILOT01,PP,01-701-1211,9,CLST,Last Nonzero Conc,XANOMELINE,0.018483035628678625,ug/ml,0.018483035628678625,0.018483035628678625,ug/ml,PLASMA,2012-11-15
218,CDISCPILOT01,PP,01-701-1211,10,CMAX,Max Conc,XANOMELINE,1.9181716670458715,ug/ml,1.9181716670458715,1.9181716670458715,ug/ml,PLASMA,2012-11-15
219,CDISCPILOT01,PP,01-701-1211,11,LAMZ,Lambda z,XANOMELINE,0.290201582699472,/h,0.290201582699472,0.290201582699472,/h,PLASMA,2012-11-15
220,CDISCPILOT01,PP,01-701-1211,12,LAMZHL,Half-Life Lambda z,XANOMELINE,2.3879952464548047,h,2.3879952464548047,2.3879952464548047,h,PLASMA,2012-11-15
221,CDISCPILOT01,PP,01-701-1211,13,LAMZNPT,Number of Points for Lambda z,XANOMELINE,4,U,4,4,U,PLASMA,2012-11-15
222,CDISCPILOT01,PP,01-701-1211,14,RCAMINT,Ae,XANOMELINE,68.97146535157471,mg,68.97146535157471,68.97146535157471,mg,URINE,2012-11-15
223,CDISCPILOT01,PP,01-701-1211,15,RENALCL,CLR,XANOMELINE,57.81779704883537,mL/min,57.81779704883537,57.81779704883537,mL/min,URINE,2012-11-15
224,CDISCPILOT01,PP,01-701-1211,16,TMAX,Time of CMAX,XANOMELINE,8,h,8,8,h,PLASMA,2012-11-15
225,CDISCPILOT01,PP,01-701-1239,1,AUCALL,AUC All,XANOMELINE,19.2694932723022,h*ug/ml,19.2694932723022,19.2694932723022,h*ug/ml,PLASMA,2014-01-11
226,CDISCPILOT01,PP,01-701-1239,2,AUCALL,AUC All,XANOMELINE,19.2694932723022,h*ug/ml,19.2694932723022,19.2694932723022,h*ug/ml,PLASMA,2014-01-11
227,CDISCPILOT01,PP,01-701-1239,3,AUCALL,AUC All,XANOMELINE,19.2694932723022,h*ug/ml,19.2694932723022,19.2694932723022,h*ug/ml,PLASMA,2014-01-11
228,CDISCPILOT01,PP,01-701-1239,4,AUCALL,AUC All,XANOMELINE,19.2694932723022,h*ug/ml,19.2694932723022,19.2694932723022,h*ug/ml,PLASMA,2014-01-11
229,CDISCPILOT01,PP,01-701-1239,5,AUCLST,AUC to Last Nonzero Conc,XANOMELINE,19.20766148901629,h*ug/ml,19.20766148901629,19.20766148901629,h*ug/ml,PLASMA,2014-01-11
230,CDISCPILOT01,PP,01-701-1239,6,CLST,Last Nonzero Conc,XANOMELINE,0.017927692657953482,ug/ml,0.017927692657953482,0.017927692657953482,ug/ml,PLASMA,2014-01-11
231,CDISCPILOT01,PP,01-701-1239,7,CLST,Last Nonzero Conc,XANOMELINE,0.017927692657953482,ug/ml,0.017927692657953482,0.017927692657953482,ug/ml,PLASMA,2014-01-11
232,CDISCPILOT01,PP,01-701-1239,8,CLST,Last Nonzero Conc,XANOMELINE,0.017927692657953482,ug/ml,0.017927692657953482,0.017927692657953482,ug/ml,PLASMA,2014-01-11
233,CDISCPILOT01,PP,01-701-1239,9,CLST,Last Nonzero Conc,XANOMELINE,0.017927692657953482,ug/ml,0.017927692657953482,0.017927692657953482,ug/ml,PLASMA,2014-01-11
234,CDISCPILOT01,PP,01-701-1239,10,CMAX,Max Conc,XANOMELINE,1.8528479241931435,ug/ml,1.8528479241931435,1.8528479241931435,ug/ml,PLASMA,2014-01-11
235,CDISCPILOT01,PP,01-701-1239,11,LAMZ,Lambda z,XANOMELINE,0.2899429986525871,/h,0.2899429986525871,0.2899429986525871,/h,PLASMA,2014-01-11
236,CDISCPILOT01,PP,01-701-1239,12,LAMZHL,Half-Life Lambda z,XANOMELINE,2.390124966702025,h,2.390124966702025,2.390124966702025,h,PLASMA,2014-01-11
237,CDISCPILOT01,PP,01-701-1239,13,LAMZNPT,Number of Points for Lambda z,XANOMELINE,4,U,4,4,U,PLASMA,2014-01-11
238,CDISCPILOT01,PP,01-701-1239,14,RCAMINT,Ae,XANOMELINE,69.13942836543319,mg,69.13942836543319,69.13942836543319,mg,URINE,2014-01-11
239,CDISCPILOT01,PP,01-701-1239,15,RENALCL,CLR,XANOMELINE,59.992925570325056,mL/min,59.992925570325056,59.992925570325056,mL/min,URINE,2014-01-11
240,CDISCPILOT01,PP,01-701-1239,16,TMAX,Time of CMAX,XANOMELINE,8,h,8,8,h,PLASMA,2014-01-11
241,CDISCPILOT01,PP,01-701-1275,1,AUCALL,AUC All,XANOMELINE,18.631503422424807,h*ug/ml,18.631503422424807,18.631503422424807,h*ug/ml,PLASMA,2014-02-07
242,CDISCPILOT01,PP,01-701-1275,2,AUCALL,AUC All,XANOMELINE,18.631503422424807,h*ug/ml,18.631503422424807,18.631503422424807,h*ug/ml,PLASMA,2014-02-07
243,CDISCPILOT01,PP,01-701-1275,3,AUCALL,AUC All,XANOMELINE,18.631503422424807,h*ug/ml,18.631503422424807,18.631503422424807,h*ug/ml,PLASMA,2014-02-07
244,CDISCPILOT01,PP,01-701-1275,4,AUCALL,AUC All,XANOMELINE,18.631503422424807,h*ug/ml,18.631503422424807,18.631503422424807,h*ug/ml,PLASMA,2014-02-07
245,CDISCPILOT01,PP,01-701-1275,5,AUCLST,AUC to Last Nonzero Conc,XANOMELINE,18.5936291244714,h*ug/ml,18.5936291244714,18.5936291244714,h*ug/ml,PLASMA,2014-02-07
246,CDISCPILOT01,PP,01-701-1275,6,CLST,Last Nonzero Conc,XANOMELINE,0.011903727637159434,ug/ml,0.011903727637159434,0.011903727637159434,ug/ml,PLASMA,2014-02-07
247,CDISCPILOT01,PP,01-701-1275,7,CLST,Last Nonzero Conc,XANOMELINE,0.011903727637159434,ug/ml,0.011903727637159434,0.011903727637159434,ug/ml,PLASMA,2014-02-07
248,CDISCPILOT01,PP,01-701-1275,8,CLST,Last Nonzero Conc,XANOMELINE,0.011903727637159434,ug/ml,0.011903727637159434,0.011903727637159434,ug/ml,PLASMA,2014-02-07
249,CDISCPILOT01,PP,01-701-1275,9,CLST,Last Nonzero Conc,XANOMELINE,0.011903727637159434,ug/ml,0.011903727637159434,0.011903727637159434,ug/ml,PLASMA,2014-02-07
250,CDISCPILOT01,PP,01-701-1275,10,CMAX,Max Conc,XANOMELINE,1.8170539746100431,ug/ml,1.8170539746100431,1.8170539746100431,ug/ml,PLASMA,2014-02-07
251,CDISCPILOT01,PP,01-701-1275,11,LAMZ,Lambda z,XANOMELINE,0.31429566435273154,/h,0.31429566435273154,0.31429566435273154,/h,PLASMA,2014-02-07
252,CDISCPILOT01,PP,01-701-1275,12,LAMZHL,Half-Life Lambda z,XANOMELINE,2.2049301934443855,h,2.2049301934443855,2.2049301934443855,h,PLASMA,2014-02-07
253,CDISCPILOT01,PP,01-701-1275,13,LAMZNPT,Number of Points for Lambda z,XANOMELINE,4,U,4,4,U,PLASMA,2014-02-07
254,CDISCPILOT01,PP,01-701-1275,14,RCAMINT,Ae,XANOMELINE,59.065885686066736,mg,59.065885686066736,59.065885686066736,mg,URINE,2014-02-07
255,CDISCPILOT01,PP,01-701-1275,15,RENALCL,CLR,XANOMELINE,52.94455544482626,mL/min,52.94455544482626,52.94455544482626,mL/min,URINE,2014-02-07
256,CDISCPILOT01,PP,01-701-1275,16,TMAX,Time of CMAX,XANOMELINE,8,h,8,8,h,PLASMA,2014-02-07
257,CDISCPILOT01,PP,01-701-1287,1,AUCALL,AUC All,XANOMELINE,19.50167944499283,h*ug/ml,19.50167944499283,19.50167944499283,h*ug/ml,PLASMA,2014-01-25
258,CDISCPILOT01,PP,01-701-1287,2,AUCALL,AUC All,XANOMELINE,19.50167944499283,h*ug/ml,19.50167944499283,19.50167944499283,h*ug/ml,PLASMA,2014-01-25
259,CDISCPILOT01,PP,01-701-1287,3,AUCALL,AUC All,XANOMELINE,19.50167944499283,h*ug/ml,19.50167944499283,19.50167944499283,h*ug/ml,PLASMA,2014-01-25
260,CDISCPILOT01,PP,01-701-1287,4,AUCALL,AUC All,XANOMELINE,19.50167944499283,h*ug/ml,19.50167944499283,19.50167944499283,h*ug/ml,PLASMA,2014-01-25
261,CDISCPILOT01,PP,01-701-1287,5,AUCLST,AUC to Last Nonzero Conc,XANOMELINE,19.465655410429367,h*ug/ml,19.465655410429367,19.465655410429367,h*ug/ml,PLASMA,2014-01-25
262,CDISCPILOT01,PP,01-701-1287,6,CLST,Last Nonzero Conc,XANOMELINE,0.011507076629796028,ug/ml,0.011507076629796028,0.011507076629796028,ug/ml,PLASMA,2014-01-25
263,CDISCPILOT01,PP,01-701-1287,7,CLST,Last Nonzero Conc,XANOMELINE,0.011507076629796028,ug/ml,0.011507076629796028,0.011507076629796028,ug/ml,PLASMA,2014-01-25
264,CDISCPILOT01,PP,01-701-1287,8,CLST,Last Nonzero Conc,XANOMELINE,0.011507076629796028,ug/ml,0.011507076629796028,0.011507076629796028,ug/ml,PLASMA,2014-01-25
265,CDISCPILOT01,PP,01-701-1287,9,CLST,Last Nonzero Conc,XANOMELINE,0.011507076629796028,ug/ml,0.011507076629796028,0.011507076629796028,ug/ml,PLASMA,2014-01-25
266,CDISCPILOT01,PP,01-701-1287,10,CMAX,Max Conc,XANOMELINE,1.906931922194103,ug/ml,1.906931922194103,1.906931922194103,ug/ml,PLASMA,2014-01-25
267,CDISCPILOT01,PP,01-701-1287,11,LAMZ,Lambda z,XANOMELINE,0.31942775897362147,/h,0.31942775897362147,0.31942775897362147,/h,PLASMA,2014-01-25
268,CDISCPILOT01,PP,01-701-1287,12,LAMZHL,Half-Life Lambda z,XANOMELINE,2.169504623601696,h,2.169504623601696,2.169504623601696,h,PLASMA,2014-01-25
269,CDISCPILOT01,PP,01-701-1287,13,LAMZNPT,Number of Points for Lambda z,XANOMELINE,4,U,4,4,U,PLASMA,2014-01-25
270,CDISCPILOT01,PP,01-701-1287,14,RCAMINT,Ae,XANOMELINE,57.13763232920529,mg,57.13763232920529,57.13763232920529,mg,URINE,2014-01-25
271,CDISCPILOT01,PP,01-701-1287,15,RENALCL,CLR,XANOMELINE,48.92174715284432,mL/min,48.92174715284432,48.92174715284432,mL/min,URINE,2014-01-25
272,CDISCPILOT01,PP,01-701-1287,16,TMAX,Time of CMAX,XANOMELINE,8,h,8,8,h,PLASMA,2014-01-25
273,CDISCPILOT01,PP,01-701-1294,1,AUCALL,AUC All,XANOMELINE,19.828793164114533,h*ug/ml,19.828793164114533,19.828793164114533,h*ug/ml,PLASMA,2013-03-24
274,CDISCPILOT01,PP,01-701-1294,2,AUCALL,AUC All,XANOMELINE,19.828793164114533,h*ug/ml,19.828793164114533,19.828793164114533,h*ug/ml,PLASMA,2013-03-24
275,CDISCPILOT01,PP,01-701-1294,3,AUCALL,AUC All,XANOMELINE,19.828793164114533,h*ug/ml,19.828793164114533,19.828793164114533,h*ug/ml,PLASMA,2013-03-24
276,CDISCPILOT01,PP,01-701-1294,4,AUCALL,AUC All,XANOMELINE,19.828793164114533,h*ug/ml,19.828793164114533,19.828793164114533,h*ug/ml,PLASMA,2013-03-24
277,CDISCPILOT01,PP,01-701-1294,5,AUCLST,AUC to Last Nonzero Conc,XANOMELINE,19.75970210178914,h*ug/ml,19.75970210178914,19.75970210178914,h*ug/ml,PLASMA,2013-03-24
278,CDISCPILOT01,PP,01-701-1294,6,CLST,Last Nonzero Conc,XANOMELINE,0.019730242516222886,ug/ml,0.019730242516222886,0.019730242516222886,ug/ml,PLASMA,2013-03-24
279,CDISCPILOT01,PP,01-701-1294,7,CLST,Last Nonzero Conc,XANOMELINE,0.019730242516222886,ug/ml,0.019730242516222886,0.019730242516222886,ug/ml,PLASMA,2013-03-24
280,CDISCPILOT01,PP,01-701-1294,8,CLST,Last Nonzero Conc,XANOMELINE,0.019730242516222886,ug/ml,0.019730242516222886,0.019730242516222886,ug/ml,PLASMA,2013-03-24
281,CDISCPILOT01,PP,01-701-1294,9,CLST,Last Nonzero Conc,XANOMELINE,0.019730242516222886,ug/ml,0.019730242516222886,0.019730242516222886,ug/ml,PLASMA,2013-03-24
282,CDISCPILOT01,PP,01-701-1294,10,CMAX,Max Conc,XANOMELINE,1.9011530309747031,ug/ml,1.9011530309747031,1.9011530309747031,ug/ml,PLASMA,2013-03-24
283,CDISCPILOT01,PP,01-701-1294,11,LAMZ,Lambda z,XANOMELINE,0.2855686662234416,/h,0.2855686662234416,0.2855686662234416,/h,PLASMA,2013-03-24
284,CDISCPILOT01,PP,01-701-1294,12,LAMZHL,Half-Life Lambda z,XANOMELINE,2.4267368306359143,h,2.4267368306359143,2.4267368306359143,h,PLASMA,2013-03-24
285,CDISCPILOT01,PP,01-701-1294,13,LAMZNPT,Number of Points for Lambda z,XANOMELINE,4,U,4,4,U,PLASMA,2013-03-24
286,CDISCPILOT01,PP,01-701-1294,14,RCAMINT,Ae,XANOMELINE,72.0114990614663,mg,72.0114990614663,72.0114990614663,mg,URINE,2013-03-24
287,CDISCPILOT01,PP,01-701-1294,15,RENALCL,CLR,XANOMELINE,60.739359573430356,mL/min,60.739359573430356,60.739359573430356,mL/min,URINE,2013-03-24
288,CDISCPILOT01,PP,01-701-1294,16,TMAX,Time of CMAX,XANOMELINE,8,h,8,8,h,PLASMA,2013-03-24
289,CDISCPILOT01,PP,01-701-1302,1,AUCALL,AUC All,XANOMELINE,19.1659885185449,h*ug/ml,19.1659885185449,19.1659885185449,h*ug/ml,PLASMA,2013-08-29
290,CDISCPILOT01,PP,01-701-1302,2,AUCALL,AUC All,XANOMELINE,19.1659885185449,h*ug/ml,19.1659885185449,19.1659885185449,h*ug/ml,PLASMA,2013-08-29
291,CDISCPILOT01,PP,01-701-1302,3,AUCALL,AUC All,XANOMELINE,19.1659885185449,h*ug/ml,19.1659885185449,19.1659885185449,h*ug/ml,PLASMA,2013-08-29
292,CDISCPILOT01,PP,01-701-1302,4,AUCALL,AUC All,XANOMELINE,19.1659885185449,h*ug/ml,19.1659885185449,19.1659885185449,h*ug/ml,PLASMA,2013-08-29
293,CDISCPILOT01,PP,01-701-1302,5,AUCLST,AUC to Last Nonzero Conc,XANOMELINE,19.117790788473435,h*ug/ml,19.117790788473435,19.117790788473435,h*ug/ml,PLASMA,2013-08-29
294,CDISCPILOT01,PP,01-701-1302,6,CLST,Last Nonzero Conc,XANOMELINE,0.014600085660730313,ug/ml,0.014600085660730313,0.014600085660730313,ug/ml,PLASMA,2013-08-29
295,CDISCPILOT01,PP,01-701-1302,7,CLST,Last Nonzero Conc,XANOMELINE,0.014600085660730313,ug/ml,0.014600085660730313,0.014600085660730313,ug/ml,PLASMA,2013-08-29
296,CDISCPILOT01,PP,01-701-1302,8,CLST,Last Nonzero Conc,XANOMELINE,0.014600085660730313,ug/ml,0.014600085660730313,0.014600085660730313,ug/ml,PLASMA,2013-08-29
297,CDISCPILOT01,PP,01-701-1302,9,CLST,Last Nonzero Conc,XANOMELINE,0.014600085660730313,ug/ml,0.014600085660730313,0.014600085660730313,ug/ml,PLASMA,2013-08-29
298,CDISCPILOT01,PP,01-701-1302,10,CMAX,Max Conc,XANOMELINE,1.8575330214610826,ug/ml,1.8575330214610826,1.8575330214610826,ug/ml,PLASMA,2013-08-29
299,CDISCPILOT01,PP,01-701-1302,11,LAMZ,Lambda z,XANOMELINE,0.30292060723776637,/h,0.30292060723776637,0.30292060723776637,/h,PLASMA,2013-08-29
300,CDISCPILOT01,PP,01-701-1302,12,LAMZHL,Half-Life Lambda z,XANOMELINE,2.287728148702855,h,2.287728148702855,2.287728148702855,h,PLASMA,2013-08-29
301,CDISCPILOT01,PP,01-701-1302,13,LAMZNPT,Number of Points for Lambda z,XANOMELINE,4,U,4,4,U,PLASMA,2013-08-29
302,CDISCPILOT01,PP,01-701-1302,14,RCAMINT,Ae,XANOMELINE,63.510274021944866,mg,63.510274021944866,63.510274021944866,mg,URINE,2013-08-29
303,CDISCPILOT01,PP,01-701-1302,15,RENALCL,CLR,XANOMELINE,55.36751493643354,mL/min,55.36751493643354,55.36751493643354,mL/min,URINE,2013-08-29
304,CDISCPILOT01,PP,01-701-1302,16,TMAX,Time of CMAX,XANOMELINE,8,h,8,8,h,PLASMA,2013-08-29
305,CDISCPILOT01,PP,01-701-1317,1,AUCALL,AUC All,XANOMELINE,19.169283390728292,h*ug/ml,19.169283390728292,19.169283390728292,h*ug/ml,PLASMA,2014-05-22
306,CDISCPILOT01,PP,01-701-1317,2,AUCALL,AUC All,XANOMELINE,19.169283390728292,h*ug/ml,19.169283390728292,19.169283390728292,h*ug/ml,PLASMA,2014-05-22
307,CDISCPILOT01,PP,01-701-1317,3,AUCALL,AUC All,XANOMELINE,19.169283390728292,h*ug/ml,19.169283390728292,19.169283390728292,h*ug/ml,PLASMA,2014-05-22
308,CDISCPILOT01,PP,01-701-1317,4,AUCALL,AUC All,XANOMELINE,19.169283390728292,h*ug/ml,19.169283390728292,19.169283390728292,h*ug/ml,PLASMA,2014-05-22
309,CDISCPILOT01,PP,01-701-1317,5,AUCLST,AUC to Last Nonzero Conc,XANOMELINE,19.1292992377792,h*ug/ml,19.1292992377792,19.1292992377792,h*ug/ml,PLASMA,2014-05-22
310,CDISCPILOT01,PP,01-701-1317,6,CLST,Last Nonzero Conc,XANOMELINE,0.012511697562405303,ug/ml,0.012511697562405303,0.012511697562405303,ug/ml,PLASMA,2014-05-22
311,CDISCPILOT01,PP,01-701-1317,7,CLST,Last Nonzero Conc,XANOMELINE,0.012511697562405303,ug/ml,0.012511697562405303,0.012511697562405303,ug/ml,PLASMA,2014-05-22
312,CDISCPILOT01,PP,01-701-1317,8,CLST,Last Nonzero Conc,XANOMELINE,0.012511697562405303,ug/ml,0.012511697562405303,0.012511697562405303,ug/ml,PLASMA,2014-05-22
313,CDISCPILOT01,PP,01-701-1317,9,CLST,Last Nonzero Conc,XANOMELINE,0.012511697562405303,ug/ml,0.012511697562405303,0.012511697562405303,ug/ml,PLASMA,2014-05-22
314,CDISCPILOT01,PP,01-701-1317,10,CMAX,Max Conc,XANOMELINE,1.8681434566768849,ug/ml,1.8681434566768849,1.8681434566768849,ug/ml,PLASMA,2014-05-22
315,CDISCPILOT01,PP,01-701-1317,11,LAMZ,Lambda z,XANOMELINE,0.3129164091167718,/h,0.3129164091167718,0.3129164091167718,/h,PLASMA,2014-05-22
316,CDISCPILOT01,PP,01-701-1317,12,LAMZHL,Half-Life Lambda z,XANOMELINE,2.2146489599444155,h,2.2146489599444155,2.2146489599444155,h,PLASMA,2014-05-22
317,CDISCPILOT01,PP,01-701-1317,13,LAMZNPT,Number of Points for Lambda z,XANOMELINE,4,U,4,4,U,PLASMA,2014-05-22
318,CDISCPILOT01,PP,01-701-1317,14,RCAMINT,Ae,XANOMELINE,59.59200796007423,mg,59.59200796007423,59.59200796007423,mg,URINE,2014-05-22
319,CDISCPILOT01,PP,01-701-1317,15,RENALCL,CLR,XANOMELINE,51.920361552314155,mL/min,51.920361552314155,51.920361552314155,mL/min,URINE,2014-05-22
320,CDISCPILOT01,PP,01-701-1317,16,TMAX,Time of CMAX,XANOMELINE,8,h,8,8,h,PLASMA,2014-05-22
321,CDISCPILOT01,PP,01-701-1324,1,AUCALL,AUC All,XANOMELINE,19.48700337220486,h*ug/ml,19.48700337220486,19.48700337220486,h*ug/ml,PLASMA,2012-10-02
322,CDISCPILOT01,PP,01-701-1324,2,AUCALL,AUC All,XANOMELINE,19.48700337220486,h*ug/ml,19.48700337220486,19.48700337220486,h*ug/ml,PLASMA,2012-10-02
323,CDISCPILOT01,PP,01-701-1324,3,AUCALL,AUC All,XANOMELINE,19.48700337220486,h*ug/ml,19.48700337220486,19.48700337220486,h*ug/ml,PLASMA,2012-10-02
324,CDISCPILOT01,PP,01-701-1324,4,AUCALL,AUC All,XANOMELINE,19.48700337220486,h*ug/ml,19.48700337220486,19.48700337220486,h*ug/ml,PLASMA,2012-10-02
325,CDISCPILOT01,PP,01-701-1324,5,AUCLST,AUC to Last Nonzero Conc,XANOMELINE,19.45278969355282,h*ug/ml,19.45278969355282,19.45278969355282,h*ug/ml,PLASMA,2012-10-02
326,CDISCPILOT01,PP,01-701-1324,6,CLST,Last Nonzero Conc,XANOMELINE,0.011022103669149508,ug/ml,0.011022103669149508,0.011022103669149508,ug/ml,PLASMA,2012-10-02
327,CDISCPILOT01,PP,01-701-1324,7,CLST,Last Nonzero Conc,XANOMELINE,0.011022103669149508,ug/ml,0.011022103669149508,0.011022103669149508,ug/ml,PLASMA,2012-10-02
328,CDISCPILOT01,PP,01-701-1324,8,CLST,Last Nonzero Conc,XANOMELINE,0.011022103669149508,ug/ml,0.011022103669149508,0.011022103669149508,ug/ml,PLASMA,2012-10-02
329,CDISCPILOT01,PP,01-701-1324,9,CLST,Last Nonzero Conc,XANOMELINE,0.011022103669149508,ug/ml,0.011022103669149508,0.011022103669149508,ug/ml,PLASMA,2012-10-02
330,CDISCPILOT01,PP,01-701-1324,10,CMAX,Max Conc,XANOMELINE,1.9080795932575485,ug/ml,1.9080795932575485,1.9080795932575485,ug/ml,PLASMA,2012-10-02
331,CDISCPILOT01,PP,01-701-1324,11,LAMZ,Lambda z,XANOMELINE,0.3221548837599795,/h,0.3221548837599795,0.3221548837599795,/h,PLASMA,2012-10-02
332,CDISCPILOT01,PP,01-701-1324,12,LAMZHL,Half-Life Lambda z,XANOMELINE,2.151139203329034,h,2.151139203329034,2.151139203329034,h,PLASMA,2012-10-02
333,CDISCPILOT01,PP,01-701-1324,13,LAMZNPT,Number of Points for Lambda z,XANOMELINE,4,U,4,4,U,PLASMA,2012-10-02
334,CDISCPILOT01,PP,01-701-1324,14,RCAMINT,Ae,XANOMELINE,56.13131879228912,mg,56.13131879228912,56.13131879228912,mg,URINE,2012-10-02
335,CDISCPILOT01,PP,01-701-1324,15,RENALCL,CLR,XANOMELINE,48.09191867126095,mL/min,48.09191867126095,48.09191867126095,mL/min,URINE,2012-10-02
336,CDISCPILOT01,PP,01-701-1324,16,TMAX,Time of CMAX,XANOMELINE,8,h,8,8,h,PLASMA,2012-10-02
337,CDISCPILOT01,PP,01-701-1341,1,AUCALL,AUC All,XANOMELINE,18.90316211070262,h*ug/ml,18.90316211070262,18.90316211070262,h*ug/ml,PLASMA,2013-01-05
338,CDISCPILOT01,PP,01-701-1341,2,AUCALL,AUC All,XANOMELINE,18.90316211070262,h*ug/ml,18.90316211070262,18.90316211070262,h*ug/ml,PLASMA,2013-01-05
339,CDISCPILOT01,PP,01-701-1341,3,AUCALL,AUC All,XANOMELINE,18.90316211070262,h*ug/ml,18.90316211070262,18.90316211070262,h*ug/ml,PLASMA,2013-01-05
340,CDISCPILOT01,PP,01-701-1341,4,AUCALL,AUC All,XANOMELINE,18.90316211070262,h*ug/ml,18.90316211070262,18.90316211070262,h*ug/ml,PLASMA,2013-01-05
341,CDISCPILOT01,PP,01-701-1341,5,AUCLST,AUC to Last Nonzero Conc,XANOMELINE,18.860477665488215,h*ug/ml,18.860477665488215,18.860477665488215,h*ug/ml,PLASMA,2013-01-05
342,CDISCPILOT01,PP,01-701-1341,6,CLST,Last Nonzero Conc,XANOMELINE,0.013175488076347311,ug/ml,0.013175488076347311,0.013175488076347311,ug/ml,PLASMA,2013-01-05
343,CDISCPILOT01,PP,01-701-1341,7,CLST,Last Nonzero Conc,XANOMELINE,0.013175488076347311,ug/ml,0.013175488076347311,0.013175488076347311,ug/ml,PLASMA,2013-01-05
344,CDISCPILOT01,PP,01-701-1341,8,CLST,Last Nonzero Conc,XANOMELINE,0.013175488076347311,ug/ml,0.013175488076347311,0.013175488076347311,ug/ml,PLASMA,2013-01-05
345,CDISCPILOT01,PP,01-701-1341,9,CLST,Last Nonzero Conc,XANOMELINE,0.013175488076347311,ug/ml,0.013175488076347311,0.013175488076347311,ug/ml,PLASMA,2013-01-05
346,CDISCPILOT01,PP,01-701-1341,10,CMAX,Max Conc,XANOMELINE,1.8379962513527335,ug/ml,1.8379962513527335,1.8379962513527335,ug/ml,PLASMA,2013-01-05
347,CDISCPILOT01,PP,01-701-1341,11,LAMZ,Lambda z,XANOMELINE,0.308671882934559,/h,0.308671882934559,0.308671882934559,/h,PLASMA,2013-01-05
348,CDISCPILOT01,PP,01-701-1341,12,LAMZHL,Half-Life Lambda z,XANOMELINE,2.2451024479833226,h,2.2451024479833226,2.2451024479833226,h,PLASMA,2013-01-05
349,CDISCPILOT01,PP,01-701-1341,13,LAMZNPT,Number of Points for Lambda z,XANOMELINE,4,U,4,4,U,PLASMA,2013-01-05
350,CDISCPILOT01,PP,01-701-1341,14,RCAMINT,Ae,XANOMELINE,61.232812350629075,mg,61.232812350629075,61.232812350629075,mg,URINE,2013-01-05
351,CDISCPILOT01,PP,01-701-1341,15,RENALCL,CLR,XANOMELINE,54.11034071411293,mL/min,54.11034071411293,54.11034071411293,mL/min,URINE,2013-01-05
352,CDISCPILOT01,PP,01-701-1341,16,TMAX,Time of CMAX,XANOMELINE,8,h,8,8,h,PLASMA,2013-01-05
353,CDISCPILOT01,PP,01-701-1360,1,AUCALL,AUC All,XANOMELINE,18.575564013600523,h*ug/ml,18.575564013600523,18.575564013600523,h*ug/ml,PLASMA,2013-07-31
354,CDISCPILOT01,PP,01-701-1360,2,AUCALL,AUC All,XANOMELINE,18.575564013600523,h*ug/ml,18.575564013600523,18.575564013600523,h*ug/ml,PLASMA,2013-07-31
355,CDISCPILOT01,PP,01-701-1360,3,AUCALL,AUC All,XANOMELINE,18.575564013600523,h*ug/ml,18.575564013600523,18.575564013600523,h*ug/ml,PLASMA,2013-07-31
356,CDISCPILOT01,PP,01-701-1360,4,AUCALL,AUC All,XANOMELINE,18.575564013600523,h*ug/ml,18.575564013600523,18.575564013600523,h*ug/ml,PLASMA,2013-07-31
357,CDISCPILOT01,PP,01-701-1360,5,AUCLST,AUC to Last Nonzero Conc,XANOMELINE,18.522796966153376,h*ug/ml,18.522796966153376,18.522796966153376,h*ug/ml,PLASMA,2013-07-31
358,CDISCPILOT01,PP,01-701-1360,6,CLST,Last Nonzero Conc,XANOMELINE,0.01564143715960991,ug/ml,0.01564143715960991,0.01564143715960991,ug/ml,PLASMA,2013-07-31
359,CDISCPILOT01,PP,01-701-1360,7,CLST,Last Nonzero Conc,XANOMELINE,0.01564143715960991,ug/ml,0.01564143715960991,0.01564143715960991,ug/ml,PLASMA,2013-07-31
360,CDISCPILOT01,PP,01-701-1360,8,CLST,Last Nonzero Conc,XANOMELINE,0.01564143715960991,ug/ml,0.01564143715960991,0.01564143715960991,ug/ml,PLASMA,2013-07-31
361,CDISCPILOT01,PP,01-701-1360,9,CLST,Last Nonzero Conc,XANOMELINE,0.01564143715960991,ug/ml,0.01564143715960991,0.01564143715960991,ug/ml,PLASMA,2013-07-31
362,CDISCPILOT01,PP,01-701-1360,10,CMAX,Max Conc,XANOMELINE,1.7933936075249743,ug/ml,1.7933936075249743,1.7933936075249743,ug/ml,PLASMA,2013-07-31
363,CDISCPILOT01,PP,01-701-1360,11,LAMZ,Lambda z,XANOMELINE,0.296424338983091,/h,0.296424338983091,0.296424338983091,/h,PLASMA,2013-07-31
364,CDISCPILOT01,PP,01-701-1360,12,LAMZHL,Half-Life Lambda z,XANOMELINE,2.3378647056358313,h,2.3378647056358313,2.3378647056358313,h,PLASMA,2013-07-31
365,CDISCPILOT01,PP,01-701-1360,13,LAMZNPT,Number of Points for Lambda z,XANOMELINE,4,U,4,4,U,PLASMA,2013-07-31
366,CDISCPILOT01,PP,01-701-1360,14,RCAMINT,Ae,XANOMELINE,66.16177885086447,mg,66.16177885086447,66.16177885086447,mg,URINE,2013-07-31
367,CDISCPILOT01,PP,01-701-1360,15,RENALCL,CLR,XANOMELINE,59.53184695572847,mL/min,59.53184695572847,59.53184695572847,mL/min,URINE,2013-07-31
368,CDISCPILOT01,PP,01-701-1360,16,TMAX,Time of CMAX,XANOMELINE,8,h,8,8,h,PLASMA,2013-07-31
369,CDISCPILOT01,PP,01-701-1383,1,AUCALL,AUC All,XANOMELINE,19.373121304647697,h*ug/ml,19.373121304647697,19.373121304647697,h*ug/ml,PLASMA,2013-02-04
370,CDISCPILOT01,PP,01-701-1383,2,AUCALL,AUC All,XANOMELINE,19.373121304647697,h*ug/ml,19.373121304647697,19.373121304647697,h*ug/ml,PLASMA,2013-02-04
371,CDISCPILOT01,PP,01-701-1383,3,AUCALL,AUC All,XANOMELINE,19.373121304647697,h*ug/ml,19.373121304647697,19.373121304647697,h*ug/ml,PLASMA,2013-02-04
372,CDISCPILOT01,PP,01-701-1383,4,AUCALL,AUC All,XANOMELINE,19.373121304647697,h*ug/ml,19.373121304647697,19.373121304647697,h*ug/ml,PLASMA,2013-02-04
373,CDISCPILOT01,PP,01-701-1383,5,AUCLST,AUC to Last Nonzero Conc,XANOMELINE,19.305951614534017,h*ug/ml,19.305951614534017,19.305951614534017,h*ug/ml,PLASMA,2013-02-04
374,CDISCPILOT01,PP,01-701-1383,6,CLST,Last Nonzero Conc,XANOMELINE,0.019199214805777763,ug/ml,0.019199214805777763,0.019199214805777763,ug/ml,PLASMA,2013-02-04
375,CDISCPILOT01,PP,01-701-1383,7,CLST,Last Nonzero Conc,XANOMELINE,0.019199214805777763,ug/ml,0.019199214805777763,0.019199214805777763,ug/ml,PLASMA,2013-02-04
376,CDISCPILOT01,PP,01-701-1383,8,CLST,Last Nonzero Conc,XANOMELINE,0.019199214805777763,ug/ml,0.019199214805777763,0.019199214805777763,ug/ml,PLASMA,2013-02-04
377,CDISCPILOT01,PP,01-701-1383,9,CLST,Last Nonzero Conc,XANOMELINE,0.019199214805777763,ug/ml,0.019199214805777763,0.019199214805777763,ug/ml,PLASMA,2013-02-04
378,CDISCPILOT01,PP,01-701-1383,10,CMAX,Max Conc,XANOMELINE,1.8577907759140433,ug/ml,1.8577907759140433,1.8577907759140433,ug/ml,PLASMA,2013-02-04
379,CDISCPILOT01,PP,01-701-1383,11,LAMZ,Lambda z,XANOMELINE,0.2858315227193223,/h,0.2858315227193223,0.2858315227193223,/h,PLASMA,2013-02-04
380,CDISCPILOT01,PP,01-701-1383,12,LAMZHL,Half-Life Lambda z,XANOMELINE,2.424505153969685,h,2.424505153969685,2.424505153969685,h,PLASMA,2013-02-04
381,CDISCPILOT01,PP,01-701-1383,13,LAMZNPT,Number of Points for Lambda z,XANOMELINE,4,U,4,4,U,PLASMA,2013-02-04
382,CDISCPILOT01,PP,01-701-1383,14,RCAMINT,Ae,XANOMELINE,71.83725189735873,mg,71.83725189735873,71.83725189735873,mg,URINE,2013-02-04
383,CDISCPILOT01,PP,01-701-1383,15,RENALCL,CLR,XANOMELINE,62.01649913601237,mL/min,62.01649913601237,62.01649913601237,mL/min,URINE,2013-02-04
384,CDISCPILOT01,PP,01-701-1383,16,TMAX,Time of CMAX,XANOMELINE,8,h,8,8,h,PLASMA,2013-02-04
385,CDISCPILOT01,PP,01-701-1429,1,AUCALL,AUC All,XANOMELINE,19.47476651271747,h*ug/ml,19.47476651271747,19.47476651271747,h*ug/ml,PLASMA,2013-03-19
386,CDISCPILOT01,PP,01-701-1429,2,AUCALL,AUC All,XANOMELINE,19.47476651271747,h*ug/ml,19.47476651271747,19.47476651271747,h*ug/ml,PLASMA,2013-03-19
387,CDISCPILOT01,PP,01-701-1429,3,AUCALL,AUC All,XANOMELINE,19.47476651271747,h*ug/ml,19.47476651271747,19.47476651271747,h*ug/ml,PLASMA,2013-03-19
388,CDISCPILOT01,PP,01-701-1429,4,AUCALL,AUC All,XANOMELINE,19.47476651271747,h*ug/ml,19.47476651271747,19.47476651271747,h*ug/ml,PLASMA,2013-03-19
389,CDISCPILOT01,PP,01-701-1429,5,AUCLST,AUC to Last Nonzero Conc,XANOMELINE,19.433472333735097,h*ug/ml,19.433472333735097,19.433472333735097,h*ug/ml,PLASMA,2013-03-19
390,CDISCPILOT01,PP,01-701-1429,6,CLST,Last Nonzero Conc,XANOMELINE,0.01288531060898573,ug/ml,0.01288531060898573,0.01288531060898573,ug/ml,PLASMA,2013-03-19
391,CDISCPILOT01,PP,01-701-1429,7,CLST,Last Nonzero Conc,XANOMELINE,0.01288531060898573,ug/ml,0.01288531060898573,0.01288531060898573,ug/ml,PLASMA,2013-03-19
392,CDISCPILOT01,PP,01-701-1429,8,CLST,Last Nonzero Conc,XANOMELINE,0.01288531060898573,ug/ml,0.01288531060898573,0.01288531060898573,ug/ml,PLASMA,2013-03-19
393,CDISCPILOT01,PP,01-701-1429,9,CLST,Last Nonzero Conc,XANOMELINE,0.01288531060898573,ug/ml,0.01288531060898573,0.01288531060898573,ug/ml,PLASMA,2013-03-19
394,CDISCPILOT01,PP,01-701-1429,10,CMAX,Max Conc,XANOMELINE,1.8970269146218917,ug/ml,1.8970269146218917,1.8970269146218917,ug/ml,PLASMA,2013-03-19
395,CDISCPILOT01,PP,01-701-1429,11,LAMZ,Lambda z,XANOMELINE,0.3120369729226407,/h,0.3120369729226407,0.3120369729226407,/h,PLASMA,2013-03-19
396,CDISCPILOT01,PP,01-701-1429,12,LAMZHL,Half-Life Lambda z,XANOMELINE,2.2208906640425794,h,2.2208906640425794,2.2208906640425794,h,PLASMA,2013-03-19
397,CDISCPILOT01,PP,01-701-1429,13,LAMZNPT,Number of Points for Lambda z,XANOMELINE,4,U,4,4,U,PLASMA,2013-03-19
398,CDISCPILOT01,PP,01-701-1429,14,RCAMINT,Ae,XANOMELINE,59.929260318225516,mg,59.929260318225516,59.929260318225516,mg,URINE,2013-03-19
399,CDISCPILOT01,PP,01-701-1429,15,RENALCL,CLR,XANOMELINE,51.39693967968235,mL/min,51.39693967968235,51.39693967968235,mL/min,URINE,2013-03-19
400,CDISCPILOT01,PP,01-701-1429,16,TMAX,Time of CMAX,XANOMELINE,8,h,8,8,h,PLASMA,2013-03-19
401,CDISCPILOT01,PP,01-701-1442,1,AUCALL,AUC All,XANOMELINE,18.755212489578543,h*ug/ml,18.755212489578543,18.755212489578543,h*ug/ml,PLASMA,2013-10-26
402,CDISCPILOT01,PP,01-701-1442,2,AUCALL,AUC All,XANOMELINE,18.755212489578543,h*ug/ml,18.755212489578543,18.755212489578543,h*ug/ml,PLASMA,2013-10-26
403,CDISCPILOT01,PP,01-701-1442,3,AUCALL,AUC All,XANOMELINE,18.755212489578543,h*ug/ml,18.755212489578543,18.755212489578543,h*ug/ml,PLASMA,2013-10-26
404,CDISCPILOT01,PP,01-701-1442,4,AUCALL,AUC All,XANOMELINE,18.755212489578543,h*ug/ml,18.755212489578543,18.755212489578543,h*ug/ml,PLASMA,2013-10-26
405,CDISCPILOT01,PP,01-701-1442,5,AUCLST,AUC to Last Nonzero Conc,XANOMELINE,18.721223053647165,h*ug/ml,18.721223053647165,18.721223053647165,h*ug/ml,PLASMA,2013-10-26
406,CDISCPILOT01,PP,01-701-1442,6,CLST,Last Nonzero Conc,XANOMELINE,0.010892019867699504,ug/ml,0.010892019867699504,0.010892019867699504,ug/ml,PLASMA,2013-10-26
407,CDISCPILOT01,PP,01-701-1442,7,CLST,Last Nonzero Conc,XANOMELINE,0.010892019867699504,ug/ml,0.010892019867699504,0.010892019867699504,ug/ml,PLASMA,2013-10-26
408,CDISCPILOT01,PP,01-701-1442,8,CLST,Last Nonzero Conc,XANOMELINE,0.010892019867699504,ug/ml,0.010892019867699504,0.010892019867699504,ug/ml,PLASMA,2013-10-26
409,CDISCPILOT01,PP,01-701-1442,9,CLST,Last Nonzero Conc,XANOMELINE,0.010892019867699504,ug/ml,0.010892019867699504,0.010892019867699504,ug/ml,PLASMA,2013-10-26
410,CDISCPILOT01,PP,01-701-1442,10,CMAX,Max Conc,XANOMELINE,1.8348808448672977,ug/ml,1.8348808448672977,1.8348808448672977,ug/ml,PLASMA,2013-10-26
411,CDISCPILOT01,PP,01-701-1442,11,LAMZ,Lambda z,XANOMELINE,0.3204530928283023,/h,0.3204530928283023,0.3204530928283023,/h,PLASMA,2013-10-26
412,CDISCPILOT01,PP,01-701-1442,12,LAMZHL,Half-Life Lambda z,XANOMELINE,2.1625629944264793,h,2.1625629944264793,2.1625629944264793,h,PLASMA,2013-10-26
413,CDISCPILOT01,PP,01-701-1442,13,LAMZNPT,Number of Points for Lambda z,XANOMELINE,4,U,4,4,U,PLASMA,2013-10-26
414,CDISCPILOT01,PP,01-701-1442,14,RCAMINT,Ae,XANOMELINE,56.75781773038846,mg,56.75781773038846,56.75781773038846,mg,URINE,2013-10-26
415,CDISCPILOT01,PP,01-701-1442,15,RENALCL,CLR,XANOMELINE,50.528943869162454,mL/min,50.528943869162454,50.528943869162454,mL/min,URINE,2013-10-26
416,CDISCPILOT01,PP,01-701-1442,16,TMAX,Time of CMAX,XANOMELINE,8,h,8,8,h,PLASMA,2013-10-26
417,CDISCPILOT01,PP,01-701-1444,1,AUCALL,AUC All,XANOMELINE,18.269157572534628,h*ug/ml,18.269157572534628,18.269157572534628,h*ug/ml,PLASMA,2013-01-05
418,CDISCPILOT01,PP,01-701-1444,2,AUCALL,AUC All,XANOMELINE,18.269157572534628,h*ug/ml,18.269157572534628,18.269157572534628,h*ug/ml,PLASMA,2013-01-05
419,CDISCPILOT01,PP,01-701-1444,3,AUCALL,AUC All,XANOMELINE,18.269157572534628,h*ug/ml,18.269157572534628,18.269157572534628,h*ug/ml,PLASMA,2013-01-05
420,CDISCPILOT01,PP,01-701-1444,4,AUCALL,AUC All,XANOMELINE,18.269157572534628,h*ug/ml,18.269157572534628,18.269157572534628,h*ug/ml,PLASMA,2013-01-05
421,CDISCPILOT01,PP,01-701-1444,5,AUCLST,AUC to Last Nonzero Conc,XANOMELINE,18.225350134220054,h*ug/ml,18.225350134220054,18.225350134220054,h*ug/ml,PLASMA,2013-01-05
422,CDISCPILOT01,PP,01-701-1444,6,CLST,Last Nonzero Conc,XANOMELINE,0.01338146738298554,ug/ml,0.01338146738298554,0.01338146738298554,ug/ml,PLASMA,2013-01-05
423,CDISCPILOT01,PP,01-701-1444,7,CLST,Last Nonzero Conc,XANOMELINE,0.01338146738298554,ug/ml,0.01338146738298554,0.01338146738298554,ug/ml,PLASMA,2013-01-05
424,CDISCPILOT01,PP,01-701-1444,8,CLST,Last Nonzero Conc,XANOMELINE,0.01338146738298554,ug/ml,0.01338146738298554,0.01338146738298554,ug/ml,PLASMA,2013-01-05
425,CDISCPILOT01,PP,01-701-1444,9,CLST,Last Nonzero Conc,XANOMELINE,0.01338146738298554,ug/ml,0.01338146738298554,0.01338146738298554,ug/ml,PLASMA,2013-01-05
426,CDISCPILOT01,PP,01-701-1444,10,CMAX,Max Conc,XANOMELINE,1.7731799359612974,ug/ml,1.7731799359612974,1.7731799359612974,ug/ml,PLASMA,2013-01-05
427,CDISCPILOT01,PP,01-701-1444,11,LAMZ,Lambda z,XANOMELINE,0.3054610791641339,/h,0.3054610791641339,0.3054610791641339,/h,PLASMA,2013-01-05
428,CDISCPILOT01,PP,01-701-1444,12,LAMZHL,Half-Life Lambda z,XANOMELINE,2.2687014722017307,h,2.2687014722017307,2.2687014722017307,h,PLASMA,2013-01-05
429,CDISCPILOT01,PP,01-701-1444,13,LAMZNPT,Number of Points for Lambda z,XANOMELINE,4,U,4,4,U,PLASMA,2013-01-05
430,CDISCPILOT01,PP,01-701-1444,14,RCAMINT,Ae,XANOMELINE,62.49639538721854,mg,62.49639538721854,62.49639538721854,mg,URINE,2013-01-05
431,CDISCPILOT01,PP,01-701-1444,15,RENALCL,CLR,XANOMELINE,57.15152697293026,mL/min,57.15152697293026,57.15152697293026,mL/min,URINE,2013-01-05
432,CDISCPILOT01,PP,01-701-1444,16,TMAX,Time of CMAX,XANOMELINE,8,h,8,8,h,PLASMA,2013-01-05
433,CDISCPILOT01,PP,01-702-1082,1,AUCALL,AUC All,XANOMELINE,19.61276169689817,h*ug/ml,19.61276169689817,19.61276169689817,h*ug/ml,PLASMA,2013-07-26
434,CDISCPILOT01,PP,01-702-1082,2,AUCALL,AUC All,XANOMELINE,19.61276169689817,h*ug/ml,19.61276169689817,19.61276169689817,h*ug/ml,PLASMA,2013-07-26
435,CDISCPILOT01,PP,01-702-1082,3,AUCALL,AUC All,XANOMELINE,19.61276169689817,h*ug/ml,19.61276169689817,19.61276169689817,h*ug/ml,PLASMA,2013-07-26
436,CDISCPILOT01,PP,01-702-1082,4,AUCALL,AUC All,XANOMELINE,19.61276169689817,h*ug/ml,19.61276169689817,19.61276169689817,h*ug/ml,PLASMA,2013-07-26
437,CDISCPILOT01,PP,01-702-1082,5,AUCLST,AUC to Last Nonzero Conc,XANOMELINE,19.563779320595817,h*ug/ml,19.563779320595817,19.563779320595817,h*ug/ml,PLASMA,2013-07-26
438,CDISCPILOT01,PP,01-702-1082,6,CLST,Last Nonzero Conc,XANOMELINE,0.014855794304009141,ug/ml,0.014855794304009141,0.014855794304009141,ug/ml,PLASMA,2013-07-26
439,CDISCPILOT01,PP,01-702-1082,7,CLST,Last Nonzero Conc,XANOMELINE,0.014855794304009141,ug/ml,0.014855794304009141,0.014855794304009141,ug/ml,PLASMA,2013-07-26
440,CDISCPILOT01,PP,01-702-1082,8,CLST,Last Nonzero Conc,XANOMELINE,0.014855794304009141,ug/ml,0.014855794304009141,0.014855794304009141,ug/ml,PLASMA,2013-07-26
441,CDISCPILOT01,PP,01-702-1082,9,CLST,Last Nonzero Conc,XANOMELINE,0.014855794304009141,ug/ml,0.014855794304009141,0.014855794304009141,ug/ml,PLASMA,2013-07-26
442,CDISCPILOT01,PP,01-702-1082,10,CMAX,Max Conc,XANOMELINE,1.90123591190528,ug/ml,1.90123591190528,1.90123591190528,ug/ml,PLASMA,2013-07-26
443,CDISCPILOT01,PP,01-702-1082,11,LAMZ,Lambda z,XANOMELINE,0.30328855856869297,/h,0.30328855856869297,0.30328855856869297,/h,PLASMA,2013-07-26
444,CDISCPILOT01,PP,01-702-1082,12,LAMZHL,Half-Life Lambda z,XANOMELINE,2.2849526644541713,h,2.2849526644541713,2.2849526644541713,h,PLASMA,2013-07-26
445,CDISCPILOT01,PP,01-702-1082,13,LAMZNPT,Number of Points for Lambda z,XANOMELINE,4,U,4,4,U,PLASMA,2013-07-26
446,CDISCPILOT01,PP,01-702-1082,14,RCAMINT,Ae,XANOMELINE,63.36264349793062,mg,63.36264349793062,63.36264349793062,mg,URINE,2013-07-26
447,CDISCPILOT01,PP,01-702-1082,15,RENALCL,CLR,XANOMELINE,53.97955277419689,mL/min,53.97955277419689,53.97955277419689,mL/min,URINE,2013-07-26
448,CDISCPILOT01,PP,01-702-1082,16,TMAX,Time of CMAX,XANOMELINE,8,h,8,8,h,PLASMA,2013-07-26
449,CDISCPILOT01,PP,01-703-1076,1,AUCALL,AUC All,XANOMELINE,19.050725570247568,h*ug/ml,19.050725570247568,19.050725570247568,h*ug/ml,PLASMA,2013-10-25
450,CDISCPILOT01,PP,01-703-1076,2,AUCALL,AUC All,XANOMELINE,19.050725570247568,h*ug/ml,19.050725570247568,19.050725570247568,h*ug/ml,PLASMA,2013-10-25
451,CDISCPILOT01,PP,01-703-1076,3,AUCALL,AUC All,XANOMELINE,19.050725570247568,h*ug/ml,19.050725570247568,19.050725570247568,h*ug/ml,PLASMA,2013-10-25
452,CDISCPILOT01,PP,01-703-1076,4,AUCALL,AUC All,XANOMELINE,19.050725570247568,h*ug/ml,19.050725570247568,19.050725570247568,h*ug/ml,PLASMA,2013-10-25
453,CDISCPILOT01,PP,01-703-1076,5,AUCLST,AUC to Last Nonzero Conc,XANOMELINE,18.996306698845135,h*ug/ml,18.996306698845135,18.996306698845135,h*ug/ml,PLASMA,2013-10-25
454,CDISCPILOT01,PP,01-703-1076,6,CLST,Last Nonzero Conc,XANOMELINE,0.016114950489745022,ug/ml,0.016114950489745022,0.016114950489745022,ug/ml,PLASMA,2013-10-25
455,CDISCPILOT01,PP,01-703-1076,7,CLST,Last Nonzero Conc,XANOMELINE,0.016114950489745022,ug/ml,0.016114950489745022,0.016114950489745022,ug/ml,PLASMA,2013-10-25
456,CDISCPILOT01,PP,01-703-1076,8,CLST,Last Nonzero Conc,XANOMELINE,0.016114950489745022,ug/ml,0.016114950489745022,0.016114950489745022,ug/ml,PLASMA,2013-10-25
457,CDISCPILOT01,PP,01-703-1076,9,CLST,Last Nonzero Conc,XANOMELINE,0.016114950489745022,ug/ml,0.016114950489745022,0.016114950489745022,ug/ml,PLASMA,2013-10-25
458,CDISCPILOT01,PP,01-703-1076,10,CMAX,Max Conc,XANOMELINE,1.838936005704243,ug/ml,1.838936005704243,1.838936005704243,ug/ml,PLASMA,2013-10-25
459,CDISCPILOT01,PP,01-703-1076,11,LAMZ,Lambda z,XANOMELINE,0.29612798050465655,/h,0.29612798050465655,0.29612798050465655,/h,PLASMA,2013-10-25
460,CDISCPILOT01,PP,01-703-1076,12,LAMZHL,Half-Life Lambda z,XANOMELINE,2.3402043900714835,h,2.3402043900714835,2.3402043900714835,h,PLASMA,2013-10-25
461,CDISCPILOT01,PP,01-703-1076,13,LAMZNPT,Number of Points for Lambda z,XANOMELINE,4,U,4,4,U,PLASMA,2013-10-25
462,CDISCPILOT01,PP,01-703-1076,14,RCAMINT,Ae,XANOMELINE,66.28482122455279,mg,66.28482122455279,66.28482122455279,mg,URINE,2013-10-25
463,CDISCPILOT01,PP,01-703-1076,15,RENALCL,CLR,XANOMELINE,58.15588461078991,mL/min,58.15588461078991,58.15588461078991,mL/min,URINE,2013-10-25
464,CDISCPILOT01,PP,01-703-1076,16,TMAX,Time of CMAX,XANOMELINE,8,h,8,8,h,PLASMA,2013-10-25
465,CDISCPILOT01,PP,01-703-1086,1,AUCALL,AUC All,XANOMELINE,18.626466679704805,h*ug/ml,18.626466679704805,18.626466679704805,h*ug/ml,PLASMA,2012-09-02
466,CDISCPILOT01,PP,01-703-1086,2,AUCALL,AUC All,XANOMELINE,18.626466679704805,h*ug/ml,18.626466679704805,18.626466679704805,h*ug/ml,PLASMA,2012-09-02
467,CDISCPILOT01,PP,01-703-1086,3,AUCALL,AUC All,XANOMELINE,18.626466679704805,h*ug/ml,18.626466679704805,18.626466679704805,h*ug/ml,PLASMA,2012-09-02
468,CDISCPILOT01,PP,01-703-1086,4,AUCALL,AUC All,XANOMELINE,18.626466679704805,h*ug/ml,18.626466679704805,18.626466679704805,h*ug/ml,PLASMA,2012-09-02
469,CDISCPILOT01,PP,01-703-1086,5,AUCLST,AUC to Last Nonzero Conc,XANOMELINE,18.591605355845182,h*ug/ml,18.591605355845182,18.591605355845182,h*ug/ml,PLASMA,2012-09-02
470,CDISCPILOT01,PP,01-703-1086,6,CLST,Last Nonzero Conc,XANOMELINE,0.01111115889533316,ug/ml,0.01111115889533316,0.01111115889533316,ug/ml,PLASMA,2012-09-02
471,CDISCPILOT01,PP,01-703-1086,7,CLST,Last Nonzero Conc,XANOMELINE,0.01111115889533316,ug/ml,0.01111115889533316,0.01111115889533316,ug/ml,PLASMA,2012-09-02
472,CDISCPILOT01,PP,01-703-1086,8,CLST,Last Nonzero Conc,XANOMELINE,0.01111115889533316,ug/ml,0.01111115889533316,0.01111115889533316,ug/ml,PLASMA,2012-09-02
473,CDISCPILOT01,PP,01-703-1086,9,CLST,Last Nonzero Conc,XANOMELINE,0.01111115889533316,ug/ml,0.01111115889533316,0.01111115889533316,ug/ml,PLASMA,2012-09-02
474,CDISCPILOT01,PP,01-703-1086,10,CMAX,Max Conc,XANOMELINE,1.8207060329919147,ug/ml,1.8207060329919147,1.8207060329919147,ug/ml,PLASMA,2012-09-02
475,CDISCPILOT01,PP,01-703-1086,11,LAMZ,Lambda z,XANOMELINE,0.31872452520949524,/h,0.31872452520949524,0.31872452520949524,/h,PLASMA,2012-09-02
476,CDISCPILOT01,PP,01-703-1086,12,LAMZHL,Half-Life Lambda z,XANOMELINE,2.1742914184106046,h,2.1742914184106046,2.1742914184106046,h,PLASMA,2012-09-02
477,CDISCPILOT01,PP,01-703-1086,13,LAMZNPT,Number of Points for Lambda z,XANOMELINE,4,U,4,4,U,PLASMA,2012-09-02
478,CDISCPILOT01,PP,01-703-1086,14,RCAMINT,Ae,XANOMELINE,57.39916240706553,mg,57.39916240706553,57.39916240706553,mg,URINE,2012-09-02
479,CDISCPILOT01,PP,01-703-1086,15,RENALCL,CLR,XANOMELINE,51.45616467615341,mL/min,51.45616467615341,51.45616467615341,mL/min,URINE,2012-09-02
480,CDISCPILOT01,PP,01-703-1086,16,TMAX,Time of CMAX,XANOMELINE,8,h,8,8,h,PLASMA,2012-09-02
481,CDISCPILOT01,PP,01-703-1119,1,AUCALL,AUC All,XANOMELINE,18.679389155285175,h*ug/ml,18.679389155285175,18.679389155285175,h*ug/ml,PLASMA,2013-02-20
482,CDISCPILOT01,PP,01-703-1119,2,AUCALL,AUC All,XANOMELINE,18.679389155285175,h*ug/ml,18.679389155285175,18.679389155285175,h*ug/ml,PLASMA,2013-02-20
483,CDISCPILOT01,PP,01-703-1119,3,AUCALL,AUC All,XANOMELINE,18.679389155285175,h*ug/ml,18.679389155285175,18.679389155285175,h*ug/ml,PLASMA,2013-02-20
484,CDISCPILOT01,PP,01-703-1119,4,AUCALL,AUC All,XANOMELINE,18.679389155285175,h*ug/ml,18.679389155285175,18.679389155285175,h*ug/ml,PLASMA,2013-02-20
485,CDISCPILOT01,PP,01-703-1119,5,AUCLST,AUC to Last Nonzero Conc,XANOMELINE,18.619544807617224,h*ug/ml,18.619544807617224,18.619544807617224,h*ug/ml,PLASMA,2013-02-20
486,CDISCPILOT01,PP,01-703-1119,6,CLST,Last Nonzero Conc,XANOMELINE,0.017356435435496448,ug/ml,0.017356435435496448,0.017356435435496448,ug/ml,PLASMA,2013-02-20
487,CDISCPILOT01,PP,01-703-1119,7,CLST,Last Nonzero Conc,XANOMELINE,0.017356435435496448,ug/ml,0.017356435435496448,0.017356435435496448,ug/ml,PLASMA,2013-02-20
488,CDISCPILOT01,PP,01-703-1119,8,CLST,Last Nonzero Conc,XANOMELINE,0.017356435435496448,ug/ml,0.017356435435496448,0.017356435435496448,ug/ml,PLASMA,2013-02-20
489,CDISCPILOT01,PP,01-703-1119,9,CLST,Last Nonzero Conc,XANOMELINE,0.017356435435496448,ug/ml,0.017356435435496448,0.017356435435496448,ug/ml,PLASMA,2013-02-20
490,CDISCPILOT01,PP,01-703-1119,10,CMAX,Max Conc,XANOMELINE,1.796203210048355,ug/ml,1.796203210048355,1.796203210048355,ug/ml,PLASMA,2013-02-20
491,CDISCPILOT01,PP,01-703-1119,11,LAMZ,Lambda z,XANOMELINE,0.29002631178803634,/h,0.29002631178803634,0.29002631178803634,/h,PLASMA,2013-02-20
492,CDISCPILOT01,PP,01-703-1119,12,LAMZHL,Half-Life Lambda z,XANOMELINE,2.3894383779443915,h,2.3894383779443915,2.3894383779443915,h,PLASMA,2013-02-20
493,CDISCPILOT01,PP,01-703-1119,13,LAMZNPT,Number of Points for Lambda z,XANOMELINE,4,U,4,4,U,PLASMA,2013-02-20
494,CDISCPILOT01,PP,01-703-1119,14,RCAMINT,Ae,XANOMELINE,69.08529058547519,mg,69.08529058547519,69.08529058547519,mg,URINE,2013-02-20
495,CDISCPILOT01,PP,01-703-1119,15,RENALCL,CLR,XANOMELINE,61.83940164245451,mL/min,61.83940164245451,61.83940164245451,mL/min,URINE,2013-02-20
496,CDISCPILOT01,PP,01-703-1119,16,TMAX,Time of CMAX,XANOMELINE,8,h,8,8,h,PLASMA,2013-02-20
497,CDISCPILOT01,PP,01-703-1182,1,AUCALL,AUC All,XANOMELINE,18.136344468434523,h*ug/ml,18.136344468434523,18.136344468434523,h*ug/ml,PLASMA,2013-10-17
498,CDISCPILOT01,PP,01-703-1182,2,AUCALL,AUC All,XANOMELINE,18.136344468434523,h*ug/ml,18.136344468434523,18.136344468434523,h*ug/ml,PLASMA,2013-10-17
499,CDISCPILOT01,PP,01-703-1182,3,AUCALL,AUC All,XANOMELINE,18.136344468434523,h*ug/ml,18.136344468434523,18.136344468434523,h*ug/ml,PLASMA,2013-10-17
500,CDISCPILOT01,PP,01-703-1182,4,AUCALL,AUC All,XANOMELINE,18.136344468434523,h*ug/ml,18.136344468434523,18.136344468434523,h*ug/ml,PLASMA,2013-10-17
501,CDISCPILOT01,PP,01-703-1182,5,AUCLST,AUC to Last Nonzero Conc,XANOMELINE,18.09546518875654,h*ug/ml,18.09546518875654,18.09546518875654,h*ug/ml,PLASMA,2013-10-17
502,CDISCPILOT01,PP,01-703-1182,6,CLST,Last Nonzero Conc,XANOMELINE,0.012622218390148283,ug/ml,0.012622218390148283,0.012622218390148283,ug/ml,PLASMA,2013-10-17
503,CDISCPILOT01,PP,01-703-1182,7,CLST,Last Nonzero Conc,XANOMELINE,0.012622218390148283,ug/ml,0.012622218390148283,0.012622218390148283,ug/ml,PLASMA,2013-10-17
504,CDISCPILOT01,PP,01-703-1182,8,CLST,Last Nonzero Conc,XANOMELINE,0.012622218390148283,ug/ml,0.012622218390148283,0.012622218390148283,ug/ml,PLASMA,2013-10-17
505,CDISCPILOT01,PP,01-703-1182,9,CLST,Last Nonzero Conc,XANOMELINE,0.012622218390148283,ug/ml,0.012622218390148283,0.012622218390148283,ug/ml,PLASMA,2013-10-17
506,CDISCPILOT01,PP,01-703-1182,10,CMAX,Max Conc,XANOMELINE,1.7635300020989038,ug/ml,1.7635300020989038,1.7635300020989038,ug/ml,PLASMA,2013-10-17
507,CDISCPILOT01,PP,01-703-1182,11,LAMZ,Lambda z,XANOMELINE,0.30876812139492216,/h,0.30876812139492216,0.30876812139492216,/h,PLASMA,2013-10-17
508,CDISCPILOT01,PP,01-703-1182,12,LAMZHL,Half-Life Lambda z,XANOMELINE,2.2444026827291395,h,2.2444026827291395,2.2444026827291395,h,PLASMA,2013-10-17
509,CDISCPILOT01,PP,01-703-1182,13,LAMZNPT,Number of Points for Lambda z,XANOMELINE,4,U,4,4,U,PLASMA,2013-10-17
510,CDISCPILOT01,PP,01-703-1182,14,RCAMINT,Ae,XANOMELINE,61.195240048790836,mg,61.195240048790836,61.195240048790836,mg,URINE,2013-10-17
511,CDISCPILOT01,PP,01-703-1182,15,RENALCL,CLR,XANOMELINE,56.36332953261496,mL/min,56.36332953261496,56.36332953261496,mL/min,URINE,2013-10-17
512,CDISCPILOT01,PP,01-703-1182,16,TMAX,Time of CMAX,XANOMELINE,8,h,8,8,h,PLASMA,2013-10-17
513,CDISCPILOT01,PP,01-703-1197,1,AUCALL,AUC All,XANOMELINE,19.465830330151647,h*ug/ml,19.465830330151647,19.465830330151647,h*ug/ml,PLASMA,2013-06-16
514,CDISCPILOT01,PP,01-703-1197,2,AUCALL,AUC All,XANOMELINE,19.465830330151647,h*ug/ml,19.465830330151647,19.465830330151647,h*ug/ml,PLASMA,2013-06-16
515,CDISCPILOT01,PP,01-703-1197,3,AUCALL,AUC All,XANOMELINE,19.465830330151647,h*ug/ml,19.465830330151647,19.465830330151647,h*ug/ml,PLASMA,2013-06-16
516,CDISCPILOT01,PP,01-703-1197,4,AUCALL,AUC All,XANOMELINE,19.465830330151647,h*ug/ml,19.465830330151647,19.465830330151647,h*ug/ml,PLASMA,2013-06-16
517,CDISCPILOT01,PP,01-703-1197,5,AUCLST,AUC to Last Nonzero Conc,XANOMELINE,19.419252637241815,h*ug/ml,19.419252637241815,19.419252637241815,h*ug/ml,PLASMA,2013-06-16
518,CDISCPILOT01,PP,01-703-1197,6,CLST,Last Nonzero Conc,XANOMELINE,0.01423296700278386,ug/ml,0.01423296700278386,0.01423296700278386,ug/ml,PLASMA,2013-06-16
519,CDISCPILOT01,PP,01-703-1197,7,CLST,Last Nonzero Conc,XANOMELINE,0.01423296700278386,ug/ml,0.01423296700278386,0.01423296700278386,ug/ml,PLASMA,2013-06-16
520,CDISCPILOT01,PP,01-703-1197,8,CLST,Last Nonzero Conc,XANOMELINE,0.01423296700278386,ug/ml,0.01423296700278386,0.01423296700278386,ug/ml,PLASMA,2013-06-16
521,CDISCPILOT01,PP,01-703-1197,9,CLST,Last Nonzero Conc,XANOMELINE,0.01423296700278386,ug/ml,0.01423296700278386,0.01423296700278386,ug/ml,PLASMA,2013-06-16
522,CDISCPILOT01,PP,01-703-1197,10,CMAX,Max Conc,XANOMELINE,1.8894484561021005,ug/ml,1.8894484561021005,1.8894484561021005,ug/ml,PLASMA,2013-06-16
523,CDISCPILOT01,PP,01-703-1197,11,LAMZ,Lambda z,XANOMELINE,0.3055747529259752,/h,0.3055747529259752,0.3055747529259752,/h,PLASMA,2013-06-16
524,CDISCPILOT01,PP,01-703-1197,12,LAMZHL,Half-Life Lambda z,XANOMELINE,2.2678575155974277,h,2.2678575155974277,2.2678575155974277,h,PLASMA,2013-06-16
525,CDISCPILOT01,PP,01-703-1197,13,LAMZNPT,Number of Points for Lambda z,XANOMELINE,4,U,4,4,U,PLASMA,2013-06-16
526,CDISCPILOT01,PP,01-703-1197,14,RCAMINT,Ae,XANOMELINE,62.45132323042918,mg,62.45132323042918,62.45132323042918,mg,URINE,2013-06-16
527,CDISCPILOT01,PP,01-703-1197,15,RENALCL,CLR,XANOMELINE,53.59914753761894,mL/min,53.59914753761894,53.59914753761894,mL/min,URINE,2013-06-16
528,CDISCPILOT01,PP,01-703-1197,16,TMAX,Time of CMAX,XANOMELINE,8,h,8,8,h,PLASMA,2013-06-16
529,CDISCPILOT01,PP,01-703-1258,1,AUCALL,AUC All,XANOMELINE,18.225127322246973,h*ug/ml,18.225127322246973,18.225127322246973,h*ug/ml,PLASMA,2012-07-20
530,CDISCPILOT01,PP,01-703-1258,2,AUCALL,AUC All,XANOMELINE,18.225127322246973,h*ug/ml,18.225127322246973,18.225127322246973,h*ug/ml,PLASMA,2012-07-20
531,CDISCPILOT01,PP,01-703-1258,3,AUCALL,AUC All,XANOMELINE,18.225127322246973,h*ug/ml,18.225127322246973,18.225127322246973,h*ug/ml,PLASMA,2012-07-20
532,CDISCPILOT01,PP,01-703-1258,4,AUCALL,AUC All,XANOMELINE,18.225127322246973,h*ug/ml,18.225127322246973,18.225127322246973,h*ug/ml,PLASMA,2012-07-20
533,CDISCPILOT01,PP,01-703-1258,5,AUCLST,AUC to Last Nonzero Conc,XANOMELINE,18.189111720701472,h*ug/ml,18.189111720701472,18.189111720701472,h*ug/ml,PLASMA,2012-07-20
534,CDISCPILOT01,PP,01-703-1258,6,CLST,Last Nonzero Conc,XANOMELINE,0.011374093815909462,ug/ml,0.011374093815909462,0.011374093815909462,ug/ml,PLASMA,2012-07-20
535,CDISCPILOT01,PP,01-703-1258,7,CLST,Last Nonzero Conc,XANOMELINE,0.011374093815909462,ug/ml,0.011374093815909462,0.011374093815909462,ug/ml,PLASMA,2012-07-20
536,CDISCPILOT01,PP,01-703-1258,8,CLST,Last Nonzero Conc,XANOMELINE,0.011374093815909462,ug/ml,0.011374093815909462,0.011374093815909462,ug/ml,PLASMA,2012-07-20
537,CDISCPILOT01,PP,01-703-1258,9,CLST,Last Nonzero Conc,XANOMELINE,0.011374093815909462,ug/ml,0.011374093815909462,0.011374093815909462,ug/ml,PLASMA,2012-07-20
538,CDISCPILOT01,PP,01-703-1258,10,CMAX,Max Conc,XANOMELINE,1.7788237195800476,ug/ml,1.7788237195800476,1.7788237195800476,ug/ml,PLASMA,2012-07-20
539,CDISCPILOT01,PP,01-703-1258,11,LAMZ,Lambda z,XANOMELINE,0.31581018580351905,/h,0.31581018580351905,0.31581018580351905,/h,PLASMA,2012-07-20
540,CDISCPILOT01,PP,01-703-1258,12,LAMZHL,Half-Life Lambda z,XANOMELINE,2.1943560757446536,h,2.1943560757446536,2.1943560757446536,h,PLASMA,2012-07-20
541,CDISCPILOT01,PP,01-703-1258,13,LAMZNPT,Number of Points for Lambda z,XANOMELINE,4,U,4,4,U,PLASMA,2012-07-20
542,CDISCPILOT01,PP,01-703-1258,14,RCAMINT,Ae,XANOMELINE,58.49206486766194,mg,58.49206486766194,58.49206486766194,mg,URINE,2012-07-20
543,CDISCPILOT01,PP,01-703-1258,15,RENALCL,CLR,XANOMELINE,53.596226289865754,mL/min,53.596226289865754,53.596226289865754,mL/min,URINE,2012-07-20
544,CDISCPILOT01,PP,01-703-1258,16,TMAX,Time of CMAX,XANOMELINE,8,h,8,8,h,PLASMA,2012-07-20
545,CDISCPILOT01,PP,01-703-1279,1,AUCALL,AUC All,XANOMELINE,19.645944802658185,h*ug/ml,19.645944802658185,19.645944802658185,h*ug/ml,PLASMA,2013-05-13
546,CDISCPILOT01,PP,01-703-1279,2,AUCALL,AUC All,XANOMELINE,19.645944802658185,h*ug/ml,19.645944802658185,19.645944802658185,h*ug/ml,PLASMA,2013-05-13
547,CDISCPILOT01,PP,01-703-1279,3,AUCALL,AUC All,XANOMELINE,19.645944802658185,h*ug/ml,19.645944802658185,19.645944802658185,h*ug/ml,PLASMA,2013-05-13
548,CDISCPILOT01,PP,01-703-1279,4,AUCALL,AUC All,XANOMELINE,19.645944802658185,h*ug/ml,19.645944802658185,19.645944802658185,h*ug/ml,PLASMA,2013-05-13
549,CDISCPILOT01,PP,01-703-1279,5,AUCLST,AUC to Last Nonzero Conc,XANOMELINE,19.605103833898976,h*ug/ml,19.605103833898976,19.605103833898976,h*ug/ml,PLASMA,2013-05-13
550,CDISCPILOT01,PP,01-703-1279,6,CLST,Last Nonzero Conc,XANOMELINE,0.01278715502572745,ug/ml,0.01278715502572745,0.01278715502572745,ug/ml,PLASMA,2013-05-13
551,CDISCPILOT01,PP,01-703-1279,7,CLST,Last Nonzero Conc,XANOMELINE,0.01278715502572745,ug/ml,0.01278715502572745,0.01278715502572745,ug/ml,PLASMA,2013-05-13
552,CDISCPILOT01,PP,01-703-1279,8,CLST,Last Nonzero Conc,XANOMELINE,0.01278715502572745,ug/ml,0.01278715502572745,0.01278715502572745,ug/ml,PLASMA,2013-05-13
553,CDISCPILOT01,PP,01-703-1279,9,CLST,Last Nonzero Conc,XANOMELINE,0.01278715502572745,ug/ml,0.01278715502572745,0.01278715502572745,ug/ml,PLASMA,2013-05-13
554,CDISCPILOT01,PP,01-703-1279,10,CMAX,Max Conc,XANOMELINE,1.9147788552385878,ug/ml,1.9147788552385878,1.9147788552385878,ug/ml,PLASMA,2013-05-13
555,CDISCPILOT01,PP,01-703-1279,11,LAMZ,Lambda z,XANOMELINE,0.3130962710781533,/h,0.3130962710781533,0.3130962710781533,/h,PLASMA,2013-05-13
556,CDISCPILOT01,PP,01-703-1279,12,LAMZHL,Half-Life Lambda z,XANOMELINE,2.2133767279106857,h,2.2133767279106857,2.2133767279106857,h,PLASMA,2013-05-13
557,CDISCPILOT01,PP,01-703-1279,13,LAMZNPT,Number of Points for Lambda z,XANOMELINE,4,U,4,4,U,PLASMA,2013-05-13
558,CDISCPILOT01,PP,01-703-1279,14,RCAMINT,Ae,XANOMELINE,59.52320537098797,mg,59.52320537098797,59.52320537098797,mg,URINE,2013-05-13
559,CDISCPILOT01,PP,01-703-1279,15,RENALCL,CLR,XANOMELINE,50.60179386219065,mL/min,50.60179386219065,50.60179386219065,mL/min,URINE,2013-05-13
560,CDISCPILOT01,PP,01-703-1279,16,TMAX,Time of CMAX,XANOMELINE,8,h,8,8,h,PLASMA,2013-05-13
561,CDISCPILOT01,PP,01-703-1295,1,AUCALL,AUC All,XANOMELINE,18.313069432984566,h*ug/ml,18.313069432984566,18.313069432984566,h*ug/ml,PLASMA,2013-11-21
562,CDISCPILOT01,PP,01-703-1295,2,AUCALL,AUC All,XANOMELINE,18.313069432984566,h*ug/ml,18.313069432984566,18.313069432984566,h*ug/ml,PLASMA,2013-11-21
563,CDISCPILOT01,PP,01-703-1295,3,AUCALL,AUC All,XANOMELINE,18.313069432984566,h*ug/ml,18.313069432984566,18.313069432984566,h*ug/ml,PLASMA,2013-11-21
564,CDISCPILOT01,PP,01-703-1295,4,AUCALL,AUC All,XANOMELINE,18.313069432984566,h*ug/ml,18.313069432984566,18.313069432984566,h*ug/ml,PLASMA,2013-11-21
565,CDISCPILOT01,PP,01-703-1295,5,AUCLST,AUC to Last Nonzero Conc,XANOMELINE,18.277988594110766,h*ug/ml,18.277988594110766,18.277988594110766,h*ug/ml,PLASMA,2013-11-21
566,CDISCPILOT01,PP,01-703-1295,6,CLST,Last Nonzero Conc,XANOMELINE,0.011137390154165316,ug/ml,0.011137390154165316,0.011137390154165316,ug/ml,PLASMA,2013-11-21
567,CDISCPILOT01,PP,01-703-1295,7,CLST,Last Nonzero Conc,XANOMELINE,0.011137390154165316,ug/ml,0.011137390154165316,0.011137390154165316,ug/ml,PLASMA,2013-11-21
568,CDISCPILOT01,PP,01-703-1295,8,CLST,Last Nonzero Conc,XANOMELINE,0.011137390154165316,ug/ml,0.011137390154165316,0.011137390154165316,ug/ml,PLASMA,2013-11-21
569,CDISCPILOT01,PP,01-703-1295,9,CLST,Last Nonzero Conc,XANOMELINE,0.011137390154165316,ug/ml,0.011137390154165316,0.011137390154165316,ug/ml,PLASMA,2013-11-21
570,CDISCPILOT01,PP,01-703-1295,10,CMAX,Max Conc,XANOMELINE,1.7889393544511378,ug/ml,1.7889393544511378,1.7889393544511378,ug/ml,PLASMA,2013-11-21
571,CDISCPILOT01,PP,01-703-1295,11,LAMZ,Lambda z,XANOMELINE,0.3174778742957262,/h,0.3174778742957262,0.3174778742957262,/h,PLASMA,2013-11-21
572,CDISCPILOT01,PP,01-703-1295,12,LAMZHL,Half-Life Lambda z,XANOMELINE,2.1828292807406164,h,2.1828292807406164,2.1828292807406164,h,PLASMA,2013-11-21
573,CDISCPILOT01,PP,01-703-1295,13,LAMZNPT,Number of Points for Lambda z,XANOMELINE,4,U,4,4,U,PLASMA,2013-11-21
574,CDISCPILOT01,PP,01-703-1295,14,RCAMINT,Ae,XANOMELINE,57.864867968788246,mg,57.864867968788246,57.864867968788246,mg,URINE,2013-11-21
575,CDISCPILOT01,PP,01-703-1295,15,RENALCL,CLR,XANOMELINE,52.76370871886902,mL/min,52.76370871886902,52.76370871886902,mL/min,URINE,2013-11-21
576,CDISCPILOT01,PP,01-703-1295,16,TMAX,Time of CMAX,XANOMELINE,8,h,8,8,h,PLASMA,2013-11-21
577,CDISCPILOT01,PP,01-703-1335,1,AUCALL,AUC All,XANOMELINE,18.206082226494495,h*ug/ml,18.206082226494495,18.206082226494495,h*ug/ml,PLASMA,2014-03-17
578,CDISCPILOT01,PP,01-703-1335,2,AUCALL,AUC All,XANOMELINE,18.206082226494495,h*ug/ml,18.206082226494495,18.206082226494495,h*ug/ml,PLASMA,2014-03-17
579,CDISCPILOT01,PP,01-703-1335,3,AUCALL,AUC All,XANOMELINE,18.206082226494495,h*ug/ml,18.206082226494495,18.206082226494495,h*ug/ml,PLASMA,2014-03-17
580,CDISCPILOT01,PP,01-703-1335,4,AUCALL,AUC All,XANOMELINE,18.206082226494495,h*ug/ml,18.206082226494495,18.206082226494495,h*ug/ml,PLASMA,2014-03-17
581,CDISCPILOT01,PP,01-703-1335,5,AUCLST,AUC to Last Nonzero Conc,XANOMELINE,18.15956152271494,h*ug/ml,18.15956152271494,18.15956152271494,h*ug/ml,PLASMA,2014-03-17
582,CDISCPILOT01,PP,01-703-1335,6,CLST,Last Nonzero Conc,XANOMELINE,0.014052445817323471,ug/ml,0.014052445817323471,0.014052445817323471,ug/ml,PLASMA,2014-03-17
583,CDISCPILOT01,PP,01-703-1335,7,CLST,Last Nonzero Conc,XANOMELINE,0.014052445817323471,ug/ml,0.014052445817323471,0.014052445817323471,ug/ml,PLASMA,2014-03-17
584,CDISCPILOT01,PP,01-703-1335,8,CLST,Last Nonzero Conc,XANOMELINE,0.014052445817323471,ug/ml,0.014052445817323471,0.014052445817323471,ug/ml,PLASMA,2014-03-17
585,CDISCPILOT01,PP,01-703-1335,9,CLST,Last Nonzero Conc,XANOMELINE,0.014052445817323471,ug/ml,0.014052445817323471,0.014052445817323471,ug/ml,PLASMA,2014-03-17
586,CDISCPILOT01,PP,01-703-1335,10,CMAX,Max Conc,XANOMELINE,1.7636314536456523,ug/ml,1.7636314536456523,1.7636314536456523,ug/ml,PLASMA,2014-03-17
587,CDISCPILOT01,PP,01-703-1335,11,LAMZ,Lambda z,XANOMELINE,0.3020686420376174,/h,0.3020686420376174,0.3020686420376174,/h,PLASMA,2014-03-17
588,CDISCPILOT01,PP,01-703-1335,12,LAMZHL,Half-Life Lambda z,XANOMELINE,2.2941805389839134,h,2.2941805389839134,2.2941805389839134,h,PLASMA,2014-03-17
589,CDISCPILOT01,PP,01-703-1335,13,LAMZNPT,Number of Points for Lambda z,XANOMELINE,4,U,4,4,U,PLASMA,2014-03-17
590,CDISCPILOT01,PP,01-703-1335,14,RCAMINT,Ae,XANOMELINE,63.853133169927204,mg,63.853133169927204,63.853133169927204,mg,URINE,2014-03-17
591,CDISCPILOT01,PP,01-703-1335,15,RENALCL,CLR,XANOMELINE,58.60377657435572,mL/min,58.60377657435572,58.60377657435572,mL/min,URINE,2014-03-17
592,CDISCPILOT01,PP,01-703-1335,16,TMAX,Time of CMAX,XANOMELINE,8,h,8,8,h,PLASMA,2014-03-17
593,CDISCPILOT01,PP,01-703-1379,1,AUCALL,AUC All,XANOMELINE,19.736192527207443,h*ug/ml,19.736192527207443,19.736192527207443,h*ug/ml,PLASMA,2013-09-22
594,CDISCPILOT01,PP,01-703-1379,2,AUCALL,AUC All,XANOMELINE,19.736192527207443,h*ug/ml,19.736192527207443,19.736192527207443,h*ug/ml,PLASMA,2013-09-22
595,CDISCPILOT01,PP,01-703-1379,3,AUCALL,AUC All,XANOMELINE,19.736192527207443,h*ug/ml,19.736192527207443,19.736192527207443,h*ug/ml,PLASMA,2013-09-22
596,CDISCPILOT01,PP,01-703-1379,4,AUCALL,AUC All,XANOMELINE,19.736192527207443,h*ug/ml,19.736192527207443,19.736192527207443,h*ug/ml,PLASMA,2013-09-22
597,CDISCPILOT01,PP,01-703-1379,5,AUCLST,AUC to Last Nonzero Conc,XANOMELINE,19.66401814777981,h*ug/ml,19.66401814777981,19.66401814777981,h*ug/ml,PLASMA,2013-09-22
598,CDISCPILOT01,PP,01-703-1379,6,CLST,Last Nonzero Conc,XANOMELINE,0.02042574107142068,ug/ml,0.02042574107142068,0.02042574107142068,ug/ml,PLASMA,2013-09-22
599,CDISCPILOT01,PP,01-703-1379,7,CLST,Last Nonzero Conc,XANOMELINE,0.02042574107142068,ug/ml,0.02042574107142068,0.02042574107142068,ug/ml,PLASMA,2013-09-22
600,CDISCPILOT01,PP,01-703-1379,8,CLST,Last Nonzero Conc,XANOMELINE,0.02042574107142068,ug/ml,0.02042574107142068,0.02042574107142068,ug/ml,PLASMA,2013-09-22
601,CDISCPILOT01,PP,01-703-1379,9,CLST,Last Nonzero Conc,XANOMELINE,0.02042574107142068,ug/ml,0.02042574107142068,0.02042574107142068,ug/ml,PLASMA,2013-09-22
602,CDISCPILOT01,PP,01-703-1379,10,CMAX,Max Conc,XANOMELINE,1.8889896085710287,ug/ml,1.8889896085710287,1.8889896085710287,ug/ml,PLASMA,2013-09-22
603,CDISCPILOT01,PP,01-703-1379,11,LAMZ,Lambda z,XANOMELINE,0.2830054270421673,/h,0.2830054270421673,0.2830054270421673,/h,PLASMA,2013-09-22
604,CDISCPILOT01,PP,01-703-1379,12,LAMZHL,Half-Life Lambda z,XANOMELINE,2.4487162922735903,h,2.4487162922735903,2.4487162922735903,h,PLASMA,2013-09-22
605,CDISCPILOT01,PP,01-703-1379,13,LAMZNPT,Number of Points for Lambda z,XANOMELINE,4,U,4,4,U,PLASMA,2013-09-22
606,CDISCPILOT01,PP,01-703-1379,14,RCAMINT,Ae,XANOMELINE,73.7220710511815,mg,73.7220710511815,73.7220710511815,mg,URINE,2013-09-22
607,CDISCPILOT01,PP,01-703-1379,15,RENALCL,CLR,XANOMELINE,62.48474624831886,mL/min,62.48474624831886,62.48474624831886,mL/min,URINE,2013-09-22
608,CDISCPILOT01,PP,01-703-1379,16,TMAX,Time of CMAX,XANOMELINE,8,h,8,8,h,PLASMA,2013-09-22
609,CDISCPILOT01,PP,01-703-1403,1,AUCALL,AUC All,XANOMELINE,18.959707550454148,h*ug/ml,18.959707550454148,18.959707550454148,h*ug/ml,PLASMA,2012-12-12
610,CDISCPILOT01,PP,01-703-1403,2,AUCALL,AUC All,XANOMELINE,18.959707550454148,h*ug/ml,18.959707550454148,18.959707550454148,h*ug/ml,PLASMA,2012-12-12
611,CDISCPILOT01,PP,01-703-1403,3,AUCALL,AUC All,XANOMELINE,18.959707550454148,h*ug/ml,18.959707550454148,18.959707550454148,h*ug/ml,PLASMA,2012-12-12
612,CDISCPILOT01,PP,01-703-1403,4,AUCALL,AUC All,XANOMELINE,18.959707550454148,h*ug/ml,18.959707550454148,18.959707550454148,h*ug/ml,PLASMA,2012-12-12
613,CDISCPILOT01,PP,01-703-1403,5,AUCLST,AUC to Last Nonzero Conc,XANOMELINE,18.91014141168814,h*ug/ml,18.91014141168814,18.91014141168814,h*ug/ml,PLASMA,2012-12-12
614,CDISCPILOT01,PP,01-703-1403,6,CLST,Last Nonzero Conc,XANOMELINE,0.01491196478425602,ug/ml,0.01491196478425602,0.01491196478425602,ug/ml,PLASMA,2012-12-12
615,CDISCPILOT01,PP,01-703-1403,7,CLST,Last Nonzero Conc,XANOMELINE,0.01491196478425602,ug/ml,0.01491196478425602,0.01491196478425602,ug/ml,PLASMA,2012-12-12
616,CDISCPILOT01,PP,01-703-1403,8,CLST,Last Nonzero Conc,XANOMELINE,0.01491196478425602,ug/ml,0.01491196478425602,0.01491196478425602,ug/ml,PLASMA,2012-12-12
617,CDISCPILOT01,PP,01-703-1403,9,CLST,Last Nonzero Conc,XANOMELINE,0.01491196478425602,ug/ml,0.01491196478425602,0.01491196478425602,ug/ml,PLASMA,2012-12-12
618,CDISCPILOT01,PP,01-703-1403,10,CMAX,Max Conc,XANOMELINE,1.8353298837972736,ug/ml,1.8353298837972736,1.8353298837972736,ug/ml,PLASMA,2012-12-12
619,CDISCPILOT01,PP,01-703-1403,11,LAMZ,Lambda z,XANOMELINE,0.30084983731842146,/h,0.30084983731842146,0.30084983731842146,/h,PLASMA,2012-12-12
620,CDISCPILOT01,PP,01-703-1403,12,LAMZHL,Half-Life Lambda z,XANOMELINE,2.3034747373538518,h,2.3034747373538518,2.3034747373538518,h,PLASMA,2012-12-12
621,CDISCPILOT01,PP,01-703-1403,13,LAMZNPT,Number of Points for Lambda z,XANOMELINE,4,U,4,4,U,PLASMA,2012-12-12
622,CDISCPILOT01,PP,01-703-1403,14,RCAMINT,Ae,XANOMELINE,64.34614432744264,mg,64.34614432744264,64.34614432744264,mg,URINE,2012-12-12
623,CDISCPILOT01,PP,01-703-1403,15,RENALCL,CLR,XANOMELINE,56.71220090019267,mL/min,56.71220090019267,56.71220090019267,mL/min,URINE,2012-12-12
624,CDISCPILOT01,PP,01-703-1403,16,TMAX,Time of CMAX,XANOMELINE,8,h,8,8,h,PLASMA,2012-12-12
625,CDISCPILOT01,PP,01-703-1439,1,AUCALL,AUC All,XANOMELINE,19.83542751295654,h*ug/ml,19.83542751295654,19.83542751295654,h*ug/ml,PLASMA,2014-03-12
626,CDISCPILOT01,PP,01-703-1439,2,AUCALL,AUC All,XANOMELINE,19.83542751295654,h*ug/ml,19.83542751295654,19.83542751295654,h*ug/ml,PLASMA,2014-03-12
627,CDISCPILOT01,PP,01-703-1439,3,AUCALL,AUC All,XANOMELINE,19.83542751295654,h*ug/ml,19.83542751295654,19.83542751295654,h*ug/ml,PLASMA,2014-03-12
628,CDISCPILOT01,PP,01-703-1439,4,AUCALL,AUC All,XANOMELINE,19.83542751295654,h*ug/ml,19.83542751295654,19.83542751295654,h*ug/ml,PLASMA,2014-03-12
629,CDISCPILOT01,PP,01-703-1439,5,AUCLST,AUC to Last Nonzero Conc,XANOMELINE,19.768708438591545,h*ug/ml,19.768708438591545,19.768708438591545,h*ug/ml,PLASMA,2014-03-12
630,CDISCPILOT01,PP,01-703-1439,6,CLST,Last Nonzero Conc,XANOMELINE,0.019177747351314854,ug/ml,0.019177747351314854,0.019177747351314854,ug/ml,PLASMA,2014-03-12
631,CDISCPILOT01,PP,01-703-1439,7,CLST,Last Nonzero Conc,XANOMELINE,0.019177747351314854,ug/ml,0.019177747351314854,0.019177747351314854,ug/ml,PLASMA,2014-03-12
632,CDISCPILOT01,PP,01-703-1439,8,CLST,Last Nonzero Conc,XANOMELINE,0.019177747351314854,ug/ml,0.019177747351314854,0.019177747351314854,ug/ml,PLASMA,2014-03-12
633,CDISCPILOT01,PP,01-703-1439,9,CLST,Last Nonzero Conc,XANOMELINE,0.019177747351314854,ug/ml,0.019177747351314854,0.019177747351314854,ug/ml,PLASMA,2014-03-12
634,CDISCPILOT01,PP,01-703-1439,10,CMAX,Max Conc,XANOMELINE,1.9041560842967182,ug/ml,1.9041560842967182,1.9041560842967182,ug/ml,PLASMA,2014-03-12
635,CDISCPILOT01,PP,01-703-1439,11,LAMZ,Lambda z,XANOMELINE,0.2874402490418494,/h,0.2874402490418494,0.2874402490418494,/h,PLASMA,2014-03-12
636,CDISCPILOT01,PP,01-703-1439,12,LAMZHL,Half-Life Lambda z,XANOMELINE,2.4109358460063945,h,2.4109358460063945,2.4109358460063945,h,PLASMA,2014-03-12
637,CDISCPILOT01,PP,01-703-1439,13,LAMZNPT,Number of Points for Lambda z,XANOMELINE,4,U,4,4,U,PLASMA,2014-03-12
638,CDISCPILOT01,PP,01-703-1439,14,RCAMINT,Ae,XANOMELINE,70.7755000786901,mg,70.7755000786901,70.7755000786901,mg,URINE,2014-03-12
639,CDISCPILOT01,PP,01-703-1439,15,RENALCL,CLR,XANOMELINE,59.66963758114945,mL/min,59.66963758114945,59.66963758114945,mL/min,URINE,2014-03-12
640,CDISCPILOT01,PP,01-703-1439,16,TMAX,Time of CMAX,XANOMELINE,8,h,8,8,h,PLASMA,2014-03-12
641,CDISCPILOT01,PP,01-704-1008,1,AUCALL,AUC All,XANOMELINE,19.786644048009194,h*ug/ml,19.786644048009194,19.786644048009194,h*ug/ml,PLASMA,2013-01-13
642,CDISCPILOT01,PP,01-704-1008,2,AUCALL,AUC All,XANOMELINE,19.786644048009194,h*ug/ml,19.786644048009194,19.786644048009194,h*ug/ml,PLASMA,2013-01-13
643,CDISCPILOT01,PP,01-704-1008,3,AUCALL,AUC All,XANOMELINE,19.786644048009194,h*ug/ml,19.786644048009194,19.786644048009194,h*ug/ml,PLASMA,2013-01-13
644,CDISCPILOT01,PP,01-704-1008,4,AUCALL,AUC All,XANOMELINE,19.786644048009194,h*ug/ml,19.786644048009194,19.786644048009194,h*ug/ml,PLASMA,2013-01-13
645,CDISCPILOT01,PP,01-704-1008,5,AUCLST,AUC to Last Nonzero Conc,XANOMELINE,19.75213696457229,h*ug/ml,19.75213696457229,19.75213696457229,h*ug/ml,PLASMA,2013-01-13
646,CDISCPILOT01,PP,01-704-1008,6,CLST,Last Nonzero Conc,XANOMELINE,0.011129078677771156,ug/ml,0.011129078677771156,0.011129078677771156,ug/ml,PLASMA,2013-01-13
647,CDISCPILOT01,PP,01-704-1008,7,CLST,Last Nonzero Conc,XANOMELINE,0.011129078677771156,ug/ml,0.011129078677771156,0.011129078677771156,ug/ml,PLASMA,2013-01-13
648,CDISCPILOT01,PP,01-704-1008,8,CLST,Last Nonzero Conc,XANOMELINE,0.011129078677771156,ug/ml,0.011129078677771156,0.011129078677771156,ug/ml,PLASMA,2013-01-13
649,CDISCPILOT01,PP,01-704-1008,9,CLST,Last Nonzero Conc,XANOMELINE,0.011129078677771156,ug/ml,0.011129078677771156,0.011129078677771156,ug/ml,PLASMA,2013-01-13
650,CDISCPILOT01,PP,01-704-1008,10,CMAX,Max Conc,XANOMELINE,1.9377620212422895,ug/ml,1.9377620212422895,1.9377620212422895,ug/ml,PLASMA,2013-01-13
651,CDISCPILOT01,PP,01-704-1008,11,LAMZ,Lambda z,XANOMELINE,0.32251577268534937,/h,0.32251577268534937,0.32251577268534937,/h,PLASMA,2013-01-13
652,CDISCPILOT01,PP,01-704-1008,12,LAMZHL,Half-Life Lambda z,XANOMELINE,2.148732120075566,h,2.148732120075566,2.148732120075566,h,PLASMA,2013-01-13
653,CDISCPILOT01,PP,01-704-1008,13,LAMZNPT,Number of Points for Lambda z,XANOMELINE,4,U,4,4,U,PLASMA,2013-01-13
654,CDISCPILOT01,PP,01-704-1008,14,RCAMINT,Ae,XANOMELINE,55.99907984662808,mg,55.99907984662808,55.99907984662808,mg,URINE,2013-01-13
655,CDISCPILOT01,PP,01-704-1008,15,RENALCL,CLR,XANOMELINE,47.2514948189056,mL/min,47.2514948189056,47.2514948189056,mL/min,URINE,2013-01-13
656,CDISCPILOT01,PP,01-704-1008,16,TMAX,Time of CMAX,XANOMELINE,8,h,8,8,h,PLASMA,2013-01-13
657,CDISCPILOT01,PP,01-704-1009,1,AUCALL,AUC All,XANOMELINE,19.40898141669726,h*ug/ml,19.40898141669726,19.40898141669726,h*ug/ml,PLASMA,2013-08-27
658,CDISCPILOT01,PP,01-704-1009,2,AUCALL,AUC All,XANOMELINE,19.40898141669726,h*ug/ml,19.40898141669726,19.40898141669726,h*ug/ml,PLASMA,2013-08-27
659,CDISCPILOT01,PP,01-704-1009,3,AUCALL,AUC All,XANOMELINE,19.40898141669726,h*ug/ml,19.40898141669726,19.40898141669726,h*ug/ml,PLASMA,2013-08-27
660,CDISCPILOT01,PP,01-704-1009,4,AUCALL,AUC All,XANOMELINE,19.40898141669726,h*ug/ml,19.40898141669726,19.40898141669726,h*ug/ml,PLASMA,2013-08-27
661,CDISCPILOT01,PP,01-704-1009,5,AUCLST,AUC to Last Nonzero Conc,XANOMELINE,19.373297779813548,h*ug/ml,19.373297779813548,19.373297779813548,h*ug/ml,PLASMA,2013-08-27
662,CDISCPILOT01,PP,01-704-1009,6,CLST,Last Nonzero Conc,XANOMELINE,0.011407399046787198,ug/ml,0.011407399046787198,0.011407399046787198,ug/ml,PLASMA,2013-08-27
663,CDISCPILOT01,PP,01-704-1009,7,CLST,Last Nonzero Conc,XANOMELINE,0.011407399046787198,ug/ml,0.011407399046787198,0.011407399046787198,ug/ml,PLASMA,2013-08-27
664,CDISCPILOT01,PP,01-704-1009,8,CLST,Last Nonzero Conc,XANOMELINE,0.011407399046787198,ug/ml,0.011407399046787198,0.011407399046787198,ug/ml,PLASMA,2013-08-27
665,CDISCPILOT01,PP,01-704-1009,9,CLST,Last Nonzero Conc,XANOMELINE,0.011407399046787198,ug/ml,0.011407399046787198,0.011407399046787198,ug/ml,PLASMA,2013-08-27
666,CDISCPILOT01,PP,01-704-1009,10,CMAX,Max Conc,XANOMELINE,1.8981092636744776,ug/ml,1.8981092636744776,1.8981092636744776,ug/ml,PLASMA,2013-08-27
667,CDISCPILOT01,PP,01-704-1009,11,LAMZ,Lambda z,XANOMELINE,0.31968151351731194,/h,0.31968151351731194,0.31968151351731194,/h,PLASMA,2013-08-27
668,CDISCPILOT01,PP,01-704-1009,12,LAMZHL,Half-Life Lambda z,XANOMELINE,2.167782529478269,h,2.167782529478269,2.167782529478269,h,PLASMA,2013-08-27
669,CDISCPILOT01,PP,01-704-1009,13,LAMZNPT,Number of Points for Lambda z,XANOMELINE,4,U,4,4,U,PLASMA,2013-08-27
670,CDISCPILOT01,PP,01-704-1009,14,RCAMINT,Ae,XANOMELINE,57.0434684002131,mg,57.0434684002131,57.0434684002131,mg,URINE,2013-08-27
671,CDISCPILOT01,PP,01-704-1009,15,RENALCL,CLR,XANOMELINE,49.073961704522716,mL/min,49.073961704522716,49.073961704522716,mL/min,URINE,2013-08-27
672,CDISCPILOT01,PP,01-704-1009,16,TMAX,Time of CMAX,XANOMELINE,8,h,8,8,h,PLASMA,2013-08-27
673,CDISCPILOT01,PP,01-704-1017,1,AUCALL,AUC All,XANOMELINE,20.07727433290676,h*ug/ml,20.07727433290676,20.07727433290676,h*ug/ml,PLASMA,2013-10-06
674,CDISCPILOT01,PP,01-704-1017,2,AUCALL,AUC All,XANOMELINE,20.07727433290676,h*ug/ml,20.07727433290676,20.07727433290676,h*ug/ml,PLASMA,2013-10-06
675,CDISCPILOT01,PP,01-704-1017,3,AUCALL,AUC All,XANOMELINE,20.07727433290676,h*ug/ml,20.07727433290676,20.07727433290676,h*ug/ml,PLASMA,2013-10-06
676,CDISCPILOT01,PP,01-704-1017,4,AUCALL,AUC All,XANOMELINE,20.07727433290676,h*ug/ml,20.07727433290676,20.07727433290676,h*ug/ml,PLASMA,2013-10-06
677,CDISCPILOT01,PP,01-704-1017,5,AUCLST,AUC to Last Nonzero Conc,XANOMELINE,20.005969023281082,h*ug/ml,20.005969023281082,20.005969023281082,h*ug/ml,PLASMA,2013-10-06
678,CDISCPILOT01,PP,01-704-1017,6,CLST,Last Nonzero Conc,XANOMELINE,0.020290357135153095,ug/ml,0.020290357135153095,0.020290357135153095,ug/ml,PLASMA,2013-10-06
679,CDISCPILOT01,PP,01-704-1017,7,CLST,Last Nonzero Conc,XANOMELINE,0.020290357135153095,ug/ml,0.020290357135153095,0.020290357135153095,ug/ml,PLASMA,2013-10-06
680,CDISCPILOT01,PP,01-704-1017,8,CLST,Last Nonzero Conc,XANOMELINE,0.020290357135153095,ug/ml,0.020290357135153095,0.020290357135153095,ug/ml,PLASMA,2013-10-06
681,CDISCPILOT01,PP,01-704-1017,9,CLST,Last Nonzero Conc,XANOMELINE,0.020290357135153095,ug/ml,0.020290357135153095,0.020290357135153095,ug/ml,PLASMA,2013-10-06
682,CDISCPILOT01,PP,01-704-1017,10,CMAX,Max Conc,XANOMELINE,1.923665273568611,ug/ml,1.923665273568611,1.923665273568611,ug/ml,PLASMA,2013-10-06
683,CDISCPILOT01,PP,01-704-1017,11,LAMZ,Lambda z,XANOMELINE,0.28455604837379134,/h,0.28455604837379134,0.28455604837379134,/h,PLASMA,2013-10-06
684,CDISCPILOT01,PP,01-704-1017,12,LAMZHL,Half-Life Lambda z,XANOMELINE,2.4353725881436152,h,2.4353725881436152,2.4353725881436152,h,PLASMA,2013-10-06
685,CDISCPILOT01,PP,01-704-1017,13,LAMZNPT,Number of Points for Lambda z,XANOMELINE,4,U,4,4,U,PLASMA,2013-10-06
686,CDISCPILOT01,PP,01-704-1017,14,RCAMINT,Ae,XANOMELINE,72.68478470188192,mg,72.68478470188192,72.68478470188192,mg,URINE,2013-10-06
687,CDISCPILOT01,PP,01-704-1017,15,RENALCL,CLR,XANOMELINE,60.55258192967155,mL/min,60.55258192967155,60.55258192967155,mL/min,URINE,2013-10-06
688,CDISCPILOT01,PP,01-704-1017,16,TMAX,Time of CMAX,XANOMELINE,8,h,8,8,h,PLASMA,2013-10-06
689,CDISCPILOT01,PP,01-704-1025,1,AUCALL,AUC All,XANOMELINE,19.25847745815121,h*ug/ml,19.25847745815121,19.25847745815121,h*ug/ml,PLASMA,2013-09-27
690,CDISCPILOT01,PP,01-704-1025,2,AUCALL,AUC All,XANOMELINE,19.25847745815121,h*ug/ml,19.25847745815121,19.25847745815121,h*ug/ml,PLASMA,2013-09-27
691,CDISCPILOT01,PP,01-704-1025,3,AUCALL,AUC All,XANOMELINE,19.25847745815121,h*ug/ml,19.25847745815121,19.25847745815121,h*ug/ml,PLASMA,2013-09-27
692,CDISCPILOT01,PP,01-704-1025,4,AUCALL,AUC All,XANOMELINE,19.25847745815121,h*ug/ml,19.25847745815121,19.25847745815121,h*ug/ml,PLASMA,2013-09-27
693,CDISCPILOT01,PP,01-704-1025,5,AUCLST,AUC to Last Nonzero Conc,XANOMELINE,19.201465703291923,h*ug/ml,19.201465703291923,19.201465703291923,h*ug/ml,PLASMA,2013-09-27
694,CDISCPILOT01,PP,01-704-1025,6,CLST,Last Nonzero Conc,XANOMELINE,0.01677444349416369,ug/ml,0.01677444349416369,0.01677444349416369,ug/ml,PLASMA,2013-09-27
695,CDISCPILOT01,PP,01-704-1025,7,CLST,Last Nonzero Conc,XANOMELINE,0.01677444349416369,ug/ml,0.01677444349416369,0.01677444349416369,ug/ml,PLASMA,2013-09-27
696,CDISCPILOT01,PP,01-704-1025,8,CLST,Last Nonzero Conc,XANOMELINE,0.01677444349416369,ug/ml,0.01677444349416369,0.01677444349416369,ug/ml,PLASMA,2013-09-27
697,CDISCPILOT01,PP,01-704-1025,9,CLST,Last Nonzero Conc,XANOMELINE,0.01677444349416369,ug/ml,0.01677444349416369,0.01677444349416369,ug/ml,PLASMA,2013-09-27
698,CDISCPILOT01,PP,01-704-1025,10,CMAX,Max Conc,XANOMELINE,1.8568157893078336,ug/ml,1.8568157893078336,1.8568157893078336,ug/ml,PLASMA,2013-09-27
699,CDISCPILOT01,PP,01-704-1025,11,LAMZ,Lambda z,XANOMELINE,0.2942278050476685,/h,0.2942278050476685,0.2942278050476685,/h,PLASMA,2013-09-27
700,CDISCPILOT01,PP,01-704-1025,12,LAMZHL,Half-Life Lambda z,XANOMELINE,2.3553178459382025,h,2.3553178459382025,2.3553178459382025,h,PLASMA,2013-09-27
701,CDISCPILOT01,PP,01-704-1025,13,LAMZNPT,Number of Points for Lambda z,XANOMELINE,4,U,4,4,U,PLASMA,2013-09-27
702,CDISCPILOT01,PP,01-704-1025,14,RCAMINT,Ae,XANOMELINE,67.07817562559188,mg,67.07817562559188,67.07817562559188,mg,URINE,2013-09-27
703,CDISCPILOT01,PP,01-704-1025,15,RENALCL,CLR,XANOMELINE,58.2231383288724,mL/min,58.2231383288724,58.2231383288724,mL/min,URINE,2013-09-27
704,CDISCPILOT01,PP,01-704-1025,16,TMAX,Time of CMAX,XANOMELINE,8,h,8,8,h,PLASMA,2013-09-27
705,CDISCPILOT01,PP,01-704-1065,1,AUCALL,AUC All,XANOMELINE,19.158252708485723,h*ug/ml,19.158252708485723,19.158252708485723,h*ug/ml,PLASMA,2013-10-24
706,CDISCPILOT01,PP,01-704-1065,2,AUCALL,AUC All,XANOMELINE,19.158252708485723,h*ug/ml,19.158252708485723,19.158252708485723,h*ug/ml,PLASMA,2013-10-24
707,CDISCPILOT01,PP,01-704-1065,3,AUCALL,AUC All,XANOMELINE,19.158252708485723,h*ug/ml,19.158252708485723,19.158252708485723,h*ug/ml,PLASMA,2013-10-24
708,CDISCPILOT01,PP,01-704-1065,4,AUCALL,AUC All,XANOMELINE,19.158252708485723,h*ug/ml,19.158252708485723,19.158252708485723,h*ug/ml,PLASMA,2013-10-24
709,CDISCPILOT01,PP,01-704-1065,5,AUCLST,AUC to Last Nonzero Conc,XANOMELINE,19.096755052513146,h*ug/ml,19.096755052513146,19.096755052513146,h*ug/ml,PLASMA,2013-10-24
710,CDISCPILOT01,PP,01-704-1065,6,CLST,Last Nonzero Conc,XANOMELINE,0.017829602117833326,ug/ml,0.017829602117833326,0.017829602117833326,ug/ml,PLASMA,2013-10-24
711,CDISCPILOT01,PP,01-704-1065,7,CLST,Last Nonzero Conc,XANOMELINE,0.017829602117833326,ug/ml,0.017829602117833326,0.017829602117833326,ug/ml,PLASMA,2013-10-24
712,CDISCPILOT01,PP,01-704-1065,8,CLST,Last Nonzero Conc,XANOMELINE,0.017829602117833326,ug/ml,0.017829602117833326,0.017829602117833326,ug/ml,PLASMA,2013-10-24
713,CDISCPILOT01,PP,01-704-1065,9,CLST,Last Nonzero Conc,XANOMELINE,0.017829602117833326,ug/ml,0.017829602117833326,0.017829602117833326,ug/ml,PLASMA,2013-10-24
714,CDISCPILOT01,PP,01-704-1065,10,CMAX,Max Conc,XANOMELINE,1.842128227130469,ug/ml,1.842128227130469,1.842128227130469,ug/ml,PLASMA,2013-10-24
715,CDISCPILOT01,PP,01-704-1065,11,LAMZ,Lambda z,XANOMELINE,0.2899232797715662,/h,0.2899232797715662,0.2899232797715662,/h,PLASMA,2013-10-24
716,CDISCPILOT01,PP,01-704-1065,12,LAMZHL,Half-Life Lambda z,XANOMELINE,2.3902875289836074,h,2.3902875289836074,2.3902875289836074,h,PLASMA,2013-10-24
717,CDISCPILOT01,PP,01-704-1065,13,LAMZNPT,Number of Points for Lambda z,XANOMELINE,4,U,4,4,U,PLASMA,2013-10-24
718,CDISCPILOT01,PP,01-704-1065,14,RCAMINT,Ae,XANOMELINE,69.15224494633796,mg,69.15224494633796,69.15224494633796,mg,URINE,2013-10-24
719,CDISCPILOT01,PP,01-704-1065,15,RENALCL,CLR,XANOMELINE,60.35252652102403,mL/min,60.35252652102403,60.35252652102403,mL/min,URINE,2013-10-24
720,CDISCPILOT01,PP,01-704-1065,16,TMAX,Time of CMAX,XANOMELINE,8,h,8,8,h,PLASMA,2013-10-24
721,CDISCPILOT01,PP,01-704-1074,1,AUCALL,AUC All,XANOMELINE,19.701637146668993,h*ug/ml,19.701637146668993,19.701637146668993,h*ug/ml,PLASMA,2014-01-22
722,CDISCPILOT01,PP,01-704-1074,2,AUCALL,AUC All,XANOMELINE,19.701637146668993,h*ug/ml,19.701637146668993,19.701637146668993,h*ug/ml,PLASMA,2014-01-22
723,CDISCPILOT01,PP,01-704-1074,3,AUCALL,AUC All,XANOMELINE,19.701637146668993,h*ug/ml,19.701637146668993,19.701637146668993,h*ug/ml,PLASMA,2014-01-22
724,CDISCPILOT01,PP,01-704-1074,4,AUCALL,AUC All,XANOMELINE,19.701637146668993,h*ug/ml,19.701637146668993,19.701637146668993,h*ug/ml,PLASMA,2014-01-22
725,CDISCPILOT01,PP,01-704-1074,5,AUCLST,AUC to Last Nonzero Conc,XANOMELINE,19.65386862707441,h*ug/ml,19.65386862707441,19.65386862707441,h*ug/ml,PLASMA,2014-01-22
726,CDISCPILOT01,PP,01-704-1074,6,CLST,Last Nonzero Conc,XANOMELINE,0.014563168462768198,ug/ml,0.014563168462768198,0.014563168462768198,ug/ml,PLASMA,2014-01-22
727,CDISCPILOT01,PP,01-704-1074,7,CLST,Last Nonzero Conc,XANOMELINE,0.014563168462768198,ug/ml,0.014563168462768198,0.014563168462768198,ug/ml,PLASMA,2014-01-22
728,CDISCPILOT01,PP,01-704-1074,8,CLST,Last Nonzero Conc,XANOMELINE,0.014563168462768198,ug/ml,0.014563168462768198,0.014563168462768198,ug/ml,PLASMA,2014-01-22
729,CDISCPILOT01,PP,01-704-1074,9,CLST,Last Nonzero Conc,XANOMELINE,0.014563168462768198,ug/ml,0.014563168462768198,0.014563168462768198,ug/ml,PLASMA,2014-01-22
730,CDISCPILOT01,PP,01-704-1074,10,CMAX,Max Conc,XANOMELINE,1.9115751054123105,ug/ml,1.9115751054123105,1.9115751054123105,ug/ml,PLASMA,2014-01-22
731,CDISCPILOT01,PP,01-704-1074,11,LAMZ,Lambda z,XANOMELINE,0.30486957909449314,/h,0.30486957909449314,0.30486957909449314,/h,PLASMA,2014-01-22
732,CDISCPILOT01,PP,01-704-1074,12,LAMZHL,Half-Life Lambda z,XANOMELINE,2.273103148101265,h,2.273103148101265,2.273103148101265,h,PLASMA,2014-01-22
733,CDISCPILOT01,PP,01-704-1074,13,LAMZNPT,Number of Points for Lambda z,XANOMELINE,4,U,4,4,U,PLASMA,2014-01-22
734,CDISCPILOT01,PP,01-704-1074,14,RCAMINT,Ae,XANOMELINE,62.731331738517454,mg,62.731331738517454,62.731331738517454,mg,URINE,2014-01-22
735,CDISCPILOT01,PP,01-704-1074,15,RENALCL,CLR,XANOMELINE,53.19676321646348,mL/min,53.19676321646348,53.19676321646348,mL/min,URINE,2014-01-22
736,CDISCPILOT01,PP,01-704-1074,16,TMAX,Time of CMAX,XANOMELINE,8,h,8,8,h,PLASMA,2014-01-22
737,CDISCPILOT01,PP,01-704-1093,1,AUCALL,AUC All,XANOMELINE,19.562864193949995,h*ug/ml,19.562864193949995,19.562864193949995,h*ug/ml,PLASMA,2013-03-15
738,CDISCPILOT01,PP,01-704-1093,2,AUCALL,AUC All,XANOMELINE,19.562864193949995,h*ug/ml,19.562864193949995,19.562864193949995,h*ug/ml,PLASMA,2013-03-15
739,CDISCPILOT01,PP,01-704-1093,3,AUCALL,AUC All,XANOMELINE,19.562864193949995,h*ug/ml,19.562864193949995,19.562864193949995,h*ug/ml,PLASMA,2013-03-15
740,CDISCPILOT01,PP,01-704-1093,4,AUCALL,AUC All,XANOMELINE,19.562864193949995,h*ug/ml,19.562864193949995,19.562864193949995,h*ug/ml,PLASMA,2013-03-15
741,CDISCPILOT01,PP,01-704-1093,5,AUCLST,AUC to Last Nonzero Conc,XANOMELINE,19.528307111891973,h*ug/ml,19.528307111891973,19.528307111891973,h*ug/ml,PLASMA,2013-03-15
742,CDISCPILOT01,PP,01-704-1093,6,CLST,Last Nonzero Conc,XANOMELINE,0.01112141081017249,ug/ml,0.01112141081017249,0.01112141081017249,ug/ml,PLASMA,2013-03-15
743,CDISCPILOT01,PP,01-704-1093,7,CLST,Last Nonzero Conc,XANOMELINE,0.01112141081017249,ug/ml,0.01112141081017249,0.01112141081017249,ug/ml,PLASMA,2013-03-15
744,CDISCPILOT01,PP,01-704-1093,8,CLST,Last Nonzero Conc,XANOMELINE,0.01112141081017249,ug/ml,0.01112141081017249,0.01112141081017249,ug/ml,PLASMA,2013-03-15
745,CDISCPILOT01,PP,01-704-1093,9,CLST,Last Nonzero Conc,XANOMELINE,0.01112141081017249,ug/ml,0.01112141081017249,0.01112141081017249,ug/ml,PLASMA,2013-03-15
746,CDISCPILOT01,PP,01-704-1093,10,CMAX,Max Conc,XANOMELINE,1.915198899205846,ug/ml,1.915198899205846,1.915198899205846,ug/ml,PLASMA,2013-03-15
747,CDISCPILOT01,PP,01-704-1093,11,LAMZ,Lambda z,XANOMELINE,0.321827253571321,/h,0.321827253571321,0.321827253571321,/h,PLASMA,2013-03-15
748,CDISCPILOT01,PP,01-704-1093,12,LAMZHL,Half-Life Lambda z,XANOMELINE,2.153329130177045,h,2.153329130177045,2.153329130177045,h,PLASMA,2013-03-15
749,CDISCPILOT01,PP,01-704-1093,13,LAMZNPT,Number of Points for Lambda z,XANOMELINE,4,U,4,4,U,PLASMA,2013-03-15
750,CDISCPILOT01,PP,01-704-1093,14,RCAMINT,Ae,XANOMELINE,56.25155769965601,mg,56.25155769965601,56.25155769965601,mg,URINE,2013-03-15
751,CDISCPILOT01,PP,01-704-1093,15,RENALCL,CLR,XANOMELINE,48.00856296908691,mL/min,48.00856296908691,48.00856296908691,mL/min,URINE,2013-03-15
752,CDISCPILOT01,PP,01-704-1093,16,TMAX,Time of CMAX,XANOMELINE,8,h,8,8,h,PLASMA,2013-03-15
753,CDISCPILOT01,PP,01-704-1114,1,AUCALL,AUC All,XANOMELINE,18.836719335136745,h*ug/ml,18.836719335136745,18.836719335136745,h*ug/ml,PLASMA,2013-01-23
754,CDISCPILOT01,PP,01-704-1114,2,AUCALL,AUC All,XANOMELINE,18.836719335136745,h*ug/ml,18.836719335136745,18.836719335136745,h*ug/ml,PLASMA,2013-01-23
755,CDISCPILOT01,PP,01-704-1114,3,AUCALL,AUC All,XANOMELINE,18.836719335136745,h*ug/ml,18.836719335136745,18.836719335136745,h*ug/ml,PLASMA,2013-01-23
756,CDISCPILOT01,PP,01-704-1114,4,AUCALL,AUC All,XANOMELINE,18.836719335136745,h*ug/ml,18.836719335136745,18.836719335136745,h*ug/ml,PLASMA,2013-01-23
757,CDISCPILOT01,PP,01-704-1114,5,AUCLST,AUC to Last Nonzero Conc,XANOMELINE,18.790579022988705,h*ug/ml,18.790579022988705,18.790579022988705,h*ug/ml,PLASMA,2013-01-23
758,CDISCPILOT01,PP,01-704-1114,6,CLST,Last Nonzero Conc,XANOMELINE,0.01404161420880385,ug/ml,0.01404161420880385,0.01404161420880385,ug/ml,PLASMA,2013-01-23
759,CDISCPILOT01,PP,01-704-1114,7,CLST,Last Nonzero Conc,XANOMELINE,0.01404161420880385,ug/ml,0.01404161420880385,0.01404161420880385,ug/ml,PLASMA,2013-01-23
760,CDISCPILOT01,PP,01-704-1114,8,CLST,Last Nonzero Conc,XANOMELINE,0.01404161420880385,ug/ml,0.01404161420880385,0.01404161420880385,ug/ml,PLASMA,2013-01-23
761,CDISCPILOT01,PP,01-704-1114,9,CLST,Last Nonzero Conc,XANOMELINE,0.01404161420880385,ug/ml,0.01404161420880385,0.01404161420880385,ug/ml,PLASMA,2013-01-23
762,CDISCPILOT01,PP,01-704-1114,10,CMAX,Max Conc,XANOMELINE,1.8270892496935094,ug/ml,1.8270892496935094,1.8270892496935094,ug/ml,PLASMA,2013-01-23
763,CDISCPILOT01,PP,01-704-1114,11,LAMZ,Lambda z,XANOMELINE,0.3043242135803441,/h,0.3043242135803441,0.3043242135803441,/h,PLASMA,2013-01-23
764,CDISCPILOT01,PP,01-704-1114,12,LAMZHL,Half-Life Lambda z,XANOMELINE,2.277176672361768,h,2.277176672361768,2.277176672361768,h,PLASMA,2013-01-23
765,CDISCPILOT01,PP,01-704-1114,13,LAMZNPT,Number of Points for Lambda z,XANOMELINE,4,U,4,4,U,PLASMA,2013-01-23
766,CDISCPILOT01,PP,01-704-1114,14,RCAMINT,Ae,XANOMELINE,62.94854681008901,mg,62.94854681008901,62.94854681008901,mg,URINE,2013-01-23
767,CDISCPILOT01,PP,01-704-1114,15,RENALCL,CLR,XANOMELINE,55.83342831273473,mL/min,55.83342831273473,55.83342831273473,mL/min,URINE,2013-01-23
768,CDISCPILOT01,PP,01-704-1114,16,TMAX,Time of CMAX,XANOMELINE,8,h,8,8,h,PLASMA,2013-01-23
769,CDISCPILOT01,PP,01-704-1120,1,AUCALL,AUC All,XANOMELINE,18.832711560231605,h*ug/ml,18.832711560231605,18.832711560231605,h*ug/ml,PLASMA,2013-12-02
770,CDISCPILOT01,PP,01-704-1120,2,AUCALL,AUC All,XANOMELINE,18.832711560231605,h*ug/ml,18.832711560231605,18.832711560231605,h*ug/ml,PLASMA,2013-12-02
771,CDISCPILOT01,PP,01-704-1120,3,AUCALL,AUC All,XANOMELINE,18.832711560231605,h*ug/ml,18.832711560231605,18.832711560231605,h*ug/ml,PLASMA,2013-12-02
772,CDISCPILOT01,PP,01-704-1120,4,AUCALL,AUC All,XANOMELINE,18.832711560231605,h*ug/ml,18.832711560231605,18.832711560231605,h*ug/ml,PLASMA,2013-12-02
773,CDISCPILOT01,PP,01-704-1120,5,AUCLST,AUC to Last Nonzero Conc,XANOMELINE,18.77348693110796,h*ug/ml,18.77348693110796,18.77348693110796,h*ug/ml,PLASMA,2013-12-02
774,CDISCPILOT01,PP,01-704-1120,6,CLST,Last Nonzero Conc,XANOMELINE,0.017235188991274,ug/ml,0.017235188991274,0.017235188991274,ug/ml,PLASMA,2013-12-02
775,CDISCPILOT01,PP,01-704-1120,7,CLST,Last Nonzero Conc,XANOMELINE,0.017235188991274,ug/ml,0.017235188991274,0.017235188991274,ug/ml,PLASMA,2013-12-02
776,CDISCPILOT01,PP,01-704-1120,8,CLST,Last Nonzero Conc,XANOMELINE,0.017235188991274,ug/ml,0.017235188991274,0.017235188991274,ug/ml,PLASMA,2013-12-02
777,CDISCPILOT01,PP,01-704-1120,9,CLST,Last Nonzero Conc,XANOMELINE,0.017235188991274,ug/ml,0.017235188991274,0.017235188991274,ug/ml,PLASMA,2013-12-02
778,CDISCPILOT01,PP,01-704-1120,10,CMAX,Max Conc,XANOMELINE,1.8120941104613097,ug/ml,1.8120941104613097,1.8120941104613097,ug/ml,PLASMA,2013-12-02
779,CDISCPILOT01,PP,01-704-1120,11,LAMZ,Lambda z,XANOMELINE,0.2910138779475042,/h,0.2910138779475042,0.2910138779475042,/h,PLASMA,2013-12-02
780,CDISCPILOT01,PP,01-704-1120,12,LAMZHL,Half-Life Lambda z,XANOMELINE,2.381329732065251,h,2.381329732065251,2.381329732065251,h,PLASMA,2013-12-02
781,CDISCPILOT01,PP,01-704-1120,13,LAMZNPT,Number of Points for Lambda z,XANOMELINE,4,U,4,4,U,PLASMA,2013-12-02
782,CDISCPILOT01,PP,01-704-1120,14,RCAMINT,Ae,XANOMELINE,68.43783139325674,mg,68.43783139325674,68.43783139325674,mg,URINE,2013-12-02
783,CDISCPILOT01,PP,01-704-1120,15,RENALCL,CLR,XANOMELINE,60.75752082746563,mL/min,60.75752082746563,60.75752082746563,mL/min,URINE,2013-12-02
784,CDISCPILOT01,PP,01-704-1120,16,TMAX,Time of CMAX,XANOMELINE,8,h,8,8,h,PLASMA,2013-12-02
785,CDISCPILOT01,PP,01-704-1135,1,AUCALL,AUC All,XANOMELINE,18.60593340084797,h*ug/ml,18.60593340084797,18.60593340084797,h*ug/ml,PLASMA,2013-10-31
786,CDISCPILOT01,PP,01-704-1135,2,AUCALL,AUC All,XANOMELINE,18.60593340084797,h*ug/ml,18.60593340084797,18.60593340084797,h*ug/ml,PLASMA,2013-10-31
787,CDISCPILOT01,PP,01-704-1135,3,AUCALL,AUC All,XANOMELINE,18.60593340084797,h*ug/ml,18.60593340084797,18.60593340084797,h*ug/ml,PLASMA,2013-10-31
788,CDISCPILOT01,PP,01-704-1135,4,AUCALL,AUC All,XANOMELINE,18.60593340084797,h*ug/ml,18.60593340084797,18.60593340084797,h*ug/ml,PLASMA,2013-10-31
789,CDISCPILOT01,PP,01-704-1135,5,AUCLST,AUC to Last Nonzero Conc,XANOMELINE,18.56597360633289,h*ug/ml,18.56597360633289,18.56597360633289,h*ug/ml,PLASMA,2013-10-31
790,CDISCPILOT01,PP,01-704-1135,6,CLST,Last Nonzero Conc,XANOMELINE,0.012441577413444512,ug/ml,0.012441577413444512,0.012441577413444512,ug/ml,PLASMA,2013-10-31
791,CDISCPILOT01,PP,01-704-1135,7,CLST,Last Nonzero Conc,XANOMELINE,0.012441577413444512,ug/ml,0.012441577413444512,0.012441577413444512,ug/ml,PLASMA,2013-10-31
792,CDISCPILOT01,PP,01-704-1135,8,CLST,Last Nonzero Conc,XANOMELINE,0.012441577413444512,ug/ml,0.012441577413444512,0.012441577413444512,ug/ml,PLASMA,2013-10-31
793,CDISCPILOT01,PP,01-704-1135,9,CLST,Last Nonzero Conc,XANOMELINE,0.012441577413444512,ug/ml,0.012441577413444512,0.012441577413444512,ug/ml,PLASMA,2013-10-31
794,CDISCPILOT01,PP,01-704-1135,10,CMAX,Max Conc,XANOMELINE,1.8117303294328944,ug/ml,1.8117303294328944,1.8117303294328944,ug/ml,PLASMA,2013-10-31
795,CDISCPILOT01,PP,01-704-1135,11,LAMZ,Lambda z,XANOMELINE,0.31135238717877994,/h,0.31135238717877994,0.31135238717877994,/h,PLASMA,2013-10-31
796,CDISCPILOT01,PP,01-704-1135,12,LAMZHL,Half-Life Lambda z,XANOMELINE,2.2257738451257683,h,2.2257738451257683,2.2257738451257683,h,PLASMA,2013-10-31
797,CDISCPILOT01,PP,01-704-1135,13,LAMZNPT,Number of Points for Lambda z,XANOMELINE,4,U,4,4,U,PLASMA,2013-10-31
798,CDISCPILOT01,PP,01-704-1135,14,RCAMINT,Ae,XANOMELINE,60.19276266918527,mg,60.19276266918527,60.19276266918527,mg,URINE,2013-10-31
799,CDISCPILOT01,PP,01-704-1135,15,RENALCL,CLR,XANOMELINE,54.03501763090356,mL/min,54.03501763090356,54.03501763090356,mL/min,URINE,2013-10-31
800,CDISCPILOT01,PP,01-704-1135,16,TMAX,Time of CMAX,XANOMELINE,8,h,8,8,h,PLASMA,2013-10-31
801,CDISCPILOT01,PP,01-704-1218,1,AUCALL,AUC All,XANOMELINE,18.93911290333731,h*ug/ml,18.93911290333731,18.93911290333731,h*ug/ml,PLASMA,2012-11-19
802,CDISCPILOT01,PP,01-704-1218,2,AUCALL,AUC All,XANOMELINE,18.93911290333731,h*ug/ml,18.93911290333731,18.93911290333731,h*ug/ml,PLASMA,2012-11-19
803,CDISCPILOT01,PP,01-704-1218,3,AUCALL,AUC All,XANOMELINE,18.93911290333731,h*ug/ml,18.93911290333731,18.93911290333731,h*ug/ml,PLASMA,2012-11-19
804,CDISCPILOT01,PP,01-704-1218,4,AUCALL,AUC All,XANOMELINE,18.93911290333731,h*ug/ml,18.93911290333731,18.93911290333731,h*ug/ml,PLASMA,2012-11-19
805,CDISCPILOT01,PP,01-704-1218,5,AUCLST,AUC to Last Nonzero Conc,XANOMELINE,18.892399141972927,h*ug/ml,18.892399141972927,18.892399141972927,h*ug/ml,PLASMA,2012-11-19
806,CDISCPILOT01,PP,01-704-1218,6,CLST,Last Nonzero Conc,XANOMELINE,0.014198844330823275,ug/ml,0.014198844330823275,0.014198844330823275,ug/ml,PLASMA,2012-11-19
807,CDISCPILOT01,PP,01-704-1218,7,CLST,Last Nonzero Conc,XANOMELINE,0.014198844330823275,ug/ml,0.014198844330823275,0.014198844330823275,ug/ml,PLASMA,2012-11-19
808,CDISCPILOT01,PP,01-704-1218,8,CLST,Last Nonzero Conc,XANOMELINE,0.014198844330823275,ug/ml,0.014198844330823275,0.014198844330823275,ug/ml,PLASMA,2012-11-19
809,CDISCPILOT01,PP,01-704-1218,9,CLST,Last Nonzero Conc,XANOMELINE,0.014198844330823275,ug/ml,0.014198844330823275,0.014198844330823275,ug/ml,PLASMA,2012-11-19
810,CDISCPILOT01,PP,01-704-1218,10,CMAX,Max Conc,XANOMELINE,1.836633429941026,ug/ml,1.836633429941026,1.836633429941026,ug/ml,PLASMA,2012-11-19
811,CDISCPILOT01,PP,01-704-1218,11,LAMZ,Lambda z,XANOMELINE,0.3039542078418242,/h,0.3039542078418242,0.3039542078418242,/h,PLASMA,2012-11-19
812,CDISCPILOT01,PP,01-704-1218,12,LAMZHL,Half-Life Lambda z,XANOMELINE,2.2799486966162767,h,2.2799486966162767,2.2799486966162767,h,PLASMA,2012-11-19
813,CDISCPILOT01,PP,01-704-1218,13,LAMZNPT,Number of Points for Lambda z,XANOMELINE,4,U,4,4,U,PLASMA,2012-11-19
814,CDISCPILOT01,PP,01-704-1218,14,RCAMINT,Ae,XANOMELINE,63.09624823350953,mg,63.09624823350953,63.09624823350953,mg,URINE,2012-11-19
815,CDISCPILOT01,PP,01-704-1218,15,RENALCL,CLR,XANOMELINE,55.66281599930987,mL/min,55.66281599930987,55.66281599930987,mL/min,URINE,2012-11-19
816,CDISCPILOT01,PP,01-704-1218,16,TMAX,Time of CMAX,XANOMELINE,8,h,8,8,h,PLASMA,2012-11-19
817,CDISCPILOT01,PP,01-704-1241,1,AUCALL,AUC All,XANOMELINE,18.278213361307866,h*ug/ml,18.278213361307866,18.278213361307866,h*ug/ml,PLASMA,2013-08-25
818,CDISCPILOT01,PP,01-704-1241,2,AUCALL,AUC All,XANOMELINE,18.278213361307866,h*ug/ml,18.278213361307866,18.278213361307866,h*ug/ml,PLASMA,2013-08-25
819,CDISCPILOT01,PP,01-704-1241,3,AUCALL,AUC All,XANOMELINE,18.278213361307866,h*ug/ml,18.278213361307866,18.278213361307866,h*ug/ml,PLASMA,2013-08-25
820,CDISCPILOT01,PP,01-704-1241,4,AUCALL,AUC All,XANOMELINE,18.278213361307866,h*ug/ml,18.278213361307866,18.278213361307866,h*ug/ml,PLASMA,2013-08-25
821,CDISCPILOT01,PP,01-704-1241,5,AUCLST,AUC to Last Nonzero Conc,XANOMELINE,18.246131756024727,h*ug/ml,18.246131756024727,18.246131756024727,h*ug/ml,PLASMA,2013-08-25
822,CDISCPILOT01,PP,01-704-1241,6,CLST,Last Nonzero Conc,XANOMELINE,0.010335770868401636,ug/ml,0.010335770868401636,0.010335770868401636,ug/ml,PLASMA,2013-08-25
823,CDISCPILOT01,PP,01-704-1241,7,CLST,Last Nonzero Conc,XANOMELINE,0.010335770868401636,ug/ml,0.010335770868401636,0.010335770868401636,ug/ml,PLASMA,2013-08-25
824,CDISCPILOT01,PP,01-704-1241,8,CLST,Last Nonzero Conc,XANOMELINE,0.010335770868401636,ug/ml,0.010335770868401636,0.010335770868401636,ug/ml,PLASMA,2013-08-25
825,CDISCPILOT01,PP,01-704-1241,9,CLST,Last Nonzero Conc,XANOMELINE,0.010335770868401636,ug/ml,0.010335770868401636,0.010335770868401636,ug/ml,PLASMA,2013-08-25
826,CDISCPILOT01,PP,01-704-1241,10,CMAX,Max Conc,XANOMELINE,1.7897347065034461,ug/ml,1.7897347065034461,1.7897347065034461,ug/ml,PLASMA,2013-08-25
827,CDISCPILOT01,PP,01-704-1241,11,LAMZ,Lambda z,XANOMELINE,0.3221712497608162,/h,0.3221712497608162,0.3221712497608162,/h,PLASMA,2013-08-25
828,CDISCPILOT01,PP,01-704-1241,12,LAMZHL,Half-Life Lambda z,XANOMELINE,2.1510299274516007,h,2.1510299274516007,2.1510299274516007,h,PLASMA,2013-08-25
829,CDISCPILOT01,PP,01-704-1241,13,LAMZNPT,Number of Points for Lambda z,XANOMELINE,4,U,4,4,U,PLASMA,2013-08-25
830,CDISCPILOT01,PP,01-704-1241,14,RCAMINT,Ae,XANOMELINE,56.125317205737815,mg,56.125317205737815,56.125317205737815,mg,URINE,2013-08-25
831,CDISCPILOT01,PP,01-704-1241,15,RENALCL,CLR,XANOMELINE,51.26686389952735,mL/min,51.26686389952735,51.26686389952735,mL/min,URINE,2013-08-25
832,CDISCPILOT01,PP,01-704-1241,16,TMAX,Time of CMAX,XANOMELINE,8,h,8,8,h,PLASMA,2013-08-25
833,CDISCPILOT01,PP,01-704-1266,1,AUCALL,AUC All,XANOMELINE,19.160075538611526,h*ug/ml,19.160075538611526,19.160075538611526,h*ug/ml,PLASMA,2013-10-13
834,CDISCPILOT01,PP,01-704-1266,2,AUCALL,AUC All,XANOMELINE,19.160075538611526,h*ug/ml,19.160075538611526,19.160075538611526,h*ug/ml,PLASMA,2013-10-13
835,CDISCPILOT01,PP,01-704-1266,3,AUCALL,AUC All,XANOMELINE,19.160075538611526,h*ug/ml,19.160075538611526,19.160075538611526,h*ug/ml,PLASMA,2013-10-13
836,CDISCPILOT01,PP,01-704-1266,4,AUCALL,AUC All,XANOMELINE,19.160075538611526,h*ug/ml,19.160075538611526,19.160075538611526,h*ug/ml,PLASMA,2013-10-13
837,CDISCPILOT01,PP,01-704-1266,5,AUCLST,AUC to Last Nonzero Conc,XANOMELINE,19.094271910752596,h*ug/ml,19.094271910752596,19.094271910752596,h*ug/ml,PLASMA,2013-10-13
838,CDISCPILOT01,PP,01-704-1266,6,CLST,Last Nonzero Conc,XANOMELINE,0.018841882024509954,ug/ml,0.018841882024509954,0.018841882024509954,ug/ml,PLASMA,2013-10-13
839,CDISCPILOT01,PP,01-704-1266,7,CLST,Last Nonzero Conc,XANOMELINE,0.018841882024509954,ug/ml,0.018841882024509954,0.018841882024509954,ug/ml,PLASMA,2013-10-13
840,CDISCPILOT01,PP,01-704-1266,8,CLST,Last Nonzero Conc,XANOMELINE,0.018841882024509954,ug/ml,0.018841882024509954,0.018841882024509954,ug/ml,PLASMA,2013-10-13
841,CDISCPILOT01,PP,01-704-1266,9,CLST,Last Nonzero Conc,XANOMELINE,0.018841882024509954,ug/ml,0.018841882024509954,0.018841882024509954,ug/ml,PLASMA,2013-10-13
842,CDISCPILOT01,PP,01-704-1266,10,CMAX,Max Conc,XANOMELINE,1.837977886590599,ug/ml,1.837977886590599,1.837977886590599,ug/ml,PLASMA,2013-10-13
843,CDISCPILOT01,PP,01-704-1266,11,LAMZ,Lambda z,XANOMELINE,0.28633500367036485,/h,0.28633500367036485,0.28633500367036485,/h,PLASMA,2013-10-13
844,CDISCPILOT01,PP,01-704-1266,12,LAMZHL,Half-Life Lambda z,XANOMELINE,2.42024199317872,h,2.42024199317872,2.42024199317872,h,PLASMA,2013-10-13
845,CDISCPILOT01,PP,01-704-1266,13,LAMZNPT,Number of Points for Lambda z,XANOMELINE,4,U,4,4,U,PLASMA,2013-10-13
846,CDISCPILOT01,PP,01-704-1266,14,RCAMINT,Ae,XANOMELINE,71.50409586018421,mg,71.50409586018421,71.50409586018421,mg,URINE,2013-10-13
847,CDISCPILOT01,PP,01-704-1266,15,RENALCL,CLR,XANOMELINE,62.4132167266334,mL/min,62.4132167266334,62.4132167266334,mL/min,URINE,2013-10-13
848,CDISCPILOT01,PP,01-704-1266,16,TMAX,Time of CMAX,XANOMELINE,8,h,8,8,h,PLASMA,2013-10-13
849,CDISCPILOT01,PP,01-704-1323,1,AUCALL,AUC All,XANOMELINE,18.070823226998424,h*ug/ml,18.070823226998424,18.070823226998424,h*ug/ml,PLASMA,2013-07-08
850,CDISCPILOT01,PP,01-704-1323,2,AUCALL,AUC All,XANOMELINE,18.070823226998424,h*ug/ml,18.070823226998424,18.070823226998424,h*ug/ml,PLASMA,2013-07-08
851,CDISCPILOT01,PP,01-704-1323,3,AUCALL,AUC All,XANOMELINE,18.070823226998424,h*ug/ml,18.070823226998424,18.070823226998424,h*ug/ml,PLASMA,2013-07-08
852,CDISCPILOT01,PP,01-704-1323,4,AUCALL,AUC All,XANOMELINE,18.070823226998424,h*ug/ml,18.070823226998424,18.070823226998424,h*ug/ml,PLASMA,2013-07-08
853,CDISCPILOT01,PP,01-704-1323,5,AUCLST,AUC to Last Nonzero Conc,XANOMELINE,18.03913462798898,h*ug/ml,18.03913462798898,18.03913462798898,h*ug/ml,PLASMA,2013-07-08
854,CDISCPILOT01,PP,01-704-1323,6,CLST,Last Nonzero Conc,XANOMELINE,0.010210712028154881,ug/ml,0.010210712028154881,0.010210712028154881,ug/ml,PLASMA,2013-07-08
855,CDISCPILOT01,PP,01-704-1323,7,CLST,Last Nonzero Conc,XANOMELINE,0.010210712028154881,ug/ml,0.010210712028154881,0.010210712028154881,ug/ml,PLASMA,2013-07-08
856,CDISCPILOT01,PP,01-704-1323,8,CLST,Last Nonzero Conc,XANOMELINE,0.010210712028154881,ug/ml,0.010210712028154881,0.010210712028154881,ug/ml,PLASMA,2013-07-08
857,CDISCPILOT01,PP,01-704-1323,9,CLST,Last Nonzero Conc,XANOMELINE,0.010210712028154881,ug/ml,0.010210712028154881,0.010210712028154881,ug/ml,PLASMA,2013-07-08
858,CDISCPILOT01,PP,01-704-1323,10,CMAX,Max Conc,XANOMELINE,1.769470511330769,ug/ml,1.769470511330769,1.769470511330769,ug/ml,PLASMA,2013-07-08
859,CDISCPILOT01,PP,01-704-1323,11,LAMZ,Lambda z,XANOMELINE,0.3222203678083404,/h,0.3222203678083404,0.3222203678083404,/h,PLASMA,2013-07-08
860,CDISCPILOT01,PP,01-704-1323,12,LAMZHL,Half-Life Lambda z,XANOMELINE,2.150702032629429,h,2.150702032629429,2.150702032629429,h,PLASMA,2013-07-08
861,CDISCPILOT01,PP,01-704-1323,13,LAMZNPT,Number of Points for Lambda z,XANOMELINE,4,U,4,4,U,PLASMA,2013-07-08
862,CDISCPILOT01,PP,01-704-1323,14,RCAMINT,Ae,XANOMELINE,56.10730775868514,mg,56.10730775868514,56.10730775868514,mg,URINE,2013-07-08
863,CDISCPILOT01,PP,01-704-1323,15,RENALCL,CLR,XANOMELINE,51.83850640635381,mL/min,51.83850640635381,51.83850640635381,mL/min,URINE,2013-07-08
864,CDISCPILOT01,PP,01-704-1323,16,TMAX,Time of CMAX,XANOMELINE,8,h,8,8,h,PLASMA,2013-07-08
865,CDISCPILOT01,PP,01-704-1325,1,AUCALL,AUC All,XANOMELINE,18.75185800214238,h*ug/ml,18.75185800214238,18.75185800214238,h*ug/ml,PLASMA,2014-04-23
866,CDISCPILOT01,PP,01-704-1325,2,AUCALL,AUC All,XANOMELINE,18.75185800214238,h*ug/ml,18.75185800214238,18.75185800214238,h*ug/ml,PLASMA,2014-04-23
867,CDISCPILOT01,PP,01-704-1325,3,AUCALL,AUC All,XANOMELINE,18.75185800214238,h*ug/ml,18.75185800214238,18.75185800214238,h*ug/ml,PLASMA,2014-04-23
868,CDISCPILOT01,PP,01-704-1325,4,AUCALL,AUC All,XANOMELINE,18.75185800214238,h*ug/ml,18.75185800214238,18.75185800214238,h*ug/ml,PLASMA,2014-04-23
869,CDISCPILOT01,PP,01-704-1325,5,AUCLST,AUC to Last Nonzero Conc,XANOMELINE,18.68376723326074,h*ug/ml,18.68376723326074,18.68376723326074,h*ug/ml,PLASMA,2014-04-23
870,CDISCPILOT01,PP,01-704-1325,6,CLST,Last Nonzero Conc,XANOMELINE,0.019295617279880193,ug/ml,0.019295617279880193,0.019295617279880193,ug/ml,PLASMA,2014-04-23
871,CDISCPILOT01,PP,01-704-1325,7,CLST,Last Nonzero Conc,XANOMELINE,0.019295617279880193,ug/ml,0.019295617279880193,0.019295617279880193,ug/ml,PLASMA,2014-04-23
872,CDISCPILOT01,PP,01-704-1325,8,CLST,Last Nonzero Conc,XANOMELINE,0.019295617279880193,ug/ml,0.019295617279880193,0.019295617279880193,ug/ml,PLASMA,2014-04-23
873,CDISCPILOT01,PP,01-704-1325,9,CLST,Last Nonzero Conc,XANOMELINE,0.019295617279880193,ug/ml,0.019295617279880193,0.019295617279880193,ug/ml,PLASMA,2014-04-23
874,CDISCPILOT01,PP,01-704-1325,10,CMAX,Max Conc,XANOMELINE,1.7952382656476118,ug/ml,1.7952382656476118,1.7952382656476118,ug/ml,PLASMA,2014-04-23
875,CDISCPILOT01,PP,01-704-1325,11,LAMZ,Lambda z,XANOMELINE,0.2833808105974063,/h,0.2833808105974063,0.2833808105974063,/h,PLASMA,2014-04-23
876,CDISCPILOT01,PP,01-704-1325,12,LAMZHL,Half-Life Lambda z,XANOMELINE,2.445472572892495,h,2.445472572892495,2.445472572892495,h,PLASMA,2014-04-23
877,CDISCPILOT01,PP,01-704-1325,13,LAMZNPT,Number of Points for Lambda z,XANOMELINE,4,U,4,4,U,PLASMA,2014-04-23
878,CDISCPILOT01,PP,01-704-1325,14,RCAMINT,Ae,XANOMELINE,73.47025598713498,mg,73.47025598713498,73.47025598713498,mg,URINE,2014-04-23
879,CDISCPILOT01,PP,01-704-1325,15,RENALCL,CLR,XANOMELINE,65.53840299789188,mL/min,65.53840299789188,65.53840299789188,mL/min,URINE,2014-04-23
880,CDISCPILOT01,PP,01-704-1325,16,TMAX,Time of CMAX,XANOMELINE,8,h,8,8,h,PLASMA,2014-04-23
881,CDISCPILOT01,PP,01-704-1332,1,AUCALL,AUC All,XANOMELINE,18.552637182347997,h*ug/ml,18.552637182347997,18.552637182347997,h*ug/ml,PLASMA,2013-12-09
882,CDISCPILOT01,PP,01-704-1332,2,AUCALL,AUC All,XANOMELINE,18.552637182347997,h*ug/ml,18.552637182347997,18.552637182347997,h*ug/ml,PLASMA,2013-12-09
883,CDISCPILOT01,PP,01-704-1332,3,AUCALL,AUC All,XANOMELINE,18.552637182347997,h*ug/ml,18.552637182347997,18.552637182347997,h*ug/ml,PLASMA,2013-12-09
884,CDISCPILOT01,PP,01-704-1332,4,AUCALL,AUC All,XANOMELINE,18.552637182347997,h*ug/ml,18.552637182347997,18.552637182347997,h*ug/ml,PLASMA,2013-12-09
885,CDISCPILOT01,PP,01-704-1332,5,AUCLST,AUC to Last Nonzero Conc,XANOMELINE,18.516912968315648,h*ug/ml,18.516912968315648,18.516912968315648,h*ug/ml,PLASMA,2013-12-09
886,CDISCPILOT01,PP,01-704-1332,6,CLST,Last Nonzero Conc,XANOMELINE,0.01133173206723108,ug/ml,0.01133173206723108,0.01133173206723108,ug/ml,PLASMA,2013-12-09
887,CDISCPILOT01,PP,01-704-1332,7,CLST,Last Nonzero Conc,XANOMELINE,0.01133173206723108,ug/ml,0.01133173206723108,0.01133173206723108,ug/ml,PLASMA,2013-12-09
888,CDISCPILOT01,PP,01-704-1332,8,CLST,Last Nonzero Conc,XANOMELINE,0.01133173206723108,ug/ml,0.01133173206723108,0.01133173206723108,ug/ml,PLASMA,2013-12-09
889,CDISCPILOT01,PP,01-704-1332,9,CLST,Last Nonzero Conc,XANOMELINE,0.01133173206723108,ug/ml,0.01133173206723108,0.01133173206723108,ug/ml,PLASMA,2013-12-09
890,CDISCPILOT01,PP,01-704-1332,10,CMAX,Max Conc,XANOMELINE,1.8120849181670746,ug/ml,1.8120849181670746,1.8120849181670746,ug/ml,PLASMA,2013-12-09
891,CDISCPILOT01,PP,01-704-1332,11,LAMZ,Lambda z,XANOMELINE,0.3172003184442366,/h,0.3172003184442366,0.3172003184442366,/h,PLASMA,2013-12-09
892,CDISCPILOT01,PP,01-704-1332,12,LAMZHL,Half-Life Lambda z,XANOMELINE,2.184739294711107,h,2.184739294711107,2.184739294711107,h,PLASMA,2013-12-09
893,CDISCPILOT01,PP,01-704-1332,13,LAMZNPT,Number of Points for Lambda z,XANOMELINE,4,U,4,4,U,PLASMA,2013-12-09
894,CDISCPILOT01,PP,01-704-1332,14,RCAMINT,Ae,XANOMELINE,57.96891778710627,mg,57.96891778710627,57.96891778710627,mg,URINE,2013-12-09
895,CDISCPILOT01,PP,01-704-1332,15,RENALCL,CLR,XANOMELINE,52.176549700173275,mL/min,52.176549700173275,52.176549700173275,mL/min,URINE,2013-12-09
896,CDISCPILOT01,PP,01-704-1332,16,TMAX,Time of CMAX,XANOMELINE,8,h,8,8,h,PLASMA,2013-12-09
897,CDISCPILOT01,PP,01-705-1031,1,AUCALL,AUC All,XANOMELINE,18.425987929177776,h*ug/ml,18.425987929177776,18.425987929177776,h*ug/ml,PLASMA,2013-11-27
898,CDISCPILOT01,PP,01-705-1031,2,AUCALL,AUC All,XANOMELINE,18.425987929177776,h*ug/ml,18.425987929177776,18.425987929177776,h*ug/ml,PLASMA,2013-11-27
899,CDISCPILOT01,PP,01-705-1031,3,AUCALL,AUC All,XANOMELINE,18.425987929177776,h*ug/ml,18.425987929177776,18.425987929177776,h*ug/ml,PLASMA,2013-11-27
900,CDISCPILOT01,PP,01-705-1031,4,AUCALL,AUC All,XANOMELINE,18.425987929177776,h*ug/ml,18.425987929177776,18.425987929177776,h*ug/ml,PLASMA,2013-11-27
901,CDISCPILOT01,PP,01-705-1031,5,AUCLST,AUC to Last Nonzero Conc,XANOMELINE,18.370913656838923,h*ug/ml,18.370913656838923,18.370913656838923,h*ug/ml,PLASMA,2013-11-27
902,CDISCPILOT01,PP,01-705-1031,6,CLST,Last Nonzero Conc,XANOMELINE,0.016176210252259925,ug/ml,0.016176210252259925,0.016176210252259925,ug/ml,PLASMA,2013-11-27
903,CDISCPILOT01,PP,01-705-1031,7,CLST,Last Nonzero Conc,XANOMELINE,0.016176210252259925,ug/ml,0.016176210252259925,0.016176210252259925,ug/ml,PLASMA,2013-11-27
904,CDISCPILOT01,PP,01-705-1031,8,CLST,Last Nonzero Conc,XANOMELINE,0.016176210252259925,ug/ml,0.016176210252259925,0.016176210252259925,ug/ml,PLASMA,2013-11-27
905,CDISCPILOT01,PP,01-705-1031,9,CLST,Last Nonzero Conc,XANOMELINE,0.016176210252259925,ug/ml,0.016176210252259925,0.016176210252259925,ug/ml,PLASMA,2013-11-27
906,CDISCPILOT01,PP,01-705-1031,10,CMAX,Max Conc,XANOMELINE,1.7759854356934524,ug/ml,1.7759854356934524,1.7759854356934524,ug/ml,PLASMA,2013-11-27
907,CDISCPILOT01,PP,01-705-1031,11,LAMZ,Lambda z,XANOMELINE,0.2937162774068663,/h,0.2937162774068663,0.2937162774068663,/h,PLASMA,2013-11-27
908,CDISCPILOT01,PP,01-705-1031,12,LAMZHL,Half-Life Lambda z,XANOMELINE,2.359419798311115,h,2.359419798311115,2.359419798311115,h,PLASMA,2013-11-27
909,CDISCPILOT01,PP,01-705-1031,13,LAMZNPT,Number of Points for Lambda z,XANOMELINE,4,U,4,4,U,PLASMA,2013-11-27
910,CDISCPILOT01,PP,01-705-1031,14,RCAMINT,Ae,XANOMELINE,67.29307013713296,mg,67.29307013713296,67.29307013713296,mg,URINE,2013-11-27
911,CDISCPILOT01,PP,01-705-1031,15,RENALCL,CLR,XANOMELINE,61.05037506039866,mL/min,61.05037506039866,61.05037506039866,mL/min,URINE,2013-11-27
912,CDISCPILOT01,PP,01-705-1031,16,TMAX,Time of CMAX,XANOMELINE,8,h,8,8,h,PLASMA,2013-11-27
913,CDISCPILOT01,PP,01-705-1199,1,AUCALL,AUC All,XANOMELINE,18.91804398392517,h*ug/ml,18.91804398392517,18.91804398392517,h*ug/ml,PLASMA,2013-09-16
914,CDISCPILOT01,PP,01-705-1199,2,AUCALL,AUC All,XANOMELINE,18.91804398392517,h*ug/ml,18.91804398392517,18.91804398392517,h*ug/ml,PLASMA,2013-09-16
915,CDISCPILOT01,PP,01-705-1199,3,AUCALL,AUC All,XANOMELINE,18.91804398392517,h*ug/ml,18.91804398392517,18.91804398392517,h*ug/ml,PLASMA,2013-09-16
916,CDISCPILOT01,PP,01-705-1199,4,AUCALL,AUC All,XANOMELINE,18.91804398392517,h*ug/ml,18.91804398392517,18.91804398392517,h*ug/ml,PLASMA,2013-09-16
917,CDISCPILOT01,PP,01-705-1199,5,AUCLST,AUC to Last Nonzero Conc,XANOMELINE,18.87992870502154,h*ug/ml,18.87992870502154,18.87992870502154,h*ug/ml,PLASMA,2013-09-16
918,CDISCPILOT01,PP,01-705-1199,6,CLST,Last Nonzero Conc,XANOMELINE,0.011997679172775699,ug/ml,0.011997679172775699,0.011997679172775699,ug/ml,PLASMA,2013-09-16
919,CDISCPILOT01,PP,01-705-1199,7,CLST,Last Nonzero Conc,XANOMELINE,0.011997679172775699,ug/ml,0.011997679172775699,0.011997679172775699,ug/ml,PLASMA,2013-09-16
920,CDISCPILOT01,PP,01-705-1199,8,CLST,Last Nonzero Conc,XANOMELINE,0.011997679172775699,ug/ml,0.011997679172775699,0.011997679172775699,ug/ml,PLASMA,2013-09-16
921,CDISCPILOT01,PP,01-705-1199,9,CLST,Last Nonzero Conc,XANOMELINE,0.011997679172775699,ug/ml,0.011997679172775699,0.011997679172775699,ug/ml,PLASMA,2013-09-16
922,CDISCPILOT01,PP,01-705-1199,10,CMAX,Max Conc,XANOMELINE,1.8454600564148889,ug/ml,1.8454600564148889,1.8454600564148889,ug/ml,PLASMA,2013-09-16
923,CDISCPILOT01,PP,01-705-1199,11,LAMZ,Lambda z,XANOMELINE,0.3147734850140067,/h,0.3147734850140067,0.3147734850140067,/h,PLASMA,2013-09-16
924,CDISCPILOT01,PP,01-705-1199,12,LAMZHL,Half-Life Lambda z,XANOMELINE,2.201583147860002,h,2.201583147860002,2.201583147860002,h,PLASMA,2013-09-16
925,CDISCPILOT01,PP,01-705-1199,13,LAMZNPT,Number of Points for Lambda z,XANOMELINE,4,U,4,4,U,PLASMA,2013-09-16
926,CDISCPILOT01,PP,01-705-1199,14,RCAMINT,Ae,XANOMELINE,58.88441113414062,mg,58.88441113414062,58.88441113414062,mg,URINE,2013-09-16
927,CDISCPILOT01,PP,01-705-1199,15,RENALCL,CLR,XANOMELINE,51.981491432997295,mL/min,51.981491432997295,51.981491432997295,mL/min,URINE,2013-09-16
928,CDISCPILOT01,PP,01-705-1199,16,TMAX,Time of CMAX,XANOMELINE,8,h,8,8,h,PLASMA,2013-09-16
929,CDISCPILOT01,PP,01-705-1280,1,AUCALL,AUC All,XANOMELINE,19.19848198228114,h*ug/ml,19.19848198228114,19.19848198228114,h*ug/ml,PLASMA,2014-01-17
930,CDISCPILOT01,PP,01-705-1280,2,AUCALL,AUC All,XANOMELINE,19.19848198228114,h*ug/ml,19.19848198228114,19.19848198228114,h*ug/ml,PLASMA,2014-01-17
931,CDISCPILOT01,PP,01-705-1280,3,AUCALL,AUC All,XANOMELINE,19.19848198228114,h*ug/ml,19.19848198228114,19.19848198228114,h*ug/ml,PLASMA,2014-01-17
932,CDISCPILOT01,PP,01-705-1280,4,AUCALL,AUC All,XANOMELINE,19.19848198228114,h*ug/ml,19.19848198228114,19.19848198228114,h*ug/ml,PLASMA,2014-01-17
933,CDISCPILOT01,PP,01-705-1280,5,AUCLST,AUC to Last Nonzero Conc,XANOMELINE,19.154217029171626,h*ug/ml,19.154217029171626,19.154217029171626,h*ug/ml,PLASMA,2014-01-17
934,CDISCPILOT01,PP,01-705-1280,6,CLST,Last Nonzero Conc,XANOMELINE,0.013613993876988917,ug/ml,0.013613993876988917,0.013613993876988917,ug/ml,PLASMA,2014-01-17
935,CDISCPILOT01,PP,01-705-1280,7,CLST,Last Nonzero Conc,XANOMELINE,0.013613993876988917,ug/ml,0.013613993876988917,0.013613993876988917,ug/ml,PLASMA,2014-01-17
936,CDISCPILOT01,PP,01-705-1280,8,CLST,Last Nonzero Conc,XANOMELINE,0.013613993876988917,ug/ml,0.013613993876988917,0.013613993876988917,ug/ml,PLASMA,2014-01-17
937,CDISCPILOT01,PP,01-705-1280,9,CLST,Last Nonzero Conc,XANOMELINE,0.013613993876988917,ug/ml,0.013613993876988917,0.013613993876988917,ug/ml,PLASMA,2014-01-17
938,CDISCPILOT01,PP,01-705-1280,10,CMAX,Max Conc,XANOMELINE,1.865563364393363,ug/ml,1.865563364393363,1.865563364393363,ug/ml,PLASMA,2014-01-17
939,CDISCPILOT01,PP,01-705-1280,11,LAMZ,Lambda z,XANOMELINE,0.3075569478930011,/h,0.3075569478930011,0.3075569478930011,/h,PLASMA,2014-01-17
940,CDISCPILOT01,PP,01-705-1280,12,LAMZHL,Half-Life Lambda z,XANOMELINE,2.25324124441856,h,2.25324124441856,2.25324124441856,h,PLASMA,2014-01-17
941,CDISCPILOT01,PP,01-705-1280,13,LAMZNPT,Number of Points for Lambda z,XANOMELINE,4,U,4,4,U,PLASMA,2014-01-17
942,CDISCPILOT01,PP,01-705-1280,14,RCAMINT,Ae,XANOMELINE,61.66936307592435,mg,61.66936307592435,61.66936307592435,mg,URINE,2014-01-17
943,CDISCPILOT01,PP,01-705-1280,15,RENALCL,CLR,XANOMELINE,53.66038801621135,mL/min,53.66038801621135,53.66038801621135,mL/min,URINE,2014-01-17
944,CDISCPILOT01,PP,01-705-1280,16,TMAX,Time of CMAX,XANOMELINE,8,h,8,8,h,PLASMA,2014-01-17
945,CDISCPILOT01,PP,01-705-1281,1,AUCALL,AUC All,XANOMELINE,18.360909772062126,h*ug/ml,18.360909772062126,18.360909772062126,h*ug/ml,PLASMA,2013-11-28
946,CDISCPILOT01,PP,01-705-1281,2,AUCALL,AUC All,XANOMELINE,18.360909772062126,h*ug/ml,18.360909772062126,18.360909772062126,h*ug/ml,PLASMA,2013-11-28
947,CDISCPILOT01,PP,01-705-1281,3,AUCALL,AUC All,XANOMELINE,18.360909772062126,h*ug/ml,18.360909772062126,18.360909772062126,h*ug/ml,PLASMA,2013-11-28
948,CDISCPILOT01,PP,01-705-1281,4,AUCALL,AUC All,XANOMELINE,18.360909772062126,h*ug/ml,18.360909772062126,18.360909772062126,h*ug/ml,PLASMA,2013-11-28
949,CDISCPILOT01,PP,01-705-1281,5,AUCLST,AUC to Last Nonzero Conc,XANOMELINE,18.32657579656397,h*ug/ml,18.32657579656397,18.32657579656397,h*ug/ml,PLASMA,2013-11-28
950,CDISCPILOT01,PP,01-705-1281,6,CLST,Last Nonzero Conc,XANOMELINE,0.010944706327339031,ug/ml,0.010944706327339031,0.010944706327339031,ug/ml,PLASMA,2013-11-28
951,CDISCPILOT01,PP,01-705-1281,7,CLST,Last Nonzero Conc,XANOMELINE,0.010944706327339031,ug/ml,0.010944706327339031,0.010944706327339031,ug/ml,PLASMA,2013-11-28
952,CDISCPILOT01,PP,01-705-1281,8,CLST,Last Nonzero Conc,XANOMELINE,0.010944706327339031,ug/ml,0.010944706327339031,0.010944706327339031,ug/ml,PLASMA,2013-11-28
953,CDISCPILOT01,PP,01-705-1281,9,CLST,Last Nonzero Conc,XANOMELINE,0.010944706327339031,ug/ml,0.010944706327339031,0.010944706327339031,ug/ml,PLASMA,2013-11-28
954,CDISCPILOT01,PP,01-705-1281,10,CMAX,Max Conc,XANOMELINE,1.7947912209318428,ug/ml,1.7947912209318428,1.7947912209318428,ug/ml,PLASMA,2013-11-28
955,CDISCPILOT01,PP,01-705-1281,11,LAMZ,Lambda z,XANOMELINE,0.3187718919391255,/h,0.3187718919391255,0.3187718919391255,/h,PLASMA,2013-11-28
956,CDISCPILOT01,PP,01-705-1281,12,LAMZHL,Half-Life Lambda z,XANOMELINE,2.173968337623504,h,2.173968337623504,2.173968337623504,h,PLASMA,2013-11-28
957,CDISCPILOT01,PP,01-705-1281,13,LAMZNPT,Number of Points for Lambda z,XANOMELINE,4,U,4,4,U,PLASMA,2013-11-28
958,CDISCPILOT01,PP,01-705-1281,14,RCAMINT,Ae,XANOMELINE,57.381520406919904,mg,57.381520406919904,57.381520406919904,mg,URINE,2013-11-28
959,CDISCPILOT01,PP,01-705-1281,15,RENALCL,CLR,XANOMELINE,52.18425329776945,mL/min,52.18425329776945,52.18425329776945,mL/min,URINE,2013-11-28
960,CDISCPILOT01,PP,01-705-1281,16,TMAX,Time of CMAX,XANOMELINE,8,h,8,8,h,PLASMA,2013-11-28
961,CDISCPILOT01,PP,01-705-1292,1,AUCALL,AUC All,XANOMELINE,19.405865941193085,h*ug/ml,19.405865941193085,19.405865941193085,h*ug/ml,PLASMA,2013-10-14
962,CDISCPILOT01,PP,01-705-1292,2,AUCALL,AUC All,XANOMELINE,19.405865941193085,h*ug/ml,19.405865941193085,19.405865941193085,h*ug/ml,PLASMA,2013-10-14
963,CDISCPILOT01,PP,01-705-1292,3,AUCALL,AUC All,XANOMELINE,19.405865941193085,h*ug/ml,19.405865941193085,19.405865941193085,h*ug/ml,PLASMA,2013-10-14
964,CDISCPILOT01,PP,01-705-1292,4,AUCALL,AUC All,XANOMELINE,19.405865941193085,h*ug/ml,19.405865941193085,19.405865941193085,h*ug/ml,PLASMA,2013-10-14
965,CDISCPILOT01,PP,01-705-1292,5,AUCLST,AUC to Last Nonzero Conc,XANOMELINE,19.35735848755347,h*ug/ml,19.35735848755347,19.35735848755347,h*ug/ml,PLASMA,2013-10-14
966,CDISCPILOT01,PP,01-705-1292,6,CLST,Last Nonzero Conc,XANOMELINE,0.014709524117230872,ug/ml,0.014709524117230872,0.014709524117230872,ug/ml,PLASMA,2013-10-14
967,CDISCPILOT01,PP,01-705-1292,7,CLST,Last Nonzero Conc,XANOMELINE,0.014709524117230872,ug/ml,0.014709524117230872,0.014709524117230872,ug/ml,PLASMA,2013-10-14
968,CDISCPILOT01,PP,01-705-1292,8,CLST,Last Nonzero Conc,XANOMELINE,0.014709524117230872,ug/ml,0.014709524117230872,0.014709524117230872,ug/ml,PLASMA,2013-10-14
969,CDISCPILOT01,PP,01-705-1292,9,CLST,Last Nonzero Conc,XANOMELINE,0.014709524117230872,ug/ml,0.014709524117230872,0.014709524117230872,ug/ml,PLASMA,2013-10-14
970,CDISCPILOT01,PP,01-705-1292,10,CMAX,Max Conc,XANOMELINE,1.8811299805352553,ug/ml,1.8811299805352553,1.8811299805352553,ug/ml,PLASMA,2013-10-14
971,CDISCPILOT01,PP,01-705-1292,11,LAMZ,Lambda z,XANOMELINE,0.30324255374265313,/h,0.30324255374265313,0.30324255374265313,/h,PLASMA,2013-10-14
972,CDISCPILOT01,PP,01-705-1292,12,LAMZHL,Half-Life Lambda z,XANOMELINE,2.2852993138559126,h,2.2852993138559126,2.2852993138559126,h,PLASMA,2013-10-14
973,CDISCPILOT01,PP,01-705-1292,13,LAMZNPT,Number of Points for Lambda z,XANOMELINE,4,U,4,4,U,PLASMA,2013-10-14
974,CDISCPILOT01,PP,01-705-1292,14,RCAMINT,Ae,XANOMELINE,63.38108705106759,mg,63.38108705106759,63.38108705106759,mg,URINE,2013-10-14
975,CDISCPILOT01,PP,01-705-1292,15,RENALCL,CLR,XANOMELINE,54.5710537690536,mL/min,54.5710537690536,54.5710537690536,mL/min,URINE,2013-10-14
976,CDISCPILOT01,PP,01-705-1292,16,TMAX,Time of CMAX,XANOMELINE,8,h,8,8,h,PLASMA,2013-10-14
977,CDISCPILOT01,PP,01-705-1303,1,AUCALL,AUC All,XANOMELINE,19.03514034483947,h*ug/ml,19.03514034483947,19.03514034483947,h*ug/ml,PLASMA,2013-12-16
978,CDISCPILOT01,PP,01-705-1303,2,AUCALL,AUC All,XANOMELINE,19.03514034483947,h*ug/ml,19.03514034483947,19.03514034483947,h*ug/ml,PLASMA,2013-12-16
979,CDISCPILOT01,PP,01-705-1303,3,AUCALL,AUC All,XANOMELINE,19.03514034483947,h*ug/ml,19.03514034483947,19.03514034483947,h*ug/ml,PLASMA,2013-12-16
980,CDISCPILOT01,PP,01-705-1303,4,AUCALL,AUC All,XANOMELINE,19.03514034483947,h*ug/ml,19.03514034483947,19.03514034483947,h*ug/ml,PLASMA,2013-12-16
981,CDISCPILOT01,PP,01-705-1303,5,AUCLST,AUC to Last Nonzero Conc,XANOMELINE,18.988309150868307,h*ug/ml,18.988309150868307,18.988309150868307,h*ug/ml,PLASMA,2013-12-16
982,CDISCPILOT01,PP,01-705-1303,6,CLST,Last Nonzero Conc,XANOMELINE,0.014240905632415776,ug/ml,0.014240905632415776,0.014240905632415776,ug/ml,PLASMA,2013-12-16
983,CDISCPILOT01,PP,01-705-1303,7,CLST,Last Nonzero Conc,XANOMELINE,0.014240905632415776,ug/ml,0.014240905632415776,0.014240905632415776,ug/ml,PLASMA,2013-12-16
984,CDISCPILOT01,PP,01-705-1303,8,CLST,Last Nonzero Conc,XANOMELINE,0.014240905632415776,ug/ml,0.014240905632415776,0.014240905632415776,ug/ml,PLASMA,2013-12-16
985,CDISCPILOT01,PP,01-705-1303,9,CLST,Last Nonzero Conc,XANOMELINE,0.014240905632415776,ug/ml,0.014240905632415776,0.014240905632415776,ug/ml,PLASMA,2013-12-16
986,CDISCPILOT01,PP,01-705-1303,10,CMAX,Max Conc,XANOMELINE,1.8460890369368186,ug/ml,1.8460890369368186,1.8460890369368186,ug/ml,PLASMA,2013-12-16
987,CDISCPILOT01,PP,01-705-1303,11,LAMZ,Lambda z,XANOMELINE,0.3040901677882616,/h,0.3040901677882616,0.3040901677882616,/h,PLASMA,2013-12-16
988,CDISCPILOT01,PP,01-705-1303,12,LAMZHL,Half-Life Lambda z,XANOMELINE,2.278929322313824,h,2.278929322313824,2.278929322313824,h,PLASMA,2013-12-16
989,CDISCPILOT01,PP,01-705-1303,13,LAMZNPT,Number of Points for Lambda z,XANOMELINE,4,U,4,4,U,PLASMA,2013-12-16
990,CDISCPILOT01,PP,01-705-1303,14,RCAMINT,Ae,XANOMELINE,63.04194364949275,mg,63.04194364949275,63.04194364949275,mg,URINE,2013-12-16
991,CDISCPILOT01,PP,01-705-1303,15,RENALCL,CLR,XANOMELINE,55.333998013026466,mL/min,55.333998013026466,55.333998013026466,mL/min,URINE,2013-12-16
992,CDISCPILOT01,PP,01-705-1303,16,TMAX,Time of CMAX,XANOMELINE,8,h,8,8,h,PLASMA,2013-12-16
993,CDISCPILOT01,PP,01-705-1310,1,AUCALL,AUC All,XANOMELINE,18.25477957291704,h*ug/ml,18.25477957291704,18.25477957291704,h*ug/ml,PLASMA,2013-11-02
994,CDISCPILOT01,PP,01-705-1310,2,AUCALL,AUC All,XANOMELINE,18.25477957291704,h*ug/ml,18.25477957291704,18.25477957291704,h*ug/ml,PLASMA,2013-11-02
995,CDISCPILOT01,PP,01-705-1310,3,AUCALL,AUC All,XANOMELINE,18.25477957291704,h*ug/ml,18.25477957291704,18.25477957291704,h*ug/ml,PLASMA,2013-11-02
996,CDISCPILOT01,PP,01-705-1310,4,AUCALL,AUC All,XANOMELINE,18.25477957291704,h*ug/ml,18.25477957291704,18.25477957291704,h*ug/ml,PLASMA,2013-11-02
997,CDISCPILOT01,PP,01-705-1310,5,AUCLST,AUC to Last Nonzero Conc,XANOMELINE,18.22101636689965,h*ug/ml,18.22101636689965,18.22101636689965,h*ug/ml,PLASMA,2013-11-02
998,CDISCPILOT01,PP,01-705-1310,6,CLST,Last Nonzero Conc,XANOMELINE,0.010782624739838483,ug/ml,0.010782624739838483,0.010782624739838483,ug/ml,PLASMA,2013-11-02
999,CDISCPILOT01,PP,01-705-1310,7,CLST,Last Nonzero Conc,XANOMELINE,0.010782624739838483,ug/ml,0.010782624739838483,0.010782624739838483,ug/ml,PLASMA,2013-11-02
1000,CDISCPILOT01,PP,01-705-1310,8,CLST,Last Nonzero Conc,XANOMELINE,0.010782624739838483,ug/ml,0.010782624739838483,0.010782624739838483,ug/ml,PLASMA,2013-11-02
1001,CDISCPILOT01,PP,01-705-1310,9,CLST,Last Nonzero Conc,XANOMELINE,0.010782624739838483,ug/ml,0.010782624739838483,0.010782624739838483,ug/ml,PLASMA,2013-11-02
1002,CDISCPILOT01,PP,01-705-1310,10,CMAX,Max Conc,XANOMELINE,1.7849457970720555,ug/ml,1.7849457970720555,1.7849457970720555,ug/ml,PLASMA,2013-11-02
1003,CDISCPILOT01,PP,01-705-1310,11,LAMZ,Lambda z,XANOMELINE,0.31936021520838354,/h,0.31936021520838354,0.31936021520838354,/h,PLASMA,2013-11-02
1004,CDISCPILOT01,PP,01-705-1310,12,LAMZHL,Half-Life Lambda z,XANOMELINE,2.169963467577874,h,2.169963467577874,2.169963467577874,h,PLASMA,2013-11-02
1005,CDISCPILOT01,PP,01-705-1310,13,LAMZNPT,Number of Points for Lambda z,XANOMELINE,4,U,4,4,U,PLASMA,2013-11-02
1006,CDISCPILOT01,PP,01-705-1310,14,RCAMINT,Ae,XANOMELINE,57.16271506911303,mg,57.16271506911303,57.16271506911303,mg,URINE,2013-11-02
1007,CDISCPILOT01,PP,01-705-1310,15,RENALCL,CLR,XANOMELINE,52.286431153711575,mL/min,52.286431153711575,52.286431153711575,mL/min,URINE,2013-11-02
1008,CDISCPILOT01,PP,01-705-1310,16,TMAX,Time of CMAX,XANOMELINE,8,h,8,8,h,PLASMA,2013-11-02
1009,CDISCPILOT01,PP,01-705-1377,1,AUCALL,AUC All,XANOMELINE,19.077314588743192,h*ug/ml,19.077314588743192,19.077314588743192,h*ug/ml,PLASMA,2014-01-04
1010,CDISCPILOT01,PP,01-705-1377,2,AUCALL,AUC All,XANOMELINE,19.077314588743192,h*ug/ml,19.077314588743192,19.077314588743192,h*ug/ml,PLASMA,2014-01-04
1011,CDISCPILOT01,PP,01-705-1377,3,AUCALL,AUC All,XANOMELINE,19.077314588743192,h*ug/ml,19.077314588743192,19.077314588743192,h*ug/ml,PLASMA,2014-01-04
1012,CDISCPILOT01,PP,01-705-1377,4,AUCALL,AUC All,XANOMELINE,19.077314588743192,h*ug/ml,19.077314588743192,19.077314588743192,h*ug/ml,PLASMA,2014-01-04
1013,CDISCPILOT01,PP,01-705-1377,5,AUCLST,AUC to Last Nonzero Conc,XANOMELINE,19.025581806823233,h*ug/ml,19.025581806823233,19.025581806823233,h*ug/ml,PLASMA,2014-01-04
1014,CDISCPILOT01,PP,01-705-1377,6,CLST,Last Nonzero Conc,XANOMELINE,0.0154628597667127,ug/ml,0.0154628597667127,0.0154628597667127,ug/ml,PLASMA,2014-01-04
1015,CDISCPILOT01,PP,01-705-1377,7,CLST,Last Nonzero Conc,XANOMELINE,0.0154628597667127,ug/ml,0.0154628597667127,0.0154628597667127,ug/ml,PLASMA,2014-01-04
1016,CDISCPILOT01,PP,01-705-1377,8,CLST,Last Nonzero Conc,XANOMELINE,0.0154628597667127,ug/ml,0.0154628597667127,0.0154628597667127,ug/ml,PLASMA,2014-01-04
1017,CDISCPILOT01,PP,01-705-1377,9,CLST,Last Nonzero Conc,XANOMELINE,0.0154628597667127,ug/ml,0.0154628597667127,0.0154628597667127,ug/ml,PLASMA,2014-01-04
1018,CDISCPILOT01,PP,01-705-1377,10,CMAX,Max Conc,XANOMELINE,1.8445846325759265,ug/ml,1.8445846325759265,1.8445846325759265,ug/ml,PLASMA,2014-01-04
1019,CDISCPILOT01,PP,01-705-1377,11,LAMZ,Lambda z,XANOMELINE,0.2988986710715908,/h,0.2988986710715908,0.2988986710715908,/h,PLASMA,2014-01-04
1020,CDISCPILOT01,PP,01-705-1377,12,LAMZHL,Half-Life Lambda z,XANOMELINE,2.3185114792096746,h,2.3185114792096746,2.3185114792096746,h,PLASMA,2014-01-04
1021,CDISCPILOT01,PP,01-705-1377,13,LAMZNPT,Number of Points for Lambda z,XANOMELINE,4,U,4,4,U,PLASMA,2014-01-04
1022,CDISCPILOT01,PP,01-705-1377,14,RCAMINT,Ae,XANOMELINE,65.14166320336253,mg,65.14166320336253,65.14166320336253,mg,URINE,2014-01-04
1023,CDISCPILOT01,PP,01-705-1377,15,RENALCL,CLR,XANOMELINE,57.064976921407,mL/min,57.064976921407,57.064976921407,mL/min,URINE,2014-01-04
1024,CDISCPILOT01,PP,01-705-1377,16,TMAX,Time of CMAX,XANOMELINE,8,h,8,8,h,PLASMA,2014-01-04
1025,CDISCPILOT01,PP,01-705-1382,1,AUCALL,AUC All,XANOMELINE,19.18413122554398,h*ug/ml,19.18413122554398,19.18413122554398,h*ug/ml,PLASMA,2013-05-13
1026,CDISCPILOT01,PP,01-705-1382,2,AUCALL,AUC All,XANOMELINE,19.18413122554398,h*ug/ml,19.18413122554398,19.18413122554398,h*ug/ml,PLASMA,2013-05-13
1027,CDISCPILOT01,PP,01-705-1382,3,AUCALL,AUC All,XANOMELINE,19.18413122554398,h*ug/ml,19.18413122554398,19.18413122554398,h*ug/ml,PLASMA,2013-05-13
1028,CDISCPILOT01,PP,01-705-1382,4,AUCALL,AUC All,XANOMELINE,19.18413122554398,h*ug/ml,19.18413122554398,19.18413122554398,h*ug/ml,PLASMA,2013-05-13
1029,CDISCPILOT01,PP,01-705-1382,5,AUCLST,AUC to Last Nonzero Conc,XANOMELINE,19.117754375163067,h*ug/ml,19.117754375163067,19.117754375163067,h*ug/ml,PLASMA,2013-05-13
1030,CDISCPILOT01,PP,01-705-1382,6,CLST,Last Nonzero Conc,XANOMELINE,0.018979887945384705,ug/ml,0.018979887945384705,0.018979887945384705,ug/ml,PLASMA,2013-05-13
1031,CDISCPILOT01,PP,01-705-1382,7,CLST,Last Nonzero Conc,XANOMELINE,0.018979887945384705,ug/ml,0.018979887945384705,0.018979887945384705,ug/ml,PLASMA,2013-05-13
1032,CDISCPILOT01,PP,01-705-1382,8,CLST,Last Nonzero Conc,XANOMELINE,0.018979887945384705,ug/ml,0.018979887945384705,0.018979887945384705,ug/ml,PLASMA,2013-05-13
1033,CDISCPILOT01,PP,01-705-1382,9,CLST,Last Nonzero Conc,XANOMELINE,0.018979887945384705,ug/ml,0.018979887945384705,0.018979887945384705,ug/ml,PLASMA,2013-05-13
1034,CDISCPILOT01,PP,01-705-1382,10,CMAX,Max Conc,XANOMELINE,1.839802572137511,ug/ml,1.839802572137511,1.839802572137511,ug/ml,PLASMA,2013-05-13
1035,CDISCPILOT01,PP,01-705-1382,11,LAMZ,Lambda z,XANOMELINE,0.2859413761946558,/h,0.2859413761946558,0.2859413761946558,/h,PLASMA,2013-05-13
1036,CDISCPILOT01,PP,01-705-1382,12,LAMZHL,Half-Life Lambda z,XANOMELINE,2.423573703192354,h,2.423573703192354,2.423573703192354,h,PLASMA,2013-05-13
1037,CDISCPILOT01,PP,01-705-1382,13,LAMZNPT,Number of Points for Lambda z,XANOMELINE,4,U,4,4,U,PLASMA,2013-05-13
1038,CDISCPILOT01,PP,01-705-1382,14,RCAMINT,Ae,XANOMELINE,71.76449402708388,mg,71.76449402708388,71.76449402708388,mg,URINE,2013-05-13
1039,CDISCPILOT01,PP,01-705-1382,15,RENALCL,CLR,XANOMELINE,62.56356667105658,mL/min,62.56356667105658,62.56356667105658,mL/min,URINE,2013-05-13
1040,CDISCPILOT01,PP,01-705-1382,16,TMAX,Time of CMAX,XANOMELINE,8,h,8,8,h,PLASMA,2013-05-13
1041,CDISCPILOT01,PP,01-705-1393,1,AUCALL,AUC All,XANOMELINE,19.59656554008828,h*ug/ml,19.59656554008828,19.59656554008828,h*ug/ml,PLASMA,2012-09-07
1042,CDISCPILOT01,PP,01-705-1393,2,AUCALL,AUC All,XANOMELINE,19.59656554008828,h*ug/ml,19.59656554008828,19.59656554008828,h*ug/ml,PLASMA,2012-09-07
1043,CDISCPILOT01,PP,01-705-1393,3,AUCALL,AUC All,XANOMELINE,19.59656554008828,h*ug/ml,19.59656554008828,19.59656554008828,h*ug/ml,PLASMA,2012-09-07
1044,CDISCPILOT01,PP,01-705-1393,4,AUCALL,AUC All,XANOMELINE,19.59656554008828,h*ug/ml,19.59656554008828,19.59656554008828,h*ug/ml,PLASMA,2012-09-07
1045,CDISCPILOT01,PP,01-705-1393,5,AUCLST,AUC to Last Nonzero Conc,XANOMELINE,19.56245897243352,h*ug/ml,19.56245897243352,19.56245897243352,h*ug/ml,PLASMA,2012-09-07
1046,CDISCPILOT01,PP,01-705-1393,6,CLST,Last Nonzero Conc,XANOMELINE,0.011003609362856017,ug/ml,0.011003609362856017,0.011003609362856017,ug/ml,PLASMA,2012-09-07
1047,CDISCPILOT01,PP,01-705-1393,7,CLST,Last Nonzero Conc,XANOMELINE,0.011003609362856017,ug/ml,0.011003609362856017,0.011003609362856017,ug/ml,PLASMA,2012-09-07
1048,CDISCPILOT01,PP,01-705-1393,8,CLST,Last Nonzero Conc,XANOMELINE,0.011003609362856017,ug/ml,0.011003609362856017,0.011003609362856017,ug/ml,PLASMA,2012-09-07
1049,CDISCPILOT01,PP,01-705-1393,9,CLST,Last Nonzero Conc,XANOMELINE,0.011003609362856017,ug/ml,0.011003609362856017,0.011003609362856017,ug/ml,PLASMA,2012-09-07
1050,CDISCPILOT01,PP,01-705-1393,10,CMAX,Max Conc,XANOMELINE,1.9192491092740218,ug/ml,1.9192491092740218,1.9192491092740218,ug/ml,PLASMA,2012-09-07
1051,CDISCPILOT01,PP,01-705-1393,11,LAMZ,Lambda z,XANOMELINE,0.3226243541783265,/h,0.3226243541783265,0.3226243541783265,/h,PLASMA,2012-09-07
1052,CDISCPILOT01,PP,01-705-1393,12,LAMZHL,Half-Life Lambda z,XANOMELINE,2.148008949184763,h,2.148008949184763,2.148008949184763,h,PLASMA,2012-09-07
1053,CDISCPILOT01,PP,01-705-1393,13,LAMZNPT,Number of Points for Lambda z,XANOMELINE,4,U,4,4,U,PLASMA,2012-09-07
1054,CDISCPILOT01,PP,01-705-1393,14,RCAMINT,Ae,XANOMELINE,55.95933492084107,mg,55.95933492084107,55.95933492084107,mg,URINE,2012-09-07
1055,CDISCPILOT01,PP,01-705-1393,15,RENALCL,CLR,XANOMELINE,47.675784691907666,mL/min,47.675784691907666,47.675784691907666,mL/min,URINE,2012-09-07
1056,CDISCPILOT01,PP,01-705-1393,16,TMAX,Time of CMAX,XANOMELINE,8,h,8,8,h,PLASMA,2012-09-07
1057,CDISCPILOT01,PP,01-705-1431,1,AUCALL,AUC All,XANOMELINE,18.872863934289704,h*ug/ml,18.872863934289704,18.872863934289704,h*ug/ml,PLASMA,2013-06-23
1058,CDISCPILOT01,PP,01-705-1431,2,AUCALL,AUC All,XANOMELINE,18.872863934289704,h*ug/ml,18.872863934289704,18.872863934289704,h*ug/ml,PLASMA,2013-06-23
1059,CDISCPILOT01,PP,01-705-1431,3,AUCALL,AUC All,XANOMELINE,18.872863934289704,h*ug/ml,18.872863934289704,18.872863934289704,h*ug/ml,PLASMA,2013-06-23
1060,CDISCPILOT01,PP,01-705-1431,4,AUCALL,AUC All,XANOMELINE,18.872863934289704,h*ug/ml,18.872863934289704,18.872863934289704,h*ug/ml,PLASMA,2013-06-23
1061,CDISCPILOT01,PP,01-705-1431,5,AUCLST,AUC to Last Nonzero Conc,XANOMELINE,18.831984984791696,h*ug/ml,18.831984984791696,18.831984984791696,h*ug/ml,PLASMA,2013-06-23
1062,CDISCPILOT01,PP,01-705-1431,6,CLST,Last Nonzero Conc,XANOMELINE,0.01270917237642201,ug/ml,0.01270917237642201,0.01270917237642201,ug/ml,PLASMA,2013-06-23
1063,CDISCPILOT01,PP,01-705-1431,7,CLST,Last Nonzero Conc,XANOMELINE,0.01270917237642201,ug/ml,0.01270917237642201,0.01270917237642201,ug/ml,PLASMA,2013-06-23
1064,CDISCPILOT01,PP,01-705-1431,8,CLST,Last Nonzero Conc,XANOMELINE,0.01270917237642201,ug/ml,0.01270917237642201,0.01270917237642201,ug/ml,PLASMA,2013-06-23
1065,CDISCPILOT01,PP,01-705-1431,9,CLST,Last Nonzero Conc,XANOMELINE,0.01270917237642201,ug/ml,0.01270917237642201,0.01270917237642201,ug/ml,PLASMA,2013-06-23
1066,CDISCPILOT01,PP,01-705-1431,10,CMAX,Max Conc,XANOMELINE,1.8372730616853572,ug/ml,1.8372730616853572,1.8372730616853572,ug/ml,PLASMA,2013-06-23
1067,CDISCPILOT01,PP,01-705-1431,11,LAMZ,Lambda z,XANOMELINE,0.3108977244398333,/h,0.3108977244398333,0.3108977244398333,/h,PLASMA,2013-06-23
1068,CDISCPILOT01,PP,01-705-1431,12,LAMZHL,Half-Life Lambda z,XANOMELINE,2.2290288590842136,h,2.2290288590842136,2.2290288590842136,h,PLASMA,2013-06-23
1069,CDISCPILOT01,PP,01-705-1431,13,LAMZNPT,Number of Points for Lambda z,XANOMELINE,4,U,4,4,U,PLASMA,2013-06-23
1070,CDISCPILOT01,PP,01-705-1431,14,RCAMINT,Ae,XANOMELINE,60.368239353952404,mg,60.368239353952404,60.368239353952404,mg,URINE,2013-06-23
1071,CDISCPILOT01,PP,01-705-1431,15,RENALCL,CLR,XANOMELINE,53.427045708586114,mL/min,53.427045708586114,53.427045708586114,mL/min,URINE,2013-06-23
1072,CDISCPILOT01,PP,01-705-1431,16,TMAX,Time of CMAX,XANOMELINE,8,h,8,8,h,PLASMA,2013-06-23
1073,CDISCPILOT01,PP,01-706-1049,1,AUCALL,AUC All,XANOMELINE,18.737196059180985,h*ug/ml,18.737196059180985,18.737196059180985,h*ug/ml,PLASMA,2013-05-14
1074,CDISCPILOT01,PP,01-706-1049,2,AUCALL,AUC All,XANOMELINE,18.737196059180985,h*ug/ml,18.737196059180985,18.737196059180985,h*ug/ml,PLASMA,2013-05-14
1075,CDISCPILOT01,PP,01-706-1049,3,AUCALL,AUC All,XANOMELINE,18.737196059180985,h*ug/ml,18.737196059180985,18.737196059180985,h*ug/ml,PLASMA,2013-05-14
1076,CDISCPILOT01,PP,01-706-1049,4,AUCALL,AUC All,XANOMELINE,18.737196059180985,h*ug/ml,18.737196059180985,18.737196059180985,h*ug/ml,PLASMA,2013-05-14
1077,CDISCPILOT01,PP,01-706-1049,5,AUCLST,AUC to Last Nonzero Conc,XANOMELINE,18.67366117686388,h*ug/ml,18.67366117686388,18.67366117686388,h*ug/ml,PLASMA,2013-05-14
1078,CDISCPILOT01,PP,01-706-1049,6,CLST,Last Nonzero Conc,XANOMELINE,0.018235310487492235,ug/ml,0.018235310487492235,0.018235310487492235,ug/ml,PLASMA,2013-05-14
1079,CDISCPILOT01,PP,01-706-1049,7,CLST,Last Nonzero Conc,XANOMELINE,0.018235310487492235,ug/ml,0.018235310487492235,0.018235310487492235,ug/ml,PLASMA,2013-05-14
1080,CDISCPILOT01,PP,01-706-1049,8,CLST,Last Nonzero Conc,XANOMELINE,0.018235310487492235,ug/ml,0.018235310487492235,0.018235310487492235,ug/ml,PLASMA,2013-05-14
1081,CDISCPILOT01,PP,01-706-1049,9,CLST,Last Nonzero Conc,XANOMELINE,0.018235310487492235,ug/ml,0.018235310487492235,0.018235310487492235,ug/ml,PLASMA,2013-05-14
1082,CDISCPILOT01,PP,01-706-1049,10,CMAX,Max Conc,XANOMELINE,1.798220461153169,ug/ml,1.798220461153169,1.798220461153169,ug/ml,PLASMA,2013-05-14
1083,CDISCPILOT01,PP,01-706-1049,11,LAMZ,Lambda z,XANOMELINE,0.28701257990027934,/h,0.28701257990027934,0.28701257990027934,/h,PLASMA,2013-05-14
1084,CDISCPILOT01,PP,01-706-1049,12,LAMZHL,Half-Life Lambda z,XANOMELINE,2.4145283117582452,h,2.4145283117582452,2.4145283117582452,h,PLASMA,2013-05-14
1085,CDISCPILOT01,PP,01-706-1049,13,LAMZNPT,Number of Points for Lambda z,XANOMELINE,4,U,4,4,U,PLASMA,2013-05-14
1086,CDISCPILOT01,PP,01-706-1049,14,RCAMINT,Ae,XANOMELINE,71.05697997056203,mg,71.05697997056203,71.05697997056203,mg,URINE,2013-05-14
1087,CDISCPILOT01,PP,01-706-1049,15,RENALCL,CLR,XANOMELINE,63.41996828006385,mL/min,63.41996828006385,63.41996828006385,mL/min,URINE,2013-05-14
1088,CDISCPILOT01,PP,01-706-1049,16,TMAX,Time of CMAX,XANOMELINE,8,h,8,8,h,PLASMA,2013-05-14
1089,CDISCPILOT01,PP,01-706-1384,1,AUCALL,AUC All,XANOMELINE,19.679247277657115,h*ug/ml,19.679247277657115,19.679247277657115,h*ug/ml,PLASMA,2012-09-15
1090,CDISCPILOT01,PP,01-706-1384,2,AUCALL,AUC All,XANOMELINE,19.679247277657115,h*ug/ml,19.679247277657115,19.679247277657115,h*ug/ml,PLASMA,2012-09-15
1091,CDISCPILOT01,PP,01-706-1384,3,AUCALL,AUC All,XANOMELINE,19.679247277657115,h*ug/ml,19.679247277657115,19.679247277657115,h*ug/ml,PLASMA,2012-09-15
1092,CDISCPILOT01,PP,01-706-1384,4,AUCALL,AUC All,XANOMELINE,19.679247277657115,h*ug/ml,19.679247277657115,19.679247277657115,h*ug/ml,PLASMA,2012-09-15
1093,CDISCPILOT01,PP,01-706-1384,5,AUCLST,AUC to Last Nonzero Conc,XANOMELINE,19.643509345806116,h*ug/ml,19.643509345806116,19.643509345806116,h*ug/ml,PLASMA,2012-09-15
1094,CDISCPILOT01,PP,01-706-1384,6,CLST,Last Nonzero Conc,XANOMELINE,0.011448360638878744,ug/ml,0.011448360638878744,0.011448360638878744,ug/ml,PLASMA,2012-09-15
1095,CDISCPILOT01,PP,01-706-1384,7,CLST,Last Nonzero Conc,XANOMELINE,0.011448360638878744,ug/ml,0.011448360638878744,0.011448360638878744,ug/ml,PLASMA,2012-09-15
1096,CDISCPILOT01,PP,01-706-1384,8,CLST,Last Nonzero Conc,XANOMELINE,0.011448360638878744,ug/ml,0.011448360638878744,0.011448360638878744,ug/ml,PLASMA,2012-09-15
1097,CDISCPILOT01,PP,01-706-1384,9,CLST,Last Nonzero Conc,XANOMELINE,0.011448360638878744,ug/ml,0.011448360638878744,0.011448360638878744,ug/ml,PLASMA,2012-09-15
1098,CDISCPILOT01,PP,01-706-1384,10,CMAX,Max Conc,XANOMELINE,1.925175480558887,ug/ml,1.925175480558887,1.925175480558887,ug/ml,PLASMA,2012-09-15
1099,CDISCPILOT01,PP,01-706-1384,11,LAMZ,Lambda z,XANOMELINE,0.32034200206686736,/h,0.32034200206686736,0.32034200206686736,/h,PLASMA,2012-09-15
1100,CDISCPILOT01,PP,01-706-1384,12,LAMZHL,Half-Life Lambda z,XANOMELINE,2.1633129453169393,h,2.1633129453169393,2.1633129453169393,h,PLASMA,2012-09-15
1101,CDISCPILOT01,PP,01-706-1384,13,LAMZNPT,Number of Points for Lambda z,XANOMELINE,4,U,4,4,U,PLASMA,2012-09-15
1102,CDISCPILOT01,PP,01-706-1384,14,RCAMINT,Ae,XANOMELINE,56.798883375944115,mg,56.798883375944115,56.798883375944115,mg,URINE,2012-09-15
1103,CDISCPILOT01,PP,01-706-1384,15,RENALCL,CLR,XANOMELINE,48.191391853708886,mL/min,48.191391853708886,48.191391853708886,mL/min,URINE,2012-09-15
1104,CDISCPILOT01,PP,01-706-1384,16,TMAX,Time of CMAX,XANOMELINE,8,h,8,8,h,PLASMA,2012-09-15
1105,CDISCPILOT01,PP,01-707-1037,1,AUCALL,AUC All,XANOMELINE,19.868910825576997,h*ug/ml,19.868910825576997,19.868910825576997,h*ug/ml,PLASMA,2013-12-20
1106,CDISCPILOT01,PP,01-707-1037,2,AUCALL,AUC All,XANOMELINE,19.868910825576997,h*ug/ml,19.868910825576997,19.868910825576997,h*ug/ml,PLASMA,2013-12-20
1107,CDISCPILOT01,PP,01-707-1037,3,AUCALL,AUC All,XANOMELINE,19.868910825576997,h*ug/ml,19.868910825576997,19.868910825576997,h*ug/ml,PLASMA,2013-12-20
1108,CDISCPILOT01,PP,01-707-1037,4,AUCALL,AUC All,XANOMELINE,19.868910825576997,h*ug/ml,19.868910825576997,19.868910825576997,h*ug/ml,PLASMA,2013-12-20
1109,CDISCPILOT01,PP,01-707-1037,5,AUCLST,AUC to Last Nonzero Conc,XANOMELINE,19.822686993721153,h*ug/ml,19.822686993721153,19.822686993721153,h*ug/ml,PLASMA,2013-12-20
1110,CDISCPILOT01,PP,01-707-1037,6,CLST,Last Nonzero Conc,XANOMELINE,0.014194283803170721,ug/ml,0.014194283803170721,0.014194283803170721,ug/ml,PLASMA,2013-12-20
1111,CDISCPILOT01,PP,01-707-1037,7,CLST,Last Nonzero Conc,XANOMELINE,0.014194283803170721,ug/ml,0.014194283803170721,0.014194283803170721,ug/ml,PLASMA,2013-12-20
1112,CDISCPILOT01,PP,01-707-1037,8,CLST,Last Nonzero Conc,XANOMELINE,0.014194283803170721,ug/ml,0.014194283803170721,0.014194283803170721,ug/ml,PLASMA,2013-12-20
1113,CDISCPILOT01,PP,01-707-1037,9,CLST,Last Nonzero Conc,XANOMELINE,0.014194283803170721,ug/ml,0.014194283803170721,0.014194283803170721,ug/ml,PLASMA,2013-12-20
1114,CDISCPILOT01,PP,01-707-1037,10,CMAX,Max Conc,XANOMELINE,1.9301963442117758,ug/ml,1.9301963442117758,1.9301963442117758,ug/ml,PLASMA,2013-12-20
1115,CDISCPILOT01,PP,01-707-1037,11,LAMZ,Lambda z,XANOMELINE,0.3070771771461525,/h,0.3070771771461525,0.3070771771461525,/h,PLASMA,2013-12-20
1116,CDISCPILOT01,PP,01-707-1037,12,LAMZHL,Half-Life Lambda z,XANOMELINE,2.2567616598551985,h,2.2567616598551985,2.2567616598551985,h,PLASMA,2013-12-20
1117,CDISCPILOT01,PP,01-707-1037,13,LAMZNPT,Number of Points for Lambda z,XANOMELINE,4,U,4,4,U,PLASMA,2013-12-20
1118,CDISCPILOT01,PP,01-707-1037,14,RCAMINT,Ae,XANOMELINE,61.85794021726632,mg,61.85794021726632,61.85794021726632,mg,URINE,2013-12-20
1119,CDISCPILOT01,PP,01-707-1037,15,RENALCL,CLR,XANOMELINE,52.009380494901166,mL/min,52.009380494901166,52.009380494901166,mL/min,URINE,2013-12-20
1120,CDISCPILOT01,PP,01-707-1037,16,TMAX,Time of CMAX,XANOMELINE,8,h,8,8,h,PLASMA,2013-12-20
1121,CDISCPILOT01,PP,01-708-1019,1,AUCALL,AUC All,XANOMELINE,19.412514888098524,h*ug/ml,19.412514888098524,19.412514888098524,h*ug/ml,PLASMA,2013-12-20
1122,CDISCPILOT01,PP,01-708-1019,2,AUCALL,AUC All,XANOMELINE,19.412514888098524,h*ug/ml,19.412514888098524,19.412514888098524,h*ug/ml,PLASMA,2013-12-20
1123,CDISCPILOT01,PP,01-708-1019,3,AUCALL,AUC All,XANOMELINE,19.412514888098524,h*ug/ml,19.412514888098524,19.412514888098524,h*ug/ml,PLASMA,2013-12-20
1124,CDISCPILOT01,PP,01-708-1019,4,AUCALL,AUC All,XANOMELINE,19.412514888098524,h*ug/ml,19.412514888098524,19.412514888098524,h*ug/ml,PLASMA,2013-12-20
1125,CDISCPILOT01,PP,01-708-1019,5,AUCLST,AUC to Last Nonzero Conc,XANOMELINE,19.35328036190797,h*ug/ml,19.35328036190797,19.35328036190797,h*ug/ml,PLASMA,2013-12-20
1126,CDISCPILOT01,PP,01-708-1019,6,CLST,Last Nonzero Conc,XANOMELINE,0.017333033674148086,ug/ml,0.017333033674148086,0.017333033674148086,ug/ml,PLASMA,2013-12-20
1127,CDISCPILOT01,PP,01-708-1019,7,CLST,Last Nonzero Conc,XANOMELINE,0.017333033674148086,ug/ml,0.017333033674148086,0.017333033674148086,ug/ml,PLASMA,2013-12-20
1128,CDISCPILOT01,PP,01-708-1019,8,CLST,Last Nonzero Conc,XANOMELINE,0.017333033674148086,ug/ml,0.017333033674148086,0.017333033674148086,ug/ml,PLASMA,2013-12-20
1129,CDISCPILOT01,PP,01-708-1019,9,CLST,Last Nonzero Conc,XANOMELINE,0.017333033674148086,ug/ml,0.017333033674148086,0.017333033674148086,ug/ml,PLASMA,2013-12-20
1130,CDISCPILOT01,PP,01-708-1019,10,CMAX,Max Conc,XANOMELINE,1.869783135902916,ug/ml,1.869783135902916,1.869783135902916,ug/ml,PLASMA,2013-12-20
1131,CDISCPILOT01,PP,01-708-1019,11,LAMZ,Lambda z,XANOMELINE,0.292617072995376,/h,0.292617072995376,0.292617072995376,/h,PLASMA,2013-12-20
1132,CDISCPILOT01,PP,01-708-1019,12,LAMZHL,Half-Life Lambda z,XANOMELINE,2.3682828650635535,h,2.3682828650635535,2.3682828650635535,h,PLASMA,2013-12-20
1133,CDISCPILOT01,PP,01-708-1019,13,LAMZNPT,Number of Points for Lambda z,XANOMELINE,4,U,4,4,U,PLASMA,2013-12-20
1134,CDISCPILOT01,PP,01-708-1019,14,RCAMINT,Ae,XANOMELINE,67.75677080588066,mg,67.75677080588066,67.75677080588066,mg,URINE,2013-12-20
1135,CDISCPILOT01,PP,01-708-1019,15,RENALCL,CLR,XANOMELINE,58.35080628780871,mL/min,58.35080628780871,58.35080628780871,mL/min,URINE,2013-12-20
1136,CDISCPILOT01,PP,01-708-1019,16,TMAX,Time of CMAX,XANOMELINE,8,h,8,8,h,PLASMA,2013-12-20
1137,CDISCPILOT01,PP,01-708-1032,1,AUCALL,AUC All,XANOMELINE,18.516955675292515,h*ug/ml,18.516955675292515,18.516955675292515,h*ug/ml,PLASMA,2013-02-09
1138,CDISCPILOT01,PP,01-708-1032,2,AUCALL,AUC All,XANOMELINE,18.516955675292515,h*ug/ml,18.516955675292515,18.516955675292515,h*ug/ml,PLASMA,2013-02-09
1139,CDISCPILOT01,PP,01-708-1032,3,AUCALL,AUC All,XANOMELINE,18.516955675292515,h*ug/ml,18.516955675292515,18.516955675292515,h*ug/ml,PLASMA,2013-02-09
1140,CDISCPILOT01,PP,01-708-1032,4,AUCALL,AUC All,XANOMELINE,18.516955675292515,h*ug/ml,18.516955675292515,18.516955675292515,h*ug/ml,PLASMA,2013-02-09
1141,CDISCPILOT01,PP,01-708-1032,5,AUCLST,AUC to Last Nonzero Conc,XANOMELINE,18.453449925879266,h*ug/ml,18.453449925879266,18.453449925879266,h*ug/ml,PLASMA,2013-02-09
1142,CDISCPILOT01,PP,01-708-1032,6,CLST,Last Nonzero Conc,XANOMELINE,0.018188645683240173,ug/ml,0.018188645683240173,0.018188645683240173,ug/ml,PLASMA,2013-02-09
1143,CDISCPILOT01,PP,01-708-1032,7,CLST,Last Nonzero Conc,XANOMELINE,0.018188645683240173,ug/ml,0.018188645683240173,0.018188645683240173,ug/ml,PLASMA,2013-02-09
1144,CDISCPILOT01,PP,01-708-1032,8,CLST,Last Nonzero Conc,XANOMELINE,0.018188645683240173,ug/ml,0.018188645683240173,0.018188645683240173,ug/ml,PLASMA,2013-02-09
1145,CDISCPILOT01,PP,01-708-1032,9,CLST,Last Nonzero Conc,XANOMELINE,0.018188645683240173,ug/ml,0.018188645683240173,0.018188645683240173,ug/ml,PLASMA,2013-02-09
1146,CDISCPILOT01,PP,01-708-1032,10,CMAX,Max Conc,XANOMELINE,1.7763729819489171,ug/ml,1.7763729819489171,1.7763729819489171,ug/ml,PLASMA,2013-02-09
1147,CDISCPILOT01,PP,01-708-1032,11,LAMZ,Lambda z,XANOMELINE,0.28640943302442573,/h,0.28640943302442573,0.28640943302442573,/h,PLASMA,2013-02-09
1148,CDISCPILOT01,PP,01-708-1032,12,LAMZHL,Half-Life Lambda z,XANOMELINE,2.4196130437536922,h,2.4196130437536922,2.4196130437536922,h,PLASMA,2013-02-09
1149,CDISCPILOT01,PP,01-708-1032,13,LAMZNPT,Number of Points for Lambda z,XANOMELINE,4,U,4,4,U,PLASMA,2013-02-09
1150,CDISCPILOT01,PP,01-708-1032,14,RCAMINT,Ae,XANOMELINE,71.45491233825271,mg,71.45491233825271,71.45491233825271,mg,URINE,2013-02-09
1151,CDISCPILOT01,PP,01-708-1032,15,RENALCL,CLR,XANOMELINE,64.53618214594097,mL/min,64.53618214594097,64.53618214594097,mL/min,URINE,2013-02-09
1152,CDISCPILOT01,PP,01-708-1032,16,TMAX,Time of CMAX,XANOMELINE,8,h,8,8,h,PLASMA,2013-02-09
1153,CDISCPILOT01,PP,01-708-1084,1,AUCALL,AUC All,XANOMELINE,18.90421031174094,h*ug/ml,18.90421031174094,18.90421031174094,h*ug/ml,PLASMA,2013-05-09
1154,CDISCPILOT01,PP,01-708-1084,2,AUCALL,AUC All,XANOMELINE,18.90421031174094,h*ug/ml,18.90421031174094,18.90421031174094,h*ug/ml,PLASMA,2013-05-09
1155,CDISCPILOT01,PP,01-708-1084,3,AUCALL,AUC All,XANOMELINE,18.90421031174094,h*ug/ml,18.90421031174094,18.90421031174094,h*ug/ml,PLASMA,2013-05-09
1156,CDISCPILOT01,PP,01-708-1084,4,AUCALL,AUC All,XANOMELINE,18.90421031174094,h*ug/ml,18.90421031174094,18.90421031174094,h*ug/ml,PLASMA,2013-05-09
1157,CDISCPILOT01,PP,01-708-1084,5,AUCLST,AUC to Last Nonzero Conc,XANOMELINE,18.863785403613022,h*ug/ml,18.863785403613022,18.863785403613022,h*ug/ml,PLASMA,2013-05-09
1158,CDISCPILOT01,PP,01-708-1084,6,CLST,Last Nonzero Conc,XANOMELINE,0.012595762924503047,ug/ml,0.012595762924503047,0.012595762924503047,ug/ml,PLASMA,2013-05-09
1159,CDISCPILOT01,PP,01-708-1084,7,CLST,Last Nonzero Conc,XANOMELINE,0.012595762924503047,ug/ml,0.012595762924503047,0.012595762924503047,ug/ml,PLASMA,2013-05-09
1160,CDISCPILOT01,PP,01-708-1084,8,CLST,Last Nonzero Conc,XANOMELINE,0.012595762924503047,ug/ml,0.012595762924503047,0.012595762924503047,ug/ml,PLASMA,2013-05-09
1161,CDISCPILOT01,PP,01-708-1084,9,CLST,Last Nonzero Conc,XANOMELINE,0.012595762924503047,ug/ml,0.012595762924503047,0.012595762924503047,ug/ml,PLASMA,2013-05-09
1162,CDISCPILOT01,PP,01-708-1084,10,CMAX,Max Conc,XANOMELINE,1.8410035402849512,ug/ml,1.8410035402849512,1.8410035402849512,ug/ml,PLASMA,2013-05-09
1163,CDISCPILOT01,PP,01-708-1084,11,LAMZ,Lambda z,XANOMELINE,0.31158420656506836,/h,0.31158420656506836,0.31158420656506836,/h,PLASMA,2013-05-09
1164,CDISCPILOT01,PP,01-708-1084,12,LAMZHL,Half-Life Lambda z,XANOMELINE,2.22411786412313,h,2.22411786412313,2.22411786412313,h,PLASMA,2013-05-09
1165,CDISCPILOT01,PP,01-708-1084,13,LAMZNPT,Number of Points for Lambda z,XANOMELINE,4,U,4,4,U,PLASMA,2013-05-09
1166,CDISCPILOT01,PP,01-708-1084,14,RCAMINT,Ae,XANOMELINE,60.10343785459028,mg,60.10343785459028,60.10343785459028,mg,URINE,2013-05-09
1167,CDISCPILOT01,PP,01-708-1084,15,RENALCL,CLR,XANOMELINE,53.10301950589986,mL/min,53.10301950589986,53.10301950589986,mL/min,URINE,2013-05-09
1168,CDISCPILOT01,PP,01-708-1084,16,TMAX,Time of CMAX,XANOMELINE,8,h,8,8,h,PLASMA,2013-05-09
1169,CDISCPILOT01,PP,01-708-1178,1,AUCALL,AUC All,XANOMELINE,19.332872529011887,h*ug/ml,19.332872529011887,19.332872529011887,h*ug/ml,PLASMA,2013-12-29
1170,CDISCPILOT01,PP,01-708-1178,2,AUCALL,AUC All,XANOMELINE,19.332872529011887,h*ug/ml,19.332872529011887,19.332872529011887,h*ug/ml,PLASMA,2013-12-29
1171,CDISCPILOT01,PP,01-708-1178,3,AUCALL,AUC All,XANOMELINE,19.332872529011887,h*ug/ml,19.332872529011887,19.332872529011887,h*ug/ml,PLASMA,2013-12-29
1172,CDISCPILOT01,PP,01-708-1178,4,AUCALL,AUC All,XANOMELINE,19.332872529011887,h*ug/ml,19.332872529011887,19.332872529011887,h*ug/ml,PLASMA,2013-12-29
1173,CDISCPILOT01,PP,01-708-1178,5,AUCLST,AUC to Last Nonzero Conc,XANOMELINE,19.293923914870103,h*ug/ml,19.293923914870103,19.293923914870103,h*ug/ml,PLASMA,2013-12-29
1174,CDISCPILOT01,PP,01-708-1178,6,CLST,Last Nonzero Conc,XANOMELINE,0.0122601219297702,ug/ml,0.0122601219297702,0.0122601219297702,ug/ml,PLASMA,2013-12-29
1175,CDISCPILOT01,PP,01-708-1178,7,CLST,Last Nonzero Conc,XANOMELINE,0.0122601219297702,ug/ml,0.0122601219297702,0.0122601219297702,ug/ml,PLASMA,2013-12-29
1176,CDISCPILOT01,PP,01-708-1178,8,CLST,Last Nonzero Conc,XANOMELINE,0.0122601219297702,ug/ml,0.0122601219297702,0.0122601219297702,ug/ml,PLASMA,2013-12-29
1177,CDISCPILOT01,PP,01-708-1178,9,CLST,Last Nonzero Conc,XANOMELINE,0.0122601219297702,ug/ml,0.0122601219297702,0.0122601219297702,ug/ml,PLASMA,2013-12-29
1178,CDISCPILOT01,PP,01-708-1178,10,CMAX,Max Conc,XANOMELINE,1.8859299953508801,ug/ml,1.8859299953508801,1.8859299953508801,ug/ml,PLASMA,2013-12-29
1179,CDISCPILOT01,PP,01-708-1178,11,LAMZ,Lambda z,XANOMELINE,0.31477684636325287,/h,0.31477684636325287,0.31477684636325287,/h,PLASMA,2013-12-29
1180,CDISCPILOT01,PP,01-708-1178,12,LAMZHL,Half-Life Lambda z,XANOMELINE,2.2015596382215388,h,2.2015596382215388,2.2015596382215388,h,PLASMA,2013-12-29
1181,CDISCPILOT01,PP,01-708-1178,13,LAMZNPT,Number of Points for Lambda z,XANOMELINE,4,U,4,4,U,PLASMA,2013-12-29
1182,CDISCPILOT01,PP,01-708-1178,14,RCAMINT,Ae,XANOMELINE,58.883135941245115,mg,58.883135941245115,58.883135941245115,mg,URINE,2013-12-29
1183,CDISCPILOT01,PP,01-708-1178,15,RENALCL,CLR,XANOMELINE,50.86500824564691,mL/min,50.86500824564691,50.86500824564691,mL/min,URINE,2013-12-29
1184,CDISCPILOT01,PP,01-708-1178,16,TMAX,Time of CMAX,XANOMELINE,8,h,8,8,h,PLASMA,2013-12-29
1185,CDISCPILOT01,PP,01-708-1213,1,AUCALL,AUC All,XANOMELINE,18.83361052831081,h*ug/ml,18.83361052831081,18.83361052831081,h*ug/ml,PLASMA,2013-02-09
1186,CDISCPILOT01,PP,01-708-1213,2,AUCALL,AUC All,XANOMELINE,18.83361052831081,h*ug/ml,18.83361052831081,18.83361052831081,h*ug/ml,PLASMA,2013-02-09
1187,CDISCPILOT01,PP,01-708-1213,3,AUCALL,AUC All,XANOMELINE,18.83361052831081,h*ug/ml,18.83361052831081,18.83361052831081,h*ug/ml,PLASMA,2013-02-09
1188,CDISCPILOT01,PP,01-708-1213,4,AUCALL,AUC All,XANOMELINE,18.83361052831081,h*ug/ml,18.83361052831081,18.83361052831081,h*ug/ml,PLASMA,2013-02-09
1189,CDISCPILOT01,PP,01-708-1213,5,AUCLST,AUC to Last Nonzero Conc,XANOMELINE,18.76420490764314,h*ug/ml,18.76420490764314,18.76420490764314,h*ug/ml,PLASMA,2013-02-09
1190,CDISCPILOT01,PP,01-708-1213,6,CLST,Last Nonzero Conc,XANOMELINE,0.01961386754503496,ug/ml,0.01961386754503496,0.01961386754503496,ug/ml,PLASMA,2013-02-09
1191,CDISCPILOT01,PP,01-708-1213,7,CLST,Last Nonzero Conc,XANOMELINE,0.01961386754503496,ug/ml,0.01961386754503496,0.01961386754503496,ug/ml,PLASMA,2013-02-09
1192,CDISCPILOT01,PP,01-708-1213,8,CLST,Last Nonzero Conc,XANOMELINE,0.01961386754503496,ug/ml,0.01961386754503496,0.01961386754503496,ug/ml,PLASMA,2013-02-09
1193,CDISCPILOT01,PP,01-708-1213,9,CLST,Last Nonzero Conc,XANOMELINE,0.01961386754503496,ug/ml,0.01961386754503496,0.01961386754503496,ug/ml,PLASMA,2013-02-09
1194,CDISCPILOT01,PP,01-708-1213,10,CMAX,Max Conc,XANOMELINE,1.802096894936376,ug/ml,1.802096894936376,1.802096894936376,ug/ml,PLASMA,2013-02-09
1195,CDISCPILOT01,PP,01-708-1213,11,LAMZ,Lambda z,XANOMELINE,0.2825976823829725,/h,0.2825976823829725,0.2825976823829725,/h,PLASMA,2013-02-09
1196,CDISCPILOT01,PP,01-708-1213,12,LAMZHL,Half-Life Lambda z,XANOMELINE,2.4522494103856656,h,2.4522494103856656,2.4522494103856656,h,PLASMA,2013-02-09
1197,CDISCPILOT01,PP,01-708-1213,13,LAMZNPT,Number of Points for Lambda z,XANOMELINE,4,U,4,4,U,PLASMA,2013-02-09
1198,CDISCPILOT01,PP,01-708-1213,14,RCAMINT,Ae,XANOMELINE,73.99610656816733,mg,73.99610656816733,73.99610656816733,mg,URINE,2013-02-09
1199,CDISCPILOT01,PP,01-708-1213,15,RENALCL,CLR,XANOMELINE,65.72452437355591,mL/min,65.72452437355591,65.72452437355591,mL/min,URINE,2013-02-09
1200,CDISCPILOT01,PP,01-708-1213,16,TMAX,Time of CMAX,XANOMELINE,8,h,8,8,h,PLASMA,2013-02-09
1201,CDISCPILOT01,PP,01-708-1216,1,AUCALL,AUC All,XANOMELINE,18.343313433268456,h*ug/ml,18.343313433268456,18.343313433268456,h*ug/ml,PLASMA,2012-10-24
1202,CDISCPILOT01,PP,01-708-1216,2,AUCALL,AUC All,XANOMELINE,18.343313433268456,h*ug/ml,18.343313433268456,18.343313433268456,h*ug/ml,PLASMA,2012-10-24
1203,CDISCPILOT01,PP,01-708-1216,3,AUCALL,AUC All,XANOMELINE,18.343313433268456,h*ug/ml,18.343313433268456,18.343313433268456,h*ug/ml,PLASMA,2012-10-24
1204,CDISCPILOT01,PP,01-708-1216,4,AUCALL,AUC All,XANOMELINE,18.343313433268456,h*ug/ml,18.343313433268456,18.343313433268456,h*ug/ml,PLASMA,2012-10-24
1205,CDISCPILOT01,PP,01-708-1216,5,AUCLST,AUC to Last Nonzero Conc,XANOMELINE,18.29053790550202,h*ug/ml,18.29053790550202,18.29053790550202,h*ug/ml,PLASMA,2012-10-24
1206,CDISCPILOT01,PP,01-708-1216,6,CLST,Last Nonzero Conc,XANOMELINE,0.015608145841019376,ug/ml,0.015608145841019376,0.015608145841019376,ug/ml,PLASMA,2012-10-24
1207,CDISCPILOT01,PP,01-708-1216,7,CLST,Last Nonzero Conc,XANOMELINE,0.015608145841019376,ug/ml,0.015608145841019376,0.015608145841019376,ug/ml,PLASMA,2012-10-24
1208,CDISCPILOT01,PP,01-708-1216,8,CLST,Last Nonzero Conc,XANOMELINE,0.015608145841019376,ug/ml,0.015608145841019376,0.015608145841019376,ug/ml,PLASMA,2012-10-24
1209,CDISCPILOT01,PP,01-708-1216,9,CLST,Last Nonzero Conc,XANOMELINE,0.015608145841019376,ug/ml,0.015608145841019376,0.015608145841019376,ug/ml,PLASMA,2012-10-24
1210,CDISCPILOT01,PP,01-708-1216,10,CMAX,Max Conc,XANOMELINE,1.7702367853788228,ug/ml,1.7702367853788228,1.7702367853788228,ug/ml,PLASMA,2012-10-24
1211,CDISCPILOT01,PP,01-708-1216,11,LAMZ,Lambda z,XANOMELINE,0.2957458977974627,/h,0.2957458977974627,0.2957458977974627,/h,PLASMA,2012-10-24
1212,CDISCPILOT01,PP,01-708-1216,12,LAMZHL,Half-Life Lambda z,XANOMELINE,2.3432277680300775,h,2.3432277680300775,2.3432277680300775,h,PLASMA,2012-10-24
1213,CDISCPILOT01,PP,01-708-1216,13,LAMZNPT,Number of Points for Lambda z,XANOMELINE,4,U,4,4,U,PLASMA,2012-10-24
1214,CDISCPILOT01,PP,01-708-1216,14,RCAMINT,Ae,XANOMELINE,66.44372891998982,mg,66.44372891998982,66.44372891998982,mg,URINE,2012-10-24
1215,CDISCPILOT01,PP,01-708-1216,15,RENALCL,CLR,XANOMELINE,60.544719227022405,mL/min,60.544719227022405,60.544719227022405,mL/min,URINE,2012-10-24
1216,CDISCPILOT01,PP,01-708-1216,16,TMAX,Time of CMAX,XANOMELINE,8,h,8,8,h,PLASMA,2012-10-24
1217,CDISCPILOT01,PP,01-708-1236,1,AUCALL,AUC All,XANOMELINE,19.57876156537506,h*ug/ml,19.57876156537506,19.57876156537506,h*ug/ml,PLASMA,2013-09-21
1218,CDISCPILOT01,PP,01-708-1236,2,AUCALL,AUC All,XANOMELINE,19.57876156537506,h*ug/ml,19.57876156537506,19.57876156537506,h*ug/ml,PLASMA,2013-09-21
1219,CDISCPILOT01,PP,01-708-1236,3,AUCALL,AUC All,XANOMELINE,19.57876156537506,h*ug/ml,19.57876156537506,19.57876156537506,h*ug/ml,PLASMA,2013-09-21
1220,CDISCPILOT01,PP,01-708-1236,4,AUCALL,AUC All,XANOMELINE,19.57876156537506,h*ug/ml,19.57876156537506,19.57876156537506,h*ug/ml,PLASMA,2013-09-21
1221,CDISCPILOT01,PP,01-708-1236,5,AUCLST,AUC to Last Nonzero Conc,XANOMELINE,19.535059905238803,h*ug/ml,19.535059905238803,19.535059905238803,h*ug/ml,PLASMA,2013-09-21
1222,CDISCPILOT01,PP,01-708-1236,6,CLST,Last Nonzero Conc,XANOMELINE,0.01351649827318975,ug/ml,0.01351649827318975,0.01351649827318975,ug/ml,PLASMA,2013-09-21
1223,CDISCPILOT01,PP,01-708-1236,7,CLST,Last Nonzero Conc,XANOMELINE,0.01351649827318975,ug/ml,0.01351649827318975,0.01351649827318975,ug/ml,PLASMA,2013-09-21
1224,CDISCPILOT01,PP,01-708-1236,8,CLST,Last Nonzero Conc,XANOMELINE,0.01351649827318975,ug/ml,0.01351649827318975,0.01351649827318975,ug/ml,PLASMA,2013-09-21
1225,CDISCPILOT01,PP,01-708-1236,9,CLST,Last Nonzero Conc,XANOMELINE,0.01351649827318975,ug/ml,0.01351649827318975,0.01351649827318975,ug/ml,PLASMA,2013-09-21
1226,CDISCPILOT01,PP,01-708-1236,10,CMAX,Max Conc,XANOMELINE,1.904330939524354,ug/ml,1.904330939524354,1.904330939524354,ug/ml,PLASMA,2013-09-21
1227,CDISCPILOT01,PP,01-708-1236,11,LAMZ,Lambda z,XANOMELINE,0.30929027023337846,/h,0.30929027023337846,0.30929027023337846,/h,PLASMA,2013-09-21
1228,CDISCPILOT01,PP,01-708-1236,12,LAMZHL,Half-Life Lambda z,XANOMELINE,2.2406136458062162,h,2.2406136458062162,2.2406136458062162,h,PLASMA,2013-09-21
1229,CDISCPILOT01,PP,01-708-1236,13,LAMZNPT,Number of Points for Lambda z,XANOMELINE,4,U,4,4,U,PLASMA,2013-09-21
1230,CDISCPILOT01,PP,01-708-1236,14,RCAMINT,Ae,XANOMELINE,60.99169096299801,mg,60.99169096299801,60.99169096299801,mg,URINE,2013-09-21
1231,CDISCPILOT01,PP,01-708-1236,15,RENALCL,CLR,XANOMELINE,52.03609242293783,mL/min,52.03609242293783,52.03609242293783,mL/min,URINE,2013-09-21
1232,CDISCPILOT01,PP,01-708-1236,16,TMAX,Time of CMAX,XANOMELINE,8,h,8,8,h,PLASMA,2013-09-21
1233,CDISCPILOT01,PP,01-708-1272,1,AUCALL,AUC All,XANOMELINE,18.1606748848441,h*ug/ml,18.1606748848441,18.1606748848441,h*ug/ml,PLASMA,2013-02-06
1234,CDISCPILOT01,PP,01-708-1272,2,AUCALL,AUC All,XANOMELINE,18.1606748848441,h*ug/ml,18.1606748848441,18.1606748848441,h*ug/ml,PLASMA,2013-02-06
1235,CDISCPILOT01,PP,01-708-1272,3,AUCALL,AUC All,XANOMELINE,18.1606748848441,h*ug/ml,18.1606748848441,18.1606748848441,h*ug/ml,PLASMA,2013-02-06
1236,CDISCPILOT01,PP,01-708-1272,4,AUCALL,AUC All,XANOMELINE,18.1606748848441,h*ug/ml,18.1606748848441,18.1606748848441,h*ug/ml,PLASMA,2013-02-06
1237,CDISCPILOT01,PP,01-708-1272,5,AUCLST,AUC to Last Nonzero Conc,XANOMELINE,18.1100605230157,h*ug/ml,18.1100605230157,18.1100605230157,h*ug/ml,PLASMA,2013-02-06
1238,CDISCPILOT01,PP,01-708-1272,6,CLST,Last Nonzero Conc,XANOMELINE,0.015054715257687232,ug/ml,0.015054715257687232,0.015054715257687232,ug/ml,PLASMA,2013-02-06
1239,CDISCPILOT01,PP,01-708-1272,7,CLST,Last Nonzero Conc,XANOMELINE,0.015054715257687232,ug/ml,0.015054715257687232,0.015054715257687232,ug/ml,PLASMA,2013-02-06
1240,CDISCPILOT01,PP,01-708-1272,8,CLST,Last Nonzero Conc,XANOMELINE,0.015054715257687232,ug/ml,0.015054715257687232,0.015054715257687232,ug/ml,PLASMA,2013-02-06
1241,CDISCPILOT01,PP,01-708-1272,9,CLST,Last Nonzero Conc,XANOMELINE,0.015054715257687232,ug/ml,0.015054715257687232,0.015054715257687232,ug/ml,PLASMA,2013-02-06
1242,CDISCPILOT01,PP,01-708-1272,10,CMAX,Max Conc,XANOMELINE,1.7544178611785766,ug/ml,1.7544178611785766,1.7544178611785766,ug/ml,PLASMA,2013-02-06
1243,CDISCPILOT01,PP,01-708-1272,11,LAMZ,Lambda z,XANOMELINE,0.2974395944915545,/h,0.2974395944915545,0.2974395944915545,/h,PLASMA,2013-02-06
1244,CDISCPILOT01,PP,01-708-1272,12,LAMZHL,Half-Life Lambda z,XANOMELINE,2.3298848332032573,h,2.3298848332032573,2.3298848332032573,h,PLASMA,2013-02-06
1245,CDISCPILOT01,PP,01-708-1272,13,LAMZNPT,Number of Points for Lambda z,XANOMELINE,4,U,4,4,U,PLASMA,2013-02-06
1246,CDISCPILOT01,PP,01-708-1272,14,RCAMINT,Ae,XANOMELINE,65.74166534125484,mg,65.74166534125484,65.74166534125484,mg,URINE,2013-02-06
1247,CDISCPILOT01,PP,01-708-1272,15,RENALCL,CLR,XANOMELINE,60.501974632373646,mL/min,60.501974632373646,60.501974632373646,mL/min,URINE,2013-02-06
1248,CDISCPILOT01,PP,01-708-1272,16,TMAX,Time of CMAX,XANOMELINE,8,h,8,8,h,PLASMA,2013-02-06
1249,CDISCPILOT01,PP,01-708-1297,1,AUCALL,AUC All,XANOMELINE,18.42613094276079,h*ug/ml,18.42613094276079,18.42613094276079,h*ug/ml,PLASMA,2013-01-25
1250,CDISCPILOT01,PP,01-708-1297,2,AUCALL,AUC All,XANOMELINE,18.42613094276079,h*ug/ml,18.42613094276079,18.42613094276079,h*ug/ml,PLASMA,2013-01-25
1251,CDISCPILOT01,PP,01-708-1297,3,AUCALL,AUC All,XANOMELINE,18.42613094276079,h*ug/ml,18.42613094276079,18.42613094276079,h*ug/ml,PLASMA,2013-01-25
1252,CDISCPILOT01,PP,01-708-1297,4,AUCALL,AUC All,XANOMELINE,18.42613094276079,h*ug/ml,18.42613094276079,18.42613094276079,h*ug/ml,PLASMA,2013-01-25
1253,CDISCPILOT01,PP,01-708-1297,5,AUCLST,AUC to Last Nonzero Conc,XANOMELINE,18.379456820095406,h*ug/ml,18.379456820095406,18.379456820095406,h*ug/ml,PLASMA,2013-01-25
1254,CDISCPILOT01,PP,01-708-1297,6,CLST,Last Nonzero Conc,XANOMELINE,0.014120508025755414,ug/ml,0.014120508025755414,0.014120508025755414,ug/ml,PLASMA,2013-01-25
1255,CDISCPILOT01,PP,01-708-1297,7,CLST,Last Nonzero Conc,XANOMELINE,0.014120508025755414,ug/ml,0.014120508025755414,0.014120508025755414,ug/ml,PLASMA,2013-01-25
1256,CDISCPILOT01,PP,01-708-1297,8,CLST,Last Nonzero Conc,XANOMELINE,0.014120508025755414,ug/ml,0.014120508025755414,0.014120508025755414,ug/ml,PLASMA,2013-01-25
1257,CDISCPILOT01,PP,01-708-1297,9,CLST,Last Nonzero Conc,XANOMELINE,0.014120508025755414,ug/ml,0.014120508025755414,0.014120508025755414,ug/ml,PLASMA,2013-01-25
1258,CDISCPILOT01,PP,01-708-1297,10,CMAX,Max Conc,XANOMELINE,1.7854288874833895,ug/ml,1.7854288874833895,1.7854288874833895,ug/ml,PLASMA,2013-01-25
1259,CDISCPILOT01,PP,01-708-1297,11,LAMZ,Lambda z,XANOMELINE,0.30253397855999686,/h,0.30253397855999686,0.30253397855999686,/h,PLASMA,2013-01-25
1260,CDISCPILOT01,PP,01-708-1297,12,LAMZHL,Half-Life Lambda z,XANOMELINE,2.2906517915724565,h,2.2906517915724565,2.2906517915724565,h,PLASMA,2013-01-25
1261,CDISCPILOT01,PP,01-708-1297,13,LAMZNPT,Number of Points for Lambda z,XANOMELINE,4,U,4,4,U,PLASMA,2013-01-25
1262,CDISCPILOT01,PP,01-708-1297,14,RCAMINT,Ae,XANOMELINE,63.66568734221565,mg,63.66568734221565,63.66568734221565,mg,URINE,2013-01-25
1263,CDISCPILOT01,PP,01-708-1297,15,RENALCL,CLR,XANOMELINE,57.73265224447582,mL/min,57.73265224447582,57.73265224447582,mL/min,URINE,2013-01-25
1264,CDISCPILOT01,PP,01-708-1297,16,TMAX,Time of CMAX,XANOMELINE,8,h,8,8,h,PLASMA,2013-01-25
1265,CDISCPILOT01,PP,01-708-1336,1,AUCALL,AUC All,XANOMELINE,19.673820871869392,h*ug/ml,19.673820871869392,19.673820871869392,h*ug/ml,PLASMA,2012-12-07
1266,CDISCPILOT01,PP,01-708-1336,2,AUCALL,AUC All,XANOMELINE,19.673820871869392,h*ug/ml,19.673820871869392,19.673820871869392,h*ug/ml,PLASMA,2012-12-07
1267,CDISCPILOT01,PP,01-708-1336,3,AUCALL,AUC All,XANOMELINE,19.673820871869392,h*ug/ml,19.673820871869392,19.673820871869392,h*ug/ml,PLASMA,2012-12-07
1268,CDISCPILOT01,PP,01-708-1336,4,AUCALL,AUC All,XANOMELINE,19.673820871869392,h*ug/ml,19.673820871869392,19.673820871869392,h*ug/ml,PLASMA,2012-12-07
1269,CDISCPILOT01,PP,01-708-1336,5,AUCLST,AUC to Last Nonzero Conc,XANOMELINE,19.63152554758899,h*ug/ml,19.63152554758899,19.63152554758899,h*ug/ml,PLASMA,2012-12-07
1270,CDISCPILOT01,PP,01-708-1336,6,CLST,Last Nonzero Conc,XANOMELINE,0.013166499505553791,ug/ml,0.013166499505553791,0.013166499505553791,ug/ml,PLASMA,2012-12-07
1271,CDISCPILOT01,PP,01-708-1336,7,CLST,Last Nonzero Conc,XANOMELINE,0.013166499505553791,ug/ml,0.013166499505553791,0.013166499505553791,ug/ml,PLASMA,2012-12-07
1272,CDISCPILOT01,PP,01-708-1336,8,CLST,Last Nonzero Conc,XANOMELINE,0.013166499505553791,ug/ml,0.013166499505553791,0.013166499505553791,ug/ml,PLASMA,2012-12-07
1273,CDISCPILOT01,PP,01-708-1336,9,CLST,Last Nonzero Conc,XANOMELINE,0.013166499505553791,ug/ml,0.013166499505553791,0.013166499505553791,ug/ml,PLASMA,2012-12-07
1274,CDISCPILOT01,PP,01-708-1336,10,CMAX,Max Conc,XANOMELINE,1.9156598516898609,ug/ml,1.9156598516898609,1.9156598516898609,ug/ml,PLASMA,2012-12-07
1275,CDISCPILOT01,PP,01-708-1336,11,LAMZ,Lambda z,XANOMELINE,0.31129917383455613,/h,0.31129917383455613,0.31129917383455613,/h,PLASMA,2012-12-07
1276,CDISCPILOT01,PP,01-708-1336,12,LAMZHL,Half-Life Lambda z,XANOMELINE,2.2261543179305177,h,2.2261543179305177,2.2261543179305177,h,PLASMA,2012-12-07
1277,CDISCPILOT01,PP,01-708-1336,13,LAMZNPT,Number of Points for Lambda z,XANOMELINE,4,U,4,4,U,PLASMA,2012-12-07
1278,CDISCPILOT01,PP,01-708-1336,14,RCAMINT,Ae,XANOMELINE,60.21328074046542,mg,60.21328074046542,60.21328074046542,mg,URINE,2012-12-07
1279,CDISCPILOT01,PP,01-708-1336,15,RENALCL,CLR,XANOMELINE,51.11954629175555,mL/min,51.11954629175555,51.11954629175555,mL/min,URINE,2012-12-07
1280,CDISCPILOT01,PP,01-708-1336,16,TMAX,Time of CMAX,XANOMELINE,8,h,8,8,h,PLASMA,2012-12-07
1281,CDISCPILOT01,PP,01-708-1347,1,AUCALL,AUC All,XANOMELINE,19.734493479400726,h*ug/ml,19.734493479400726,19.734493479400726,h*ug/ml,PLASMA,2013-04-20
1282,CDISCPILOT01,PP,01-708-1347,2,AUCALL,AUC All,XANOMELINE,19.734493479400726,h*ug/ml,19.734493479400726,19.734493479400726,h*ug/ml,PLASMA,2013-04-20
1283,CDISCPILOT01,PP,01-708-1347,3,AUCALL,AUC All,XANOMELINE,19.734493479400726,h*ug/ml,19.734493479400726,19.734493479400726,h*ug/ml,PLASMA,2013-04-20
1284,CDISCPILOT01,PP,01-708-1347,4,AUCALL,AUC All,XANOMELINE,19.734493479400726,h*ug/ml,19.734493479400726,19.734493479400726,h*ug/ml,PLASMA,2013-04-20
1285,CDISCPILOT01,PP,01-708-1347,5,AUCLST,AUC to Last Nonzero Conc,XANOMELINE,19.682011603707533,h*ug/ml,19.682011603707533,19.682011603707533,h*ug/ml,PLASMA,2013-04-20
1286,CDISCPILOT01,PP,01-708-1347,6,CLST,Last Nonzero Conc,XANOMELINE,0.01574128985026238,ug/ml,0.01574128985026238,0.01574128985026238,ug/ml,PLASMA,2013-04-20
1287,CDISCPILOT01,PP,01-708-1347,7,CLST,Last Nonzero Conc,XANOMELINE,0.01574128985026238,ug/ml,0.01574128985026238,0.01574128985026238,ug/ml,PLASMA,2013-04-20
1288,CDISCPILOT01,PP,01-708-1347,8,CLST,Last Nonzero Conc,XANOMELINE,0.01574128985026238,ug/ml,0.01574128985026238,0.01574128985026238,ug/ml,PLASMA,2013-04-20
1289,CDISCPILOT01,PP,01-708-1347,9,CLST,Last Nonzero Conc,XANOMELINE,0.01574128985026238,ug/ml,0.01574128985026238,0.01574128985026238,ug/ml,PLASMA,2013-04-20
1290,CDISCPILOT01,PP,01-708-1347,10,CMAX,Max Conc,XANOMELINE,1.9093046487243566,ug/ml,1.9093046487243566,1.9093046487243566,ug/ml,PLASMA,2013-04-20
1291,CDISCPILOT01,PP,01-708-1347,11,LAMZ,Lambda z,XANOMELINE,0.2999376383246089,/h,0.2999376383246089,0.2999376383246089,/h,PLASMA,2013-04-20
1292,CDISCPILOT01,PP,01-708-1347,12,LAMZHL,Half-Life Lambda z,XANOMELINE,2.310480284738381,h,2.310480284738381,2.310480284738381,h,PLASMA,2013-04-20
1293,CDISCPILOT01,PP,01-708-1347,13,LAMZNPT,Number of Points for Lambda z,XANOMELINE,4,U,4,4,U,PLASMA,2013-04-20
1294,CDISCPILOT01,PP,01-708-1347,14,RCAMINT,Ae,XANOMELINE,64.7170946238724,mg,64.7170946238724,64.7170946238724,mg,URINE,2013-04-20
1295,CDISCPILOT01,PP,01-708-1347,15,RENALCL,CLR,XANOMELINE,54.802235942591636,mL/min,54.802235942591636,54.802235942591636,mL/min,URINE,2013-04-20
1296,CDISCPILOT01,PP,01-708-1347,16,TMAX,Time of CMAX,XANOMELINE,8,h,8,8,h,PLASMA,2013-04-20
1297,CDISCPILOT01,PP,01-708-1348,1,AUCALL,AUC All,XANOMELINE,19.848281161261507,h*ug/ml,19.848281161261507,19.848281161261507,h*ug/ml,PLASMA,2013-08-05
1298,CDISCPILOT01,PP,01-708-1348,2,AUCALL,AUC All,XANOMELINE,19.848281161261507,h*ug/ml,19.848281161261507,19.848281161261507,h*ug/ml,PLASMA,2013-08-05
1299,CDISCPILOT01,PP,01-708-1348,3,AUCALL,AUC All,XANOMELINE,19.848281161261507,h*ug/ml,19.848281161261507,19.848281161261507,h*ug/ml,PLASMA,2013-08-05
1300,CDISCPILOT01,PP,01-708-1348,4,AUCALL,AUC All,XANOMELINE,19.848281161261507,h*ug/ml,19.848281161261507,19.848281161261507,h*ug/ml,PLASMA,2013-08-05
1301,CDISCPILOT01,PP,01-708-1348,5,AUCLST,AUC to Last Nonzero Conc,XANOMELINE,19.803701798271522,h*ug/ml,19.803701798271522,19.803701798271522,h*ug/ml,PLASMA,2013-08-05
1302,CDISCPILOT01,PP,01-708-1348,6,CLST,Last Nonzero Conc,XANOMELINE,0.013773152443061883,ug/ml,0.013773152443061883,0.013773152443061883,ug/ml,PLASMA,2013-08-05
1303,CDISCPILOT01,PP,01-708-1348,7,CLST,Last Nonzero Conc,XANOMELINE,0.013773152443061883,ug/ml,0.013773152443061883,0.013773152443061883,ug/ml,PLASMA,2013-08-05
1304,CDISCPILOT01,PP,01-708-1348,8,CLST,Last Nonzero Conc,XANOMELINE,0.013773152443061883,ug/ml,0.013773152443061883,0.013773152443061883,ug/ml,PLASMA,2013-08-05
1305,CDISCPILOT01,PP,01-708-1348,9,CLST,Last Nonzero Conc,XANOMELINE,0.013773152443061883,ug/ml,0.013773152443061883,0.013773152443061883,ug/ml,PLASMA,2013-08-05
1306,CDISCPILOT01,PP,01-708-1348,10,CMAX,Max Conc,XANOMELINE,1.9301950764433178,ug/ml,1.9301950764433178,1.9301950764433178,ug/ml,PLASMA,2013-08-05
1307,CDISCPILOT01,PP,01-708-1348,11,LAMZ,Lambda z,XANOMELINE,0.30895803616924994,/h,0.30895803616924994,0.30895803616924994,/h,PLASMA,2013-08-05
1308,CDISCPILOT01,PP,01-708-1348,12,LAMZHL,Half-Life Lambda z,XANOMELINE,2.2430230609711943,h,2.2430230609711943,2.2430230609711943,h,PLASMA,2013-08-05
1309,CDISCPILOT01,PP,01-708-1348,13,LAMZNPT,Number of Points for Lambda z,XANOMELINE,4,U,4,4,U,PLASMA,2013-08-05
1310,CDISCPILOT01,PP,01-708-1348,14,RCAMINT,Ae,XANOMELINE,61.12114664368828,mg,61.12114664368828,61.12114664368828,mg,URINE,2013-08-05
1311,CDISCPILOT01,PP,01-708-1348,15,RENALCL,CLR,XANOMELINE,51.439159596097134,mL/min,51.439159596097134,51.439159596097134,mL/min,URINE,2013-08-05
1312,CDISCPILOT01,PP,01-708-1348,16,TMAX,Time of CMAX,XANOMELINE,8,h,8,8,h,PLASMA,2013-08-05
1313,CDISCPILOT01,PP,01-708-1353,1,AUCALL,AUC All,XANOMELINE,19.796722004983376,h*ug/ml,19.796722004983376,19.796722004983376,h*ug/ml,PLASMA,2013-07-04
1314,CDISCPILOT01,PP,01-708-1353,2,AUCALL,AUC All,XANOMELINE,19.796722004983376,h*ug/ml,19.796722004983376,19.796722004983376,h*ug/ml,PLASMA,2013-07-04
1315,CDISCPILOT01,PP,01-708-1353,3,AUCALL,AUC All,XANOMELINE,19.796722004983376,h*ug/ml,19.796722004983376,19.796722004983376,h*ug/ml,PLASMA,2013-07-04
1316,CDISCPILOT01,PP,01-708-1353,4,AUCALL,AUC All,XANOMELINE,19.796722004983376,h*ug/ml,19.796722004983376,19.796722004983376,h*ug/ml,PLASMA,2013-07-04
1317,CDISCPILOT01,PP,01-708-1353,5,AUCLST,AUC to Last Nonzero Conc,XANOMELINE,19.740550367542472,h*ug/ml,19.740550367542472,19.740550367542472,h*ug/ml,PLASMA,2013-07-04
1318,CDISCPILOT01,PP,01-708-1353,6,CLST,Last Nonzero Conc,XANOMELINE,0.016654063345303734,ug/ml,0.016654063345303734,0.016654063345303734,ug/ml,PLASMA,2013-07-04
1319,CDISCPILOT01,PP,01-708-1353,7,CLST,Last Nonzero Conc,XANOMELINE,0.016654063345303734,ug/ml,0.016654063345303734,0.016654063345303734,ug/ml,PLASMA,2013-07-04
1320,CDISCPILOT01,PP,01-708-1353,8,CLST,Last Nonzero Conc,XANOMELINE,0.016654063345303734,ug/ml,0.016654063345303734,0.016654063345303734,ug/ml,PLASMA,2013-07-04
1321,CDISCPILOT01,PP,01-708-1353,9,CLST,Last Nonzero Conc,XANOMELINE,0.016654063345303734,ug/ml,0.016654063345303734,0.016654063345303734,ug/ml,PLASMA,2013-07-04
1322,CDISCPILOT01,PP,01-708-1353,10,CMAX,Max Conc,XANOMELINE,1.911362280358613,ug/ml,1.911362280358613,1.911362280358613,ug/ml,PLASMA,2013-07-04
1323,CDISCPILOT01,PP,01-708-1353,11,LAMZ,Lambda z,XANOMELINE,0.296485274491504,/h,0.296485274491504,0.296485274491504,/h,PLASMA,2013-07-04
1324,CDISCPILOT01,PP,01-708-1353,12,LAMZHL,Half-Life Lambda z,XANOMELINE,2.337384213055945,h,2.337384213055945,2.337384213055945,h,PLASMA,2013-07-04
1325,CDISCPILOT01,PP,01-708-1353,13,LAMZNPT,Number of Points for Lambda z,XANOMELINE,4,U,4,4,U,PLASMA,2013-07-04
1326,CDISCPILOT01,PP,01-708-1353,14,RCAMINT,Ae,XANOMELINE,66.13650257275337,mg,66.13650257275337,66.13650257275337,mg,URINE,2013-07-04
1327,CDISCPILOT01,PP,01-708-1353,15,RENALCL,CLR,XANOMELINE,55.83811101293255,mL/min,55.83811101293255,55.83811101293255,mL/min,URINE,2013-07-04
1328,CDISCPILOT01,PP,01-708-1353,16,TMAX,Time of CMAX,XANOMELINE,8,h,8,8,h,PLASMA,2013-07-04
1329,CDISCPILOT01,PP,01-708-1372,1,AUCALL,AUC All,XANOMELINE,19.655891504448352,h*ug/ml,19.655891504448352,19.655891504448352,h*ug/ml,PLASMA,2013-04-12
1330,CDISCPILOT01,PP,01-708-1372,2,AUCALL,AUC All,XANOMELINE,19.655891504448352,h*ug/ml,19.655891504448352,19.655891504448352,h*ug/ml,PLASMA,2013-04-12
1331,CDISCPILOT01,PP,01-708-1372,3,AUCALL,AUC All,XANOMELINE,19.655891504448352,h*ug/ml,19.655891504448352,19.655891504448352,h*ug/ml,PLASMA,2013-04-12
1332,CDISCPILOT01,PP,01-708-1372,4,AUCALL,AUC All,XANOMELINE,19.655891504448352,h*ug/ml,19.655891504448352,19.655891504448352,h*ug/ml,PLASMA,2013-04-12
1333,CDISCPILOT01,PP,01-708-1372,5,AUCLST,AUC to Last Nonzero Conc,XANOMELINE,19.60141006792525,h*ug/ml,19.60141006792525,19.60141006792525,h*ug/ml,PLASMA,2013-04-12
1334,CDISCPILOT01,PP,01-708-1372,6,CLST,Last Nonzero Conc,XANOMELINE,0.01622088080978907,ug/ml,0.01622088080978907,0.01622088080978907,ug/ml,PLASMA,2013-04-12
1335,CDISCPILOT01,PP,01-708-1372,7,CLST,Last Nonzero Conc,XANOMELINE,0.01622088080978907,ug/ml,0.01622088080978907,0.01622088080978907,ug/ml,PLASMA,2013-04-12
1336,CDISCPILOT01,PP,01-708-1372,8,CLST,Last Nonzero Conc,XANOMELINE,0.01622088080978907,ug/ml,0.01622088080978907,0.01622088080978907,ug/ml,PLASMA,2013-04-12
1337,CDISCPILOT01,PP,01-708-1372,9,CLST,Last Nonzero Conc,XANOMELINE,0.01622088080978907,ug/ml,0.01622088080978907,0.01622088080978907,ug/ml,PLASMA,2013-04-12
1338,CDISCPILOT01,PP,01-708-1372,10,CMAX,Max Conc,XANOMELINE,1.8991989584607418,ug/ml,1.8991989584607418,1.8991989584607418,ug/ml,PLASMA,2013-04-12
1339,CDISCPILOT01,PP,01-708-1372,11,LAMZ,Lambda z,XANOMELINE,0.29773225239594364,/h,0.29773225239594364,0.29773225239594364,/h,PLASMA,2013-04-12
1340,CDISCPILOT01,PP,01-708-1372,12,LAMZHL,Half-Life Lambda z,XANOMELINE,2.3275946573581274,h,2.3275946573581274,2.3275946573581274,h,PLASMA,2013-04-12
1341,CDISCPILOT01,PP,01-708-1372,13,LAMZNPT,Number of Points for Lambda z,XANOMELINE,4,U,4,4,U,PLASMA,2013-04-12
1342,CDISCPILOT01,PP,01-708-1372,14,RCAMINT,Ae,XANOMELINE,65.62096394718043,mg,65.62096394718043,65.62096394718043,mg,URINE,2013-04-12
1343,CDISCPILOT01,PP,01-708-1372,15,RENALCL,CLR,XANOMELINE,55.79612531256891,mL/min,55.79612531256891,55.79612531256891,mL/min,URINE,2013-04-12
1344,CDISCPILOT01,PP,01-708-1372,16,TMAX,Time of CMAX,XANOMELINE,8,h,8,8,h,PLASMA,2013-04-12
1345,CDISCPILOT01,PP,01-708-1406,1,AUCALL,AUC All,XANOMELINE,19.07774693382828,h*ug/ml,19.07774693382828,19.07774693382828,h*ug/ml,PLASMA,2013-12-26
1346,CDISCPILOT01,PP,01-708-1406,2,AUCALL,AUC All,XANOMELINE,19.07774693382828,h*ug/ml,19.07774693382828,19.07774693382828,h*ug/ml,PLASMA,2013-12-26
1347,CDISCPILOT01,PP,01-708-1406,3,AUCALL,AUC All,XANOMELINE,19.07774693382828,h*ug/ml,19.07774693382828,19.07774693382828,h*ug/ml,PLASMA,2013-12-26
1348,CDISCPILOT01,PP,01-708-1406,4,AUCALL,AUC All,XANOMELINE,19.07774693382828,h*ug/ml,19.07774693382828,19.07774693382828,h*ug/ml,PLASMA,2013-12-26
1349,CDISCPILOT01,PP,01-708-1406,5,AUCLST,AUC to Last Nonzero Conc,XANOMELINE,19.01718788963298,h*ug/ml,19.01718788963298,19.01718788963298,h*ug/ml,PLASMA,2013-12-26
1350,CDISCPILOT01,PP,01-708-1406,6,CLST,Last Nonzero Conc,XANOMELINE,0.01759341702190605,ug/ml,0.01759341702190605,0.01759341702190605,ug/ml,PLASMA,2013-12-26
1351,CDISCPILOT01,PP,01-708-1406,7,CLST,Last Nonzero Conc,XANOMELINE,0.01759341702190605,ug/ml,0.01759341702190605,0.01759341702190605,ug/ml,PLASMA,2013-12-26
1352,CDISCPILOT01,PP,01-708-1406,8,CLST,Last Nonzero Conc,XANOMELINE,0.01759341702190605,ug/ml,0.01759341702190605,0.01759341702190605,ug/ml,PLASMA,2013-12-26
1353,CDISCPILOT01,PP,01-708-1406,9,CLST,Last Nonzero Conc,XANOMELINE,0.01759341702190605,ug/ml,0.01759341702190605,0.01759341702190605,ug/ml,PLASMA,2013-12-26
1354,CDISCPILOT01,PP,01-708-1406,10,CMAX,Max Conc,XANOMELINE,1.8350875879752409,ug/ml,1.8350875879752409,1.8350875879752409,ug/ml,PLASMA,2013-12-26
1355,CDISCPILOT01,PP,01-708-1406,11,LAMZ,Lambda z,XANOMELINE,0.29051675527056653,/h,0.29051675527056653,0.29051675527056653,/h,PLASMA,2013-12-26
1356,CDISCPILOT01,PP,01-708-1406,12,LAMZHL,Half-Life Lambda z,XANOMELINE,2.385404584856351,h,2.385404584856351,2.385404584856351,h,PLASMA,2013-12-26
1357,CDISCPILOT01,PP,01-708-1406,13,LAMZNPT,Number of Points for Lambda z,XANOMELINE,4,U,4,4,U,PLASMA,2013-12-26
1358,CDISCPILOT01,PP,01-708-1406,14,RCAMINT,Ae,XANOMELINE,68.76701502758769,mg,68.76701502758769,68.76701502758769,mg,URINE,2013-12-26
1359,CDISCPILOT01,PP,01-708-1406,15,RENALCL,CLR,XANOMELINE,60.26742354221862,mL/min,60.26742354221862,60.26742354221862,mL/min,URINE,2013-12-26
1360,CDISCPILOT01,PP,01-708-1406,16,TMAX,Time of CMAX,XANOMELINE,8,h,8,8,h,PLASMA,2013-12-26
1361,CDISCPILOT01,PP,01-708-1428,1,AUCALL,AUC All,XANOMELINE,18.345065109924555,h*ug/ml,18.345065109924555,18.345065109924555,h*ug/ml,PLASMA,2013-11-09
1362,CDISCPILOT01,PP,01-708-1428,2,AUCALL,AUC All,XANOMELINE,18.345065109924555,h*ug/ml,18.345065109924555,18.345065109924555,h*ug/ml,PLASMA,2013-11-09
1363,CDISCPILOT01,PP,01-708-1428,3,AUCALL,AUC All,XANOMELINE,18.345065109924555,h*ug/ml,18.345065109924555,18.345065109924555,h*ug/ml,PLASMA,2013-11-09
1364,CDISCPILOT01,PP,01-708-1428,4,AUCALL,AUC All,XANOMELINE,18.345065109924555,h*ug/ml,18.345065109924555,18.345065109924555,h*ug/ml,PLASMA,2013-11-09
1365,CDISCPILOT01,PP,01-708-1428,5,AUCLST,AUC to Last Nonzero Conc,XANOMELINE,18.29686067557424,h*ug/ml,18.29686067557424,18.29686067557424,h*ug/ml,PLASMA,2013-11-09
1366,CDISCPILOT01,PP,01-708-1428,6,CLST,Last Nonzero Conc,XANOMELINE,0.014489190170663142,ug/ml,0.014489190170663142,0.014489190170663142,ug/ml,PLASMA,2013-11-09
1367,CDISCPILOT01,PP,01-708-1428,7,CLST,Last Nonzero Conc,XANOMELINE,0.014489190170663142,ug/ml,0.014489190170663142,0.014489190170663142,ug/ml,PLASMA,2013-11-09
1368,CDISCPILOT01,PP,01-708-1428,8,CLST,Last Nonzero Conc,XANOMELINE,0.014489190170663142,ug/ml,0.014489190170663142,0.014489190170663142,ug/ml,PLASMA,2013-11-09
1369,CDISCPILOT01,PP,01-708-1428,9,CLST,Last Nonzero Conc,XANOMELINE,0.014489190170663142,ug/ml,0.014489190170663142,0.014489190170663142,ug/ml,PLASMA,2013-11-09
1370,CDISCPILOT01,PP,01-708-1428,10,CMAX,Max Conc,XANOMELINE,1.7755480378748119,ug/ml,1.7755480378748119,1.7755480378748119,ug/ml,PLASMA,2013-11-09
1371,CDISCPILOT01,PP,01-708-1428,11,LAMZ,Lambda z,XANOMELINE,0.300577952338701,/h,0.300577952338701,0.300577952338701,/h,PLASMA,2013-11-09
1372,CDISCPILOT01,PP,01-708-1428,12,LAMZHL,Half-Life Lambda z,XANOMELINE,2.3055583239156046,h,2.3055583239156046,2.3055583239156046,h,PLASMA,2013-11-09
1373,CDISCPILOT01,PP,01-708-1428,13,LAMZNPT,Number of Points for Lambda z,XANOMELINE,4,U,4,4,U,PLASMA,2013-11-09
