rownames,STUDYID,DOMAIN,USUBJID,QSSEQ,QSTESTCD,QSTEST,QSCAT,QSSCAT,QSORRES,QSORRESU,QSSTRESC,QSSTRESN,QSSTRESU,QSBLFL,QSDRVFL,VISITNUM,VISIT,VISITDY,QSDTC,QSDY
1,CDISCPILOT01,QS,01-701-1015,1,VFQ101,Your Overall Health Is,NEI VFQ-25,Original Response,POOR,,POOR,3,,Y,,3,BASELINE,1,2014-01-02,1
2,CDISCPILOT01,QS,01-701-1015,2,VFQ111,Difficulty Seeing How People React,NEI VFQ-25,Original Response,NO DIFFICULTY,,NO DIFFICULTY,1,,Y,,3,BASELINE,1,2014-01-02,1
3,CDISCPILOT01,QS,01-701-1015,3,VFQ110,Difficulty Noticing Objects to Side,NEI VFQ-25,Original Response,NO DIFFICULTY,,NO DIFFICULTY,1,,Y,,3,BASELINE,1,2014-01-02,1
4,CDISCPILOT01,QS,01-701-1015,4,VFQ109,Difficulty Going Down Step at Night,NEI VFQ-25,Original Response,SOME DIFFICULTY,,SOME DIFFICULTY,2,,Y,,3,BASELINE,1,2014-01-02,1
5,CDISCPILOT01,QS,01-701-1015,5,VFQ108,Difficulty Reading Street Signs,NEI VFQ-25,Original Response,VERY DIFFICULT,,VERY DIFFICULT,3,,Y,,3,BASELINE,1,2014-01-02,1
6,CDISCPILOT01,QS,01-701-1015,6,VFQ116A,Driving in Difficult Conditions,NEI VFQ-25,Original Response,NO DIFFICULTY,,NO DIFFICULTY,1,,Y,,3,BASELINE,1,2014-01-02,1
7,CDISCPILOT01,QS,01-701-1015,7,VFQ107,Difficulty Finding on Crowded Shelf,NEI VFQ-25,Original Response,SOME DIFFICULTY,,SOME DIFFICULTY,2,,Y,,3,BASELINE,1,2014-01-02,1
8,CDISCPILOT01,QS,01-701-1015,8,VFQ106,Difficulty Doing Work/Hobbies,NEI VFQ-25,Original Response,VERY DIFFICULT,,VERY DIFFICULT,2,,Y,,3,BASELINE,1,2014-01-02,1
9,CDISCPILOT01,QS,01-701-1015,9,VFQ105,Difficulty Reading Newspapers,NEI VFQ-25,Original Response,NO DIFFICULTY,,NO DIFFICULTY,1,,Y,,3,BASELINE,1,2014-01-02,1
10,CDISCPILOT01,QS,01-701-1015,10,VFQ115,Are You Currently Driving,NEI VFQ-25,Original Response,YES,,YES,2,,Y,,3,BASELINE,1,2014-01-02,1
11,CDISCPILOT01,QS,01-701-1015,11,VFQ104,How Often Pain in and Around Eyes,NEI VFQ-25,Original Response,SOMETIMES,,SOMETIMES,4,,Y,,3,BASELINE,1,2014-01-02,1
12,CDISCPILOT01,QS,01-701-1015,12,VFQ103,How Often You Worry About Eyesight,NEI VFQ-25,Original Response,NEVER,,NEVER,2,,Y,,3,BASELINE,1,2014-01-02,1
13,CDISCPILOT01,QS,01-701-1015,13,VFQ102,Eyesight Using Both Eyes Is,NEI VFQ-25,Original Response,VERY GOOD,,VERY GOOD,4,,Y,,3,BASELINE,1,2014-01-02,1
14,CDISCPILOT01,QS,01-701-1015,14,VFQ112,Difficulty Picking Out Own Clothes,NEI VFQ-25,Original Response,SOME DIFFICULTY,,SOME DIFFICULTY,2,,Y,,3,BASELINE,1,2014-01-02,1
15,CDISCPILOT01,QS,01-701-1015,15,VFQ124,I Need a Lot of Help From Others,NEI VFQ-25,Original Response,RARELY,,RARELY,3,,Y,,3,BASELINE,1,2014-01-02,1
16,CDISCPILOT01,QS,01-701-1015,16,VFQ121,I Feel Frustrated a Lot of the Time,NEI VFQ-25,Original Response,NEVER,,NEVER,2,,Y,,3,BASELINE,1,2014-01-02,1
17,CDISCPILOT01,QS,01-701-1015,17,VFQ120,I Stay Home Most of the Time,NEI VFQ-25,Original Response,NEVER,,NEVER,2,,Y,,3,BASELINE,1,2014-01-02,1
18,CDISCPILOT01,QS,01-701-1015,18,VFQ119,Eye Pain Keep You From Doing What You Like,NEI VFQ-25,Original Response,FREQUENTLY,,FREQUENTLY,1,,Y,,3,BASELINE,1,2014-01-02,1
19,CDISCPILOT01,QS,01-701-1015,19,VFQ1A08,Difficulty Seeing Programs on TV,NEI VFQ-25,Original Response,VERY DIFFICULT,,VERY DIFFICULT,3,,Y,,3,BASELINE,1,2014-01-02,1
20,CDISCPILOT01,QS,01-701-1015,20,VFQ1A07,Difficulty Taking Part in Sports,NEI VFQ-25,Original Response,VERY DIFFICULT,,VERY DIFFICULT,3,,Y,,3,BASELINE,1,2014-01-02,1
21,CDISCPILOT01,QS,01-701-1015,21,VFQ116,Difficulty Driving at Night,NEI VFQ-25,Original Response,VERY DIFFICULT,,VERY DIFFICULT,3,,Y,,3,BASELINE,1,2014-01-02,1
22,CDISCPILOT01,QS,01-701-1015,22,VFQ115C,Difficulty Driving During Daytime,NEI VFQ-25,Original Response,NO DIFFICULTY,,NO DIFFICULTY,1,,Y,,3,BASELINE,1,2014-01-02,1
23,CDISCPILOT01,QS,01-701-1015,23,VFQ1A05,Difficulty Shaving or Styling Hair,NEI VFQ-25,Original Response,VERY DIFFICULT,,VERY DIFFICULT,3,,Y,,3,BASELINE,1,2014-01-02,1
24,CDISCPILOT01,QS,01-701-1015,24,VFQ1A04,Difficulty Figure Out Bill Accuracy,NEI VFQ-25,Original Response,VERY DIFFICULT,,VERY DIFFICULT,3,,Y,,3,BASELINE,1,2014-01-02,1
25,CDISCPILOT01,QS,01-701-1015,25,VFQ114,Difficulty Going Out to See Movies,NEI VFQ-25,Original Response,SOME DIFFICULTY,,SOME DIFFICULTY,2,,Y,,3,BASELINE,1,2014-01-02,1
26,CDISCPILOT01,QS,01-701-1015,26,VFQ113,Difficulty Visiting With People,NEI VFQ-25,Original Response,SOME DIFFICULTY,,SOME DIFFICULTY,2,,Y,,3,BASELINE,1,2014-01-02,1
27,CDISCPILOT01,QS,01-701-1015,27,VFQ125,Worry I'll Do Embarrassing Things,NEI VFQ-25,Original Response,SOMETIMES,,SOMETIMES,4,,Y,,3,BASELINE,1,2014-01-02,1
28,CDISCPILOT01,QS,01-701-1015,28,VFQ1A06,Difficulty Recognizing People,NEI VFQ-25,Original Response,VERY DIFFICULT,,VERY DIFFICULT,3,,Y,,3,BASELINE,1,2014-01-02,1
29,CDISCPILOT01,QS,01-701-1015,29,VFQ1A03,Difficulty Reading Small Print,NEI VFQ-25,Original Response,SOME DIFFICULTY,,SOME DIFFICULTY,2,,Y,,3,BASELINE,1,2014-01-02,1
30,CDISCPILOT01,QS,01-701-1015,30,VFQ101,Your Overall Health Is,NEI VFQ-25,Original Response,POOR,,POOR,3,,,,9,WEEK 12,84,2014-03-26,84
31,CDISCPILOT01,QS,01-701-1015,31,VFQ111,Difficulty Seeing How People React,NEI VFQ-25,Original Response,VERY DIFFICULT,,VERY DIFFICULT,3,,,,9,WEEK 12,84,2014-03-26,84
32,CDISCPILOT01,QS,01-701-1015,32,VFQ108,Difficulty Reading Street Signs,NEI VFQ-25,Original Response,NO DIFFICULTY,,NO DIFFICULTY,1,,,,9,WEEK 12,84,2014-03-26,84
33,CDISCPILOT01,QS,01-701-1015,33,VFQ116A,Driving in Difficult Conditions,NEI VFQ-25,Original Response,VERY DIFFICULT,,VERY DIFFICULT,3,,,,9,WEEK 12,84,2014-03-26,84
34,CDISCPILOT01,QS,01-701-1015,34,VFQ105,Difficulty Reading Newspapers,NEI VFQ-25,Original Response,NO DIFFICULTY,,NO DIFFICULTY,1,,,,9,WEEK 12,84,2014-03-26,84
35,CDISCPILOT01,QS,01-701-1015,35,VFQ115,Are You Currently Driving,NEI VFQ-25,Original Response,YES,,YES,2,,,,9,WEEK 12,84,2014-03-26,84
36,CDISCPILOT01,QS,01-701-1015,36,VFQ110,Difficulty Noticing Objects to Side,NEI VFQ-25,Original Response,VERY DIFFICULT,,VERY DIFFICULT,3,,,,9,WEEK 12,84,2014-03-26,84
37,CDISCPILOT01,QS,01-701-1015,37,VFQ109,Difficulty Going Down Step at Night,NEI VFQ-25,Original Response,VERY DIFFICULT,,VERY DIFFICULT,3,,,,9,WEEK 12,84,2014-03-26,84
38,CDISCPILOT01,QS,01-701-1015,38,VFQ102,Eyesight Using Both Eyes Is,NEI VFQ-25,Original Response,POOR,,POOR,3,,,,9,WEEK 12,84,2014-03-26,84
39,CDISCPILOT01,QS,01-701-1015,39,VFQ112,Difficulty Picking Out Own Clothes,NEI VFQ-25,Original Response,NO DIFFICULTY,,NO DIFFICULTY,1,,,,9,WEEK 12,84,2014-03-26,84
40,CDISCPILOT01,QS,01-701-1015,40,VFQ124,I Need a Lot of Help From Others,NEI VFQ-25,Original Response,RARELY,,RARELY,3,,,,9,WEEK 12,84,2014-03-26,84
41,CDISCPILOT01,QS,01-701-1015,41,VFQ121,I Feel Frustrated a Lot of the Time,NEI VFQ-25,Original Response,SOMETIMES,,SOMETIMES,4,,,,9,WEEK 12,84,2014-03-26,84
42,CDISCPILOT01,QS,01-701-1015,42,VFQ120,I Stay Home Most of the Time,NEI VFQ-25,Original Response,NEVER,,NEVER,2,,,,9,WEEK 12,84,2014-03-26,84
43,CDISCPILOT01,QS,01-701-1015,43,VFQ119,Eye Pain Keep You From Doing What You Like,NEI VFQ-25,Original Response,NEVER,,NEVER,2,,,,9,WEEK 12,84,2014-03-26,84
44,CDISCPILOT01,QS,01-701-1015,44,VFQ1A08,Difficulty Seeing Programs on TV,NEI VFQ-25,Original Response,NO DIFFICULTY,,NO DIFFICULTY,1,,,,9,WEEK 12,84,2014-03-26,84
45,CDISCPILOT01,QS,01-701-1015,45,VFQ107,Difficulty Finding on Crowded Shelf,NEI VFQ-25,Original Response,VERY DIFFICULT,,VERY DIFFICULT,3,,,,9,WEEK 12,84,2014-03-26,84
46,CDISCPILOT01,QS,01-701-1015,46,VFQ106,Difficulty Doing Work/Hobbies,NEI VFQ-25,Original Response,SOME DIFFICULTY,,SOME DIFFICULTY,1,,,,9,WEEK 12,84,2014-03-26,84
47,CDISCPILOT01,QS,01-701-1015,47,VFQ115C,Difficulty Driving During Daytime,NEI VFQ-25,Original Response,NO DIFFICULTY,,NO DIFFICULTY,1,,,,9,WEEK 12,84,2014-03-26,84
48,CDISCPILOT01,QS,01-701-1015,48,VFQ1A05,Difficulty Shaving or Styling Hair,NEI VFQ-25,Original Response,NO DIFFICULTY,,NO DIFFICULTY,1,,,,9,WEEK 12,84,2014-03-26,84
49,CDISCPILOT01,QS,01-701-1015,49,VFQ104,How Often Pain in and Around Eyes,NEI VFQ-25,Original Response,RARELY,,RARELY,3,,,,9,WEEK 12,84,2014-03-26,84
50,CDISCPILOT01,QS,01-701-1015,50,VFQ103,How Often You Worry About Eyesight,NEI VFQ-25,Original Response,RARELY,,RARELY,3,,,,9,WEEK 12,84,2014-03-26,84
51,CDISCPILOT01,QS,01-701-1015,51,VFQ113,Difficulty Visiting With People,NEI VFQ-25,Original Response,NO DIFFICULTY,,NO DIFFICULTY,1,,,,9,WEEK 12,84,2014-03-26,84
52,CDISCPILOT01,QS,01-701-1015,52,VFQ125,Worry I'll Do Embarrassing Things,NEI VFQ-25,Original Response,RARELY,,RARELY,3,,,,9,WEEK 12,84,2014-03-26,84
53,CDISCPILOT01,QS,01-701-1015,53,VFQ1A07,Difficulty Taking Part in Sports,NEI VFQ-25,Original Response,SOME DIFFICULTY,,SOME DIFFICULTY,2,,,,9,WEEK 12,84,2014-03-26,84
54,CDISCPILOT01,QS,01-701-1015,54,VFQ116,Difficulty Driving at Night,NEI VFQ-25,Original Response,SOME DIFFICULTY,,SOME DIFFICULTY,2,,,,9,WEEK 12,84,2014-03-26,84
55,CDISCPILOT01,QS,01-701-1015,55,VFQ1A06,Difficulty Recognizing People,NEI VFQ-25,Original Response,VERY DIFFICULT,,VERY DIFFICULT,3,,,,9,WEEK 12,84,2014-03-26,84
56,CDISCPILOT01,QS,01-701-1015,56,VFQ1A04,Difficulty Figure Out Bill Accuracy,NEI VFQ-25,Original Response,NO DIFFICULTY,,NO DIFFICULTY,1,,,,9,WEEK 12,84,2014-03-26,84
57,CDISCPILOT01,QS,01-701-1015,57,VFQ114,Difficulty Going Out to See Movies,NEI VFQ-25,Original Response,NO DIFFICULTY,,NO DIFFICULTY,1,,,,9,WEEK 12,84,2014-03-26,84
58,CDISCPILOT01,QS,01-701-1015,58,VFQ1A03,Difficulty Reading Small Print,NEI VFQ-25,Original Response,SOME DIFFICULTY,,SOME DIFFICULTY,2,,,,9,WEEK 12,84,2014-03-26,84
59,CDISCPILOT01,QS,01-701-1015,59,VFQ101,Your Overall Health Is,NEI VFQ-25,Original Response,VERY POOR,,VERY POOR,5,,,,12,WEEK 24,168,2014-06-18,168
60,CDISCPILOT01,QS,01-701-1015,60,VFQ111,Difficulty Seeing How People React,NEI VFQ-25,Original Response,NO DIFFICULTY,,NO DIFFICULTY,1,,,,12,WEEK 24,168,2014-06-18,168
61,CDISCPILOT01,QS,01-701-1015,61,VFQ110,Difficulty Noticing Objects to Side,NEI VFQ-25,Original Response,VERY DIFFICULT,,VERY DIFFICULT,3,,,,12,WEEK 24,168,2014-06-18,168
62,CDISCPILOT01,QS,01-701-1015,62,VFQ108,Difficulty Reading Street Signs,NEI VFQ-25,Original Response,NO DIFFICULTY,,NO DIFFICULTY,1,,,,12,WEEK 24,168,2014-06-18,168
63,CDISCPILOT01,QS,01-701-1015,63,VFQ116A,Driving in Difficult Conditions,NEI VFQ-25,Original Response,NO DIFFICULTY,,NO DIFFICULTY,1,,,,12,WEEK 24,168,2014-06-18,168
64,CDISCPILOT01,QS,01-701-1015,64,VFQ107,Difficulty Finding on Crowded Shelf,NEI VFQ-25,Original Response,NO DIFFICULTY,,NO DIFFICULTY,1,,,,12,WEEK 24,168,2014-06-18,168
65,CDISCPILOT01,QS,01-701-1015,65,VFQ105,Difficulty Reading Newspapers,NEI VFQ-25,Original Response,SOME DIFFICULTY,,SOME DIFFICULTY,2,,,,12,WEEK 24,168,2014-06-18,168
66,CDISCPILOT01,QS,01-701-1015,66,VFQ115,Are You Currently Driving,NEI VFQ-25,Original Response,YES,,YES,2,,,,12,WEEK 24,168,2014-06-18,168
67,CDISCPILOT01,QS,01-701-1015,67,VFQ104,How Often Pain in and Around Eyes,NEI VFQ-25,Original Response,NEVER,,NEVER,2,,,,12,WEEK 24,168,2014-06-18,168
68,CDISCPILOT01,QS,01-701-1015,68,VFQ109,Difficulty Going Down Step at Night,NEI VFQ-25,Original Response,SOME DIFFICULTY,,SOME DIFFICULTY,2,,,,12,WEEK 24,168,2014-06-18,168
69,CDISCPILOT01,QS,01-701-1015,69,VFQ102,Eyesight Using Both Eyes Is,NEI VFQ-25,Original Response,GOOD,,GOOD,2,,,,12,WEEK 24,168,2014-06-18,168
70,CDISCPILOT01,QS,01-701-1015,70,VFQ112,Difficulty Picking Out Own Clothes,NEI VFQ-25,Original Response,SOME DIFFICULTY,,SOME DIFFICULTY,2,,,,12,WEEK 24,168,2014-06-18,168
71,CDISCPILOT01,QS,01-701-1015,71,VFQ124,I Need a Lot of Help From Others,NEI VFQ-25,Original Response,FREQUENTLY,,FREQUENTLY,1,,,,12,WEEK 24,168,2014-06-18,168
72,CDISCPILOT01,QS,01-701-1015,72,VFQ121,I Feel Frustrated a Lot of the Time,NEI VFQ-25,Original Response,SOMETIMES,,SOMETIMES,4,,,,12,WEEK 24,168,2014-06-18,168
73,CDISCPILOT01,QS,01-701-1015,73,VFQ120,I Stay Home Most of the Time,NEI VFQ-25,Original Response,FREQUENTLY,,FREQUENTLY,1,,,,12,WEEK 24,168,2014-06-18,168
74,CDISCPILOT01,QS,01-701-1015,74,VFQ119,Eye Pain Keep You From Doing What You Like,NEI VFQ-25,Original Response,RARELY,,RARELY,3,,,,12,WEEK 24,168,2014-06-18,168
75,CDISCPILOT01,QS,01-701-1015,75,VFQ1A08,Difficulty Seeing Programs on TV,NEI VFQ-25,Original Response,VERY DIFFICULT,,VERY DIFFICULT,3,,,,12,WEEK 24,168,2014-06-18,168
76,CDISCPILOT01,QS,01-701-1015,76,VFQ1A07,Difficulty Taking Part in Sports,NEI VFQ-25,Original Response,VERY DIFFICULT,,VERY DIFFICULT,3,,,,12,WEEK 24,168,2014-06-18,168
77,CDISCPILOT01,QS,01-701-1015,77,VFQ106,Difficulty Doing Work/Hobbies,NEI VFQ-25,Original Response,SOME DIFFICULTY,,SOME DIFFICULTY,1,,,,12,WEEK 24,168,2014-06-18,168
78,CDISCPILOT01,QS,01-701-1015,78,VFQ115C,Difficulty Driving During Daytime,NEI VFQ-25,Original Response,NO DIFFICULTY,,NO DIFFICULTY,1,,,,12,WEEK 24,168,2014-06-18,168
79,CDISCPILOT01,QS,01-701-1015,79,VFQ1A05,Difficulty Shaving or Styling Hair,NEI VFQ-25,Original Response,NO DIFFICULTY,,NO DIFFICULTY,1,,,,12,WEEK 24,168,2014-06-18,168
80,CDISCPILOT01,QS,01-701-1015,80,VFQ1A04,Difficulty Figure Out Bill Accuracy,NEI VFQ-25,Original Response,NO DIFFICULTY,,NO DIFFICULTY,1,,,,12,WEEK 24,168,2014-06-18,168
81,CDISCPILOT01,QS,01-701-1015,81,VFQ103,How Often You Worry About Eyesight,NEI VFQ-25,Original Response,RARELY,,RARELY,3,,,,12,WEEK 24,168,2014-06-18,168
82,CDISCPILOT01,QS,01-701-1015,82,VFQ113,Difficulty Visiting With People,NEI VFQ-25,Original Response,NO DIFFICULTY,,NO DIFFICULTY,1,,,,12,WEEK 24,168,2014-06-18,168
83,CDISCPILOT01,QS,01-701-1015,83,VFQ125,Worry I'll Do Embarrassing Things,NEI VFQ-25,Original Response,NEVER,,NEVER,2,,,,12,WEEK 24,168,2014-06-18,168
84,CDISCPILOT01,QS,01-701-1015,84,VFQ116,Difficulty Driving at Night,NEI VFQ-25,Original Response,VERY DIFFICULT,,VERY DIFFICULT,3,,,,12,WEEK 24,168,2014-06-18,168
85,CDISCPILOT01,QS,01-701-1015,85,VFQ1A06,Difficulty Recognizing People,NEI VFQ-25,Original Response,VERY DIFFICULT,,VERY DIFFICULT,3,,,,12,WEEK 24,168,2014-06-18,168
86,CDISCPILOT01,QS,01-701-1015,86,VFQ114,Difficulty Going Out to See Movies,NEI VFQ-25,Original Response,NO DIFFICULTY,,NO DIFFICULTY,1,,,,12,WEEK 24,168,2014-06-18,168
87,CDISCPILOT01,QS,01-701-1015,87,VFQ1A03,Difficulty Reading Small Print,NEI VFQ-25,Original Response,NO DIFFICULTY,,NO DIFFICULTY,1,,,,12,WEEK 24,168,2014-06-18,168
88,CDISCPILOT01,QS,01-701-1023,1,VFQ101,Your Overall Health Is,NEI VFQ-25,Original Response,FAIR,,FAIR,1,,Y,,3,BASELINE,1,2012-08-05,1
89,CDISCPILOT01,QS,01-701-1023,2,VFQ108,Difficulty Reading Street Signs,NEI VFQ-25,Original Response,NO DIFFICULTY,,NO DIFFICULTY,1,,Y,,3,BASELINE,1,2012-08-05,1
90,CDISCPILOT01,QS,01-701-1023,3,VFQ105,Difficulty Reading Newspapers,NEI VFQ-25,Original Response,VERY DIFFICULT,,VERY DIFFICULT,3,,Y,,3,BASELINE,1,2012-08-05,1
91,CDISCPILOT01,QS,01-701-1023,4,VFQ111,Difficulty Seeing How People React,NEI VFQ-25,Original Response,SOME DIFFICULTY,,SOME DIFFICULTY,2,,Y,,3,BASELINE,1,2012-08-05,1
92,CDISCPILOT01,QS,01-701-1023,5,VFQ110,Difficulty Noticing Objects to Side,NEI VFQ-25,Original Response,NO DIFFICULTY,,NO DIFFICULTY,1,,Y,,3,BASELINE,1,2012-08-05,1
93,CDISCPILOT01,QS,01-701-1023,6,VFQ109,Difficulty Going Down Step at Night,NEI VFQ-25,Original Response,NO DIFFICULTY,,NO DIFFICULTY,1,,Y,,3,BASELINE,1,2012-08-05,1
94,CDISCPILOT01,QS,01-701-1023,7,VFQ102,Eyesight Using Both Eyes Is,NEI VFQ-25,Original Response,VERY POOR,,VERY POOR,5,,Y,,3,BASELINE,1,2012-08-05,1
95,CDISCPILOT01,QS,01-701-1023,8,VFQ112,Difficulty Picking Out Own Clothes,NEI VFQ-25,Original Response,SOME DIFFICULTY,,SOME DIFFICULTY,2,,Y,,3,BASELINE,1,2012-08-05,1
96,CDISCPILOT01,QS,01-701-1023,9,VFQ124,I Need a Lot of Help From Others,NEI VFQ-25,Original Response,RARELY,,RARELY,3,,Y,,3,BASELINE,1,2012-08-05,1
97,CDISCPILOT01,QS,01-701-1023,10,VFQ121,I Feel Frustrated a Lot of the Time,NEI VFQ-25,Original Response,RARELY,,RARELY,3,,Y,,3,BASELINE,1,2012-08-05,1
98,CDISCPILOT01,QS,01-701-1023,11,VFQ120,I Stay Home Most of the Time,NEI VFQ-25,Original Response,FREQUENTLY,,FREQUENTLY,1,,Y,,3,BASELINE,1,2012-08-05,1
99,CDISCPILOT01,QS,01-701-1023,12,VFQ119,Eye Pain Keep You From Doing What You Like,NEI VFQ-25,Original Response,SOMETIMES,,SOMETIMES,4,,Y,,3,BASELINE,1,2012-08-05,1
100,CDISCPILOT01,QS,01-701-1023,13,VFQ116A,Driving in Difficult Conditions,NEI VFQ-25,Original Response,VERY DIFFICULT,,VERY DIFFICULT,3,,Y,,3,BASELINE,1,2012-08-05,1
101,CDISCPILOT01,QS,01-701-1023,14,VFQ107,Difficulty Finding on Crowded Shelf,NEI VFQ-25,Original Response,SOME DIFFICULTY,,SOME DIFFICULTY,2,,Y,,3,BASELINE,1,2012-08-05,1
102,CDISCPILOT01,QS,01-701-1023,15,VFQ106,Difficulty Doing Work/Hobbies,NEI VFQ-25,Original Response,VERY DIFFICULT,,VERY DIFFICULT,2,,Y,,3,BASELINE,1,2012-08-05,1
103,CDISCPILOT01,QS,01-701-1023,16,VFQ115C,Difficulty Driving During Daytime,NEI VFQ-25,Original Response,SOME DIFFICULTY,,SOME DIFFICULTY,2,,Y,,3,BASELINE,1,2012-08-05,1
104,CDISCPILOT01,QS,01-701-1023,17,VFQ115,Are You Currently Driving,NEI VFQ-25,Original Response,NO,,NO,1,,Y,,3,BASELINE,1,2012-08-05,1
105,CDISCPILOT01,QS,01-701-1023,18,VFQ104,How Often Pain in and Around Eyes,NEI VFQ-25,Original Response,RARELY,,RARELY,3,,Y,,3,BASELINE,1,2012-08-05,1
106,CDISCPILOT01,QS,01-701-1023,19,VFQ103,How Often You Worry About Eyesight,NEI VFQ-25,Original Response,SOMETIMES,,SOMETIMES,4,,Y,,3,BASELINE,1,2012-08-05,1
107,CDISCPILOT01,QS,01-701-1023,20,VFQ113,Difficulty Visiting With People,NEI VFQ-25,Original Response,VERY DIFFICULT,,VERY DIFFICULT,3,,Y,,3,BASELINE,1,2012-08-05,1
108,CDISCPILOT01,QS,01-701-1023,21,VFQ125,Worry I'll Do Embarrassing Things,NEI VFQ-25,Original Response,FREQUENTLY,,FREQUENTLY,1,,Y,,3,BASELINE,1,2012-08-05,1
109,CDISCPILOT01,QS,01-701-1023,22,VFQ1A08,Difficulty Seeing Programs on TV,NEI VFQ-25,Original Response,SOME DIFFICULTY,,SOME DIFFICULTY,2,,Y,,3,BASELINE,1,2012-08-05,1
110,CDISCPILOT01,QS,01-701-1023,23,VFQ1A07,Difficulty Taking Part in Sports,NEI VFQ-25,Original Response,NO DIFFICULTY,,NO DIFFICULTY,1,,Y,,3,BASELINE,1,2012-08-05,1
111,CDISCPILOT01,QS,01-701-1023,24,VFQ116,Difficulty Driving at Night,NEI VFQ-25,Original Response,NO DIFFICULTY,,NO DIFFICULTY,1,,Y,,3,BASELINE,1,2012-08-05,1
112,CDISCPILOT01,QS,01-701-1023,25,VFQ1A06,Difficulty Recognizing People,NEI VFQ-25,Original Response,SOME DIFFICULTY,,SOME DIFFICULTY,2,,Y,,3,BASELINE,1,2012-08-05,1
113,CDISCPILOT01,QS,01-701-1023,26,VFQ1A05,Difficulty Shaving or Styling Hair,NEI VFQ-25,Original Response,NO DIFFICULTY,,NO DIFFICULTY,1,,Y,,3,BASELINE,1,2012-08-05,1
114,CDISCPILOT01,QS,01-701-1023,27,VFQ1A04,Difficulty Figure Out Bill Accuracy,NEI VFQ-25,Original Response,VERY DIFFICULT,,VERY DIFFICULT,3,,Y,,3,BASELINE,1,2012-08-05,1
115,CDISCPILOT01,QS,01-701-1023,28,VFQ114,Difficulty Going Out to See Movies,NEI VFQ-25,Original Response,VERY DIFFICULT,,VERY DIFFICULT,3,,Y,,3,BASELINE,1,2012-08-05,1
116,CDISCPILOT01,QS,01-701-1023,29,VFQ1A03,Difficulty Reading Small Print,NEI VFQ-25,Original Response,SOME DIFFICULTY,,SOME DIFFICULTY,2,,Y,,3,BASELINE,1,2012-08-05,1
117,CDISCPILOT01,QS,01-701-1028,1,VFQ103,How Often You Worry About Eyesight,NEI VFQ-25,Original Response,SOMETIMES,,SOMETIMES,4,,Y,,3,BASELINE,1,2013-07-19,1
118,CDISCPILOT01,QS,01-701-1028,2,VFQ113,Difficulty Visiting With People,NEI VFQ-25,Original Response,VERY DIFFICULT,,VERY DIFFICULT,3,,Y,,3,BASELINE,1,2013-07-19,1
119,CDISCPILOT01,QS,01-701-1028,3,VFQ102,Eyesight Using Both Eyes Is,NEI VFQ-25,Original Response,GOOD,,GOOD,2,,Y,,3,BASELINE,1,2013-07-19,1
120,CDISCPILOT01,QS,01-701-1028,4,VFQ101,Your Overall Health Is,NEI VFQ-25,Original Response,VERY GOOD,,VERY GOOD,4,,Y,,3,BASELINE,1,2013-07-19,1
121,CDISCPILOT01,QS,01-701-1028,5,VFQ104,How Often Pain in and Around Eyes,NEI VFQ-25,Original Response,RARELY,,RARELY,3,,Y,,3,BASELINE,1,2013-07-19,1
122,CDISCPILOT01,QS,01-701-1028,6,VFQ114,Difficulty Going Out to See Movies,NEI VFQ-25,Original Response,NO DIFFICULTY,,NO DIFFICULTY,1,,Y,,3,BASELINE,1,2013-07-19,1
123,CDISCPILOT01,QS,01-701-1028,7,VFQ1A03,Difficulty Reading Small Print,NEI VFQ-25,Original Response,VERY DIFFICULT,,VERY DIFFICULT,3,,Y,,3,BASELINE,1,2013-07-19,1
124,CDISCPILOT01,QS,01-701-1028,8,VFQ125,Worry I'll Do Embarrassing Things,NEI VFQ-25,Original Response,FREQUENTLY,,FREQUENTLY,1,,Y,,3,BASELINE,1,2013-07-19,1
125,CDISCPILOT01,QS,01-701-1028,9,VFQ112,Difficulty Picking Out Own Clothes,NEI VFQ-25,Original Response,VERY DIFFICULT,,VERY DIFFICULT,3,,Y,,3,BASELINE,1,2013-07-19,1
126,CDISCPILOT01,QS,01-701-1028,10,VFQ111,Difficulty Seeing How People React,NEI VFQ-25,Original Response,SOME DIFFICULTY,,SOME DIFFICULTY,2,,Y,,3,BASELINE,1,2013-07-19,1
127,CDISCPILOT01,QS,01-701-1028,11,VFQ110,Difficulty Noticing Objects to Side,NEI VFQ-25,Original Response,VERY DIFFICULT,,VERY DIFFICULT,3,,Y,,3,BASELINE,1,2013-07-19,1
128,CDISCPILOT01,QS,01-701-1028,12,VFQ109,Difficulty Going Down Step at Night,NEI VFQ-25,Original Response,VERY DIFFICULT,,VERY DIFFICULT,3,,Y,,3,BASELINE,1,2013-07-19,1
129,CDISCPILOT01,QS,01-701-1028,13,VFQ108,Difficulty Reading Street Signs,NEI VFQ-25,Original Response,VERY DIFFICULT,,VERY DIFFICULT,3,,Y,,3,BASELINE,1,2013-07-19,1
130,CDISCPILOT01,QS,01-701-1028,14,VFQ116A,Driving in Difficult Conditions,NEI VFQ-25,Original Response,SOME DIFFICULTY,,SOME DIFFICULTY,2,,Y,,3,BASELINE,1,2013-07-19,1
131,CDISCPILOT01,QS,01-701-1028,15,VFQ107,Difficulty Finding on Crowded Shelf,NEI VFQ-25,Original Response,VERY DIFFICULT,,VERY DIFFICULT,3,,Y,,3,BASELINE,1,2013-07-19,1
132,CDISCPILOT01,QS,01-701-1028,16,VFQ106,Difficulty Doing Work/Hobbies,NEI VFQ-25,Original Response,VERY DIFFICULT,,VERY DIFFICULT,2,,Y,,3,BASELINE,1,2013-07-19,1
133,CDISCPILOT01,QS,01-701-1028,17,VFQ105,Difficulty Reading Newspapers,NEI VFQ-25,Original Response,VERY DIFFICULT,,VERY DIFFICULT,3,,Y,,3,BASELINE,1,2013-07-19,1
134,CDISCPILOT01,QS,01-701-1028,18,VFQ115,Are You Currently Driving,NEI VFQ-25,Original Response,YES,,YES,2,,Y,,3,BASELINE,1,2013-07-19,1
135,CDISCPILOT01,QS,01-701-1028,19,VFQ1A04,Difficulty Figure Out Bill Accuracy,NEI VFQ-25,Original Response,VERY DIFFICULT,,VERY DIFFICULT,3,,Y,,3,BASELINE,1,2013-07-19,1
136,CDISCPILOT01,QS,01-701-1028,20,VFQ121,I Feel Frustrated a Lot of the Time,NEI VFQ-25,Original Response,FREQUENTLY,,FREQUENTLY,1,,Y,,3,BASELINE,1,2013-07-19,1
137,CDISCPILOT01,QS,01-701-1028,21,VFQ120,I Stay Home Most of the Time,NEI VFQ-25,Original Response,RARELY,,RARELY,3,,Y,,3,BASELINE,1,2013-07-19,1
138,CDISCPILOT01,QS,01-701-1028,22,VFQ119,Eye Pain Keep You From Doing What You Like,NEI VFQ-25,Original Response,RARELY,,RARELY,3,,Y,,3,BASELINE,1,2013-07-19,1
139,CDISCPILOT01,QS,01-701-1028,23,VFQ124,I Need a Lot of Help From Others,NEI VFQ-25,Original Response,RARELY,,RARELY,3,,Y,,3,BASELINE,1,2013-07-19,1
140,CDISCPILOT01,QS,01-701-1028,24,VFQ1A07,Difficulty Taking Part in Sports,NEI VFQ-25,Original Response,VERY DIFFICULT,,VERY DIFFICULT,3,,Y,,3,BASELINE,1,2013-07-19,1
141,CDISCPILOT01,QS,01-701-1028,25,VFQ116,Difficulty Driving at Night,NEI VFQ-25,Original Response,SOME DIFFICULTY,,SOME DIFFICULTY,2,,Y,,3,BASELINE,1,2013-07-19,1
142,CDISCPILOT01,QS,01-701-1028,26,VFQ115C,Difficulty Driving During Daytime,NEI VFQ-25,Original Response,SOME DIFFICULTY,,SOME DIFFICULTY,2,,Y,,3,BASELINE,1,2013-07-19,1
143,CDISCPILOT01,QS,01-701-1028,27,VFQ1A08,Difficulty Seeing Programs on TV,NEI VFQ-25,Original Response,VERY DIFFICULT,,VERY DIFFICULT,3,,Y,,3,BASELINE,1,2013-07-19,1
144,CDISCPILOT01,QS,01-701-1028,28,VFQ1A05,Difficulty Shaving or Styling Hair,NEI VFQ-25,Original Response,VERY DIFFICULT,,VERY DIFFICULT,3,,Y,,3,BASELINE,1,2013-07-19,1
145,CDISCPILOT01,QS,01-701-1028,29,VFQ1A06,Difficulty Recognizing People,NEI VFQ-25,Original Response,SOME DIFFICULTY,,SOME DIFFICULTY,2,,Y,,3,BASELINE,1,2013-07-19,1
146,CDISCPILOT01,QS,01-701-1028,30,VFQ103,How Often You Worry About Eyesight,NEI VFQ-25,Original Response,FREQUENTLY,,FREQUENTLY,1,,,,9,WEEK 12,84,2013-10-09,83
147,CDISCPILOT01,QS,01-701-1028,31,VFQ113,Difficulty Visiting With People,NEI VFQ-25,Original Response,NO DIFFICULTY,,NO DIFFICULTY,1,,,,9,WEEK 12,84,2013-10-09,83
148,CDISCPILOT01,QS,01-701-1028,32,VFQ104,How Often Pain in and Around Eyes,NEI VFQ-25,Original Response,RARELY,,RARELY,3,,,,9,WEEK 12,84,2013-10-09,83
149,CDISCPILOT01,QS,01-701-1028,33,VFQ114,Difficulty Going Out to See Movies,NEI VFQ-25,Original Response,SOME DIFFICULTY,,SOME DIFFICULTY,2,,,,9,WEEK 12,84,2013-10-09,83
150,CDISCPILOT01,QS,01-701-1028,34,VFQ101,Your Overall Health Is,NEI VFQ-25,Original Response,GOOD,,GOOD,2,,,,9,WEEK 12,84,2013-10-09,83
151,CDISCPILOT01,QS,01-701-1028,35,VFQ111,Difficulty Seeing How People React,NEI VFQ-25,Original Response,SOME DIFFICULTY,,SOME DIFFICULTY,2,,,,9,WEEK 12,84,2013-10-09,83
152,CDISCPILOT01,QS,01-701-1028,36,VFQ1A03,Difficulty Reading Small Print,NEI VFQ-25,Original Response,VERY DIFFICULT,,VERY DIFFICULT,3,,,,9,WEEK 12,84,2013-10-09,83
153,CDISCPILOT01,QS,01-701-1028,37,VFQ102,Eyesight Using Both Eyes Is,NEI VFQ-25,Original Response,FAIR,,FAIR,1,,,,9,WEEK 12,84,2013-10-09,83
154,CDISCPILOT01,QS,01-701-1028,38,VFQ108,Difficulty Reading Street Signs,NEI VFQ-25,Original Response,VERY DIFFICULT,,VERY DIFFICULT,3,,,,9,WEEK 12,84,2013-10-09,83
155,CDISCPILOT01,QS,01-701-1028,39,VFQ116A,Driving in Difficult Conditions,NEI VFQ-25,Original Response,VERY DIFFICULT,,VERY DIFFICULT,3,,,,9,WEEK 12,84,2013-10-09,83
156,CDISCPILOT01,QS,01-701-1028,40,VFQ110,Difficulty Noticing Objects to Side,NEI VFQ-25,Original Response,SOME DIFFICULTY,,SOME DIFFICULTY,2,,,,9,WEEK 12,84,2013-10-09,83
157,CDISCPILOT01,QS,01-701-1028,41,VFQ109,Difficulty Going Down Step at Night,NEI VFQ-25,Original Response,NO DIFFICULTY,,NO DIFFICULTY,1,,,,9,WEEK 12,84,2013-10-09,83
158,CDISCPILOT01,QS,01-701-1028,42,VFQ105,Difficulty Reading Newspapers,NEI VFQ-25,Original Response,NO DIFFICULTY,,NO DIFFICULTY,1,,,,9,WEEK 12,84,2013-10-09,83
159,CDISCPILOT01,QS,01-701-1028,43,VFQ115,Are You Currently Driving,NEI VFQ-25,Original Response,YES,,YES,2,,,,9,WEEK 12,84,2013-10-09,83
160,CDISCPILOT01,QS,01-701-1028,44,VFQ1A04,Difficulty Figure Out Bill Accuracy,NEI VFQ-25,Original Response,NO DIFFICULTY,,NO DIFFICULTY,1,,,,9,WEEK 12,84,2013-10-09,83
161,CDISCPILOT01,QS,01-701-1028,45,VFQ121,I Feel Frustrated a Lot of the Time,NEI VFQ-25,Original Response,SOMETIMES,,SOMETIMES,4,,,,9,WEEK 12,84,2013-10-09,83
162,CDISCPILOT01,QS,01-701-1028,46,VFQ125,Worry I'll Do Embarrassing Things,NEI VFQ-25,Original Response,RARELY,,RARELY,3,,,,9,WEEK 12,84,2013-10-09,83
163,CDISCPILOT01,QS,01-701-1028,47,VFQ112,Difficulty Picking Out Own Clothes,NEI VFQ-25,Original Response,SOME DIFFICULTY,,SOME DIFFICULTY,2,,,,9,WEEK 12,84,2013-10-09,83
164,CDISCPILOT01,QS,01-701-1028,48,VFQ124,I Need a Lot of Help From Others,NEI VFQ-25,Original Response,NEVER,,NEVER,2,,,,9,WEEK 12,84,2013-10-09,83
165,CDISCPILOT01,QS,01-701-1028,49,VFQ107,Difficulty Finding on Crowded Shelf,NEI VFQ-25,Original Response,NO DIFFICULTY,,NO DIFFICULTY,1,,,,9,WEEK 12,84,2013-10-09,83
166,CDISCPILOT01,QS,01-701-1028,50,VFQ120,I Stay Home Most of the Time,NEI VFQ-25,Original Response,FREQUENTLY,,FREQUENTLY,1,,,,9,WEEK 12,84,2013-10-09,83
167,CDISCPILOT01,QS,01-701-1028,51,VFQ119,Eye Pain Keep You From Doing What You Like,NEI VFQ-25,Original Response,SOMETIMES,,SOMETIMES,4,,,,9,WEEK 12,84,2013-10-09,83
168,CDISCPILOT01,QS,01-701-1028,52,VFQ1A08,Difficulty Seeing Programs on TV,NEI VFQ-25,Original Response,NO DIFFICULTY,,NO DIFFICULTY,1,,,,9,WEEK 12,84,2013-10-09,83
169,CDISCPILOT01,QS,01-701-1028,53,VFQ106,Difficulty Doing Work/Hobbies,NEI VFQ-25,Original Response,VERY DIFFICULT,,VERY DIFFICULT,2,,,,9,WEEK 12,84,2013-10-09,83
170,CDISCPILOT01,QS,01-701-1028,54,VFQ115C,Difficulty Driving During Daytime,NEI VFQ-25,Original Response,NO DIFFICULTY,,NO DIFFICULTY,1,,,,9,WEEK 12,84,2013-10-09,83
171,CDISCPILOT01,QS,01-701-1028,55,VFQ1A05,Difficulty Shaving or Styling Hair,NEI VFQ-25,Original Response,VERY DIFFICULT,,VERY DIFFICULT,3,,,,9,WEEK 12,84,2013-10-09,83
172,CDISCPILOT01,QS,01-701-1028,56,VFQ1A07,Difficulty Taking Part in Sports,NEI VFQ-25,Original Response,VERY DIFFICULT,,VERY DIFFICULT,3,,,,9,WEEK 12,84,2013-10-09,83
173,CDISCPILOT01,QS,01-701-1028,57,VFQ116,Difficulty Driving at Night,NEI VFQ-25,Original Response,VERY DIFFICULT,,VERY DIFFICULT,3,,,,9,WEEK 12,84,2013-10-09,83
174,CDISCPILOT01,QS,01-701-1028,58,VFQ1A06,Difficulty Recognizing People,NEI VFQ-25,Original Response,VERY DIFFICULT,,VERY DIFFICULT,3,,,,9,WEEK 12,84,2013-10-09,83
175,CDISCPILOT01,QS,01-701-1028,59,VFQ103,How Often You Worry About Eyesight,NEI VFQ-25,Original Response,SOMETIMES,,SOMETIMES,4,,,,12,WEEK 24,168,2014-01-06,172
176,CDISCPILOT01,QS,01-701-1028,60,VFQ113,Difficulty Visiting With People,NEI VFQ-25,Original Response,NO DIFFICULTY,,NO DIFFICULTY,1,,,,12,WEEK 24,168,2014-01-06,172
177,CDISCPILOT01,QS,01-701-1028,61,VFQ102,Eyesight Using Both Eyes Is,NEI VFQ-25,Original Response,GOOD,,GOOD,2,,,,12,WEEK 24,168,2014-01-06,172
178,CDISCPILOT01,QS,01-701-1028,62,VFQ104,How Often Pain in and Around Eyes,NEI VFQ-25,Original Response,NEVER,,NEVER,2,,,,12,WEEK 24,168,2014-01-06,172
179,CDISCPILOT01,QS,01-701-1028,63,VFQ114,Difficulty Going Out to See Movies,NEI VFQ-25,Original Response,SOME DIFFICULTY,,SOME DIFFICULTY,2,,,,12,WEEK 24,168,2014-01-06,172
180,CDISCPILOT01,QS,01-701-1028,64,VFQ1A03,Difficulty Reading Small Print,NEI VFQ-25,Original Response,VERY DIFFICULT,,VERY DIFFICULT,3,,,,12,WEEK 24,168,2014-01-06,172
181,CDISCPILOT01,QS,01-701-1028,65,VFQ101,Your Overall Health Is,NEI VFQ-25,Original Response,POOR,,POOR,3,,,,12,WEEK 24,168,2014-01-06,172
182,CDISCPILOT01,QS,01-701-1028,66,VFQ111,Difficulty Seeing How People React,NEI VFQ-25,Original Response,NO DIFFICULTY,,NO DIFFICULTY,1,,,,12,WEEK 24,168,2014-01-06,172
183,CDISCPILOT01,QS,01-701-1028,67,VFQ110,Difficulty Noticing Objects to Side,NEI VFQ-25,Original Response,SOME DIFFICULTY,,SOME DIFFICULTY,2,,,,12,WEEK 24,168,2014-01-06,172
184,CDISCPILOT01,QS,01-701-1028,68,VFQ125,Worry I'll Do Embarrassing Things,NEI VFQ-25,Original Response,FREQUENTLY,,FREQUENTLY,1,,,,12,WEEK 24,168,2014-01-06,172
185,CDISCPILOT01,QS,01-701-1028,69,VFQ108,Difficulty Reading Street Signs,NEI VFQ-25,Original Response,NO DIFFICULTY,,NO DIFFICULTY,1,,,,12,WEEK 24,168,2014-01-06,172
186,CDISCPILOT01,QS,01-701-1028,70,VFQ116A,Driving in Difficult Conditions,NEI VFQ-25,Original Response,NO DIFFICULTY,,NO DIFFICULTY,1,,,,12,WEEK 24,168,2014-01-06,172
187,CDISCPILOT01,QS,01-701-1028,71,VFQ107,Difficulty Finding on Crowded Shelf,NEI VFQ-25,Original Response,NO DIFFICULTY,,NO DIFFICULTY,1,,,,12,WEEK 24,168,2014-01-06,172
188,CDISCPILOT01,QS,01-701-1028,72,VFQ109,Difficulty Going Down Step at Night,NEI VFQ-25,Original Response,SOME DIFFICULTY,,SOME DIFFICULTY,2,,,,12,WEEK 24,168,2014-01-06,172
189,CDISCPILOT01,QS,01-701-1028,73,VFQ105,Difficulty Reading Newspapers,NEI VFQ-25,Original Response,SOME DIFFICULTY,,SOME DIFFICULTY,2,,,,12,WEEK 24,168,2014-01-06,172
190,CDISCPILOT01,QS,01-701-1028,74,VFQ115,Are You Currently Driving,NEI VFQ-25,Original Response,YES,,YES,2,,,,12,WEEK 24,168,2014-01-06,172
191,CDISCPILOT01,QS,01-701-1028,75,VFQ1A04,Difficulty Figure Out Bill Accuracy,NEI VFQ-25,Original Response,NO DIFFICULTY,,NO DIFFICULTY,1,,,,12,WEEK 24,168,2014-01-06,172
192,CDISCPILOT01,QS,01-701-1028,76,VFQ121,I Feel Frustrated a Lot of the Time,NEI VFQ-25,Original Response,NEVER,,NEVER,2,,,,12,WEEK 24,168,2014-01-06,172
193,CDISCPILOT01,QS,01-701-1028,77,VFQ120,I Stay Home Most of the Time,NEI VFQ-25,Original Response,RARELY,,RARELY,3,,,,12,WEEK 24,168,2014-01-06,172
194,CDISCPILOT01,QS,01-701-1028,78,VFQ112,Difficulty Picking Out Own Clothes,NEI VFQ-25,Original Response,NO DIFFICULTY,,NO DIFFICULTY,1,,,,12,WEEK 24,168,2014-01-06,172
195,CDISCPILOT01,QS,01-701-1028,79,VFQ124,I Need a Lot of Help From Others,NEI VFQ-25,Original Response,RARELY,,RARELY,3,,,,12,WEEK 24,168,2014-01-06,172
196,CDISCPILOT01,QS,01-701-1028,80,VFQ1A07,Difficulty Taking Part in Sports,NEI VFQ-25,Original Response,NO DIFFICULTY,,NO DIFFICULTY,1,,,,12,WEEK 24,168,2014-01-06,172
197,CDISCPILOT01,QS,01-701-1028,81,VFQ106,Difficulty Doing Work/Hobbies,NEI VFQ-25,Original Response,SOME DIFFICULTY,,SOME DIFFICULTY,1,,,,12,WEEK 24,168,2014-01-06,172
198,CDISCPILOT01,QS,01-701-1028,82,VFQ119,Eye Pain Keep You From Doing What You Like,NEI VFQ-25,Original Response,FREQUENTLY,,FREQUENTLY,1,,,,12,WEEK 24,168,2014-01-06,172
199,CDISCPILOT01,QS,01-701-1028,83,VFQ1A08,Difficulty Seeing Programs on TV,NEI VFQ-25,Original Response,NO DIFFICULTY,,NO DIFFICULTY,1,,,,12,WEEK 24,168,2014-01-06,172
200,CDISCPILOT01,QS,01-701-1028,84,VFQ115C,Difficulty Driving During Daytime,NEI VFQ-25,Original Response,NO DIFFICULTY,,NO DIFFICULTY,1,,,,12,WEEK 24,168,2014-01-06,172
201,CDISCPILOT01,QS,01-701-1028,85,VFQ1A05,Difficulty Shaving or Styling Hair,NEI VFQ-25,Original Response,NO DIFFICULTY,,NO DIFFICULTY,1,,,,12,WEEK 24,168,2014-01-06,172
202,CDISCPILOT01,QS,01-701-1028,86,VFQ116,Difficulty Driving at Night,NEI VFQ-25,Original Response,SOME DIFFICULTY,,SOME DIFFICULTY,2,,,,12,WEEK 24,168,2014-01-06,172
203,CDISCPILOT01,QS,01-701-1028,87,VFQ1A06,Difficulty Recognizing People,NEI VFQ-25,Original Response,VERY DIFFICULT,,VERY DIFFICULT,3,,,,12,WEEK 24,168,2014-01-06,172
204,CDISCPILOT01,QS,01-701-1033,1,VFQ103,How Often You Worry About Eyesight,NEI VFQ-25,Original Response,NEVER,,NEVER,2,,Y,,3,BASELINE,1,2014-03-18,1
205,CDISCPILOT01,QS,01-701-1033,2,VFQ104,How Often Pain in and Around Eyes,NEI VFQ-25,Original Response,RARELY,,RARELY,3,,Y,,3,BASELINE,1,2014-03-18,1
206,CDISCPILOT01,QS,01-701-1033,3,VFQ101,Your Overall Health Is,NEI VFQ-25,Original Response,FAIR,,FAIR,1,,Y,,3,BASELINE,1,2014-03-18,1
207,CDISCPILOT01,QS,01-701-1033,4,VFQ114,Difficulty Going Out to See Movies,NEI VFQ-25,Original Response,NO DIFFICULTY,,NO DIFFICULTY,1,,Y,,3,BASELINE,1,2014-03-18,1
208,CDISCPILOT01,QS,01-701-1033,5,VFQ113,Difficulty Visiting With People,NEI VFQ-25,Original Response,VERY DIFFICULT,,VERY DIFFICULT,3,,Y,,3,BASELINE,1,2014-03-18,1
209,CDISCPILOT01,QS,01-701-1033,6,VFQ102,Eyesight Using Both Eyes Is,NEI VFQ-25,Original Response,VERY POOR,,VERY POOR,5,,Y,,3,BASELINE,1,2014-03-18,1
210,CDISCPILOT01,QS,01-701-1033,7,VFQ108,Difficulty Reading Street Signs,NEI VFQ-25,Original Response,SOME DIFFICULTY,,SOME DIFFICULTY,2,,Y,,3,BASELINE,1,2014-03-18,1
211,CDISCPILOT01,QS,01-701-1033,8,VFQ111,Difficulty Seeing How People React,NEI VFQ-25,Original Response,VERY DIFFICULT,,VERY DIFFICULT,3,,Y,,3,BASELINE,1,2014-03-18,1
212,CDISCPILOT01,QS,01-701-1033,9,VFQ110,Difficulty Noticing Objects to Side,NEI VFQ-25,Original Response,SOME DIFFICULTY,,SOME DIFFICULTY,2,,Y,,3,BASELINE,1,2014-03-18,1
213,CDISCPILOT01,QS,01-701-1033,10,VFQ109,Difficulty Going Down Step at Night,NEI VFQ-25,Original Response,SOME DIFFICULTY,,SOME DIFFICULTY,2,,Y,,3,BASELINE,1,2014-03-18,1
214,CDISCPILOT01,QS,01-701-1033,11,VFQ105,Difficulty Reading Newspapers,NEI VFQ-25,Original Response,SOME DIFFICULTY,,SOME DIFFICULTY,2,,Y,,3,BASELINE,1,2014-03-18,1
215,CDISCPILOT01,QS,01-701-1033,12,VFQ115,Are You Currently Driving,NEI VFQ-25,Original Response,NO,,NO,1,,Y,,3,BASELINE,1,2014-03-18,1
216,CDISCPILOT01,QS,01-701-1033,13,VFQ1A04,Difficulty Figure Out Bill Accuracy,NEI VFQ-25,Original Response,SOME DIFFICULTY,,SOME DIFFICULTY,2,,Y,,3,BASELINE,1,2014-03-18,1
217,CDISCPILOT01,QS,01-701-1033,14,VFQ1A03,Difficulty Reading Small Print,NEI VFQ-25,Original Response,VERY DIFFICULT,,VERY DIFFICULT,3,,Y,,3,BASELINE,1,2014-03-18,1
218,CDISCPILOT01,QS,01-701-1033,15,VFQ125,Worry I'll Do Embarrassing Things,NEI VFQ-25,Original Response,NEVER,,NEVER,2,,Y,,3,BASELINE,1,2014-03-18,1
219,CDISCPILOT01,QS,01-701-1033,16,VFQ112,Difficulty Picking Out Own Clothes,NEI VFQ-25,Original Response,VERY DIFFICULT,,VERY DIFFICULT,3,,Y,,3,BASELINE,1,2014-03-18,1
220,CDISCPILOT01,QS,01-701-1033,17,VFQ124,I Need a Lot of Help From Others,NEI VFQ-25,Original Response,NEVER,,NEVER,2,,Y,,3,BASELINE,1,2014-03-18,1
221,CDISCPILOT01,QS,01-701-1033,18,VFQ121,I Feel Frustrated a Lot of the Time,NEI VFQ-25,Original Response,FREQUENTLY,,FREQUENTLY,1,,Y,,3,BASELINE,1,2014-03-18,1
222,CDISCPILOT01,QS,01-701-1033,19,VFQ120,I Stay Home Most of the Time,NEI VFQ-25,Original Response,FREQUENTLY,,FREQUENTLY,1,,Y,,3,BASELINE,1,2014-03-18,1
223,CDISCPILOT01,QS,01-701-1033,20,VFQ119,Eye Pain Keep You From Doing What You Like,NEI VFQ-25,Original Response,FREQUENTLY,,FREQUENTLY,1,,Y,,3,BASELINE,1,2014-03-18,1
224,CDISCPILOT01,QS,01-701-1033,21,VFQ116A,Driving in Difficult Conditions,NEI VFQ-25,Original Response,SOME DIFFICULTY,,SOME DIFFICULTY,2,,Y,,3,BASELINE,1,2014-03-18,1
225,CDISCPILOT01,QS,01-701-1033,22,VFQ107,Difficulty Finding on Crowded Shelf,NEI VFQ-25,Original Response,VERY DIFFICULT,,VERY DIFFICULT,3,,Y,,3,BASELINE,1,2014-03-18,1
226,CDISCPILOT01,QS,01-701-1033,23,VFQ106,Difficulty Doing Work/Hobbies,NEI VFQ-25,Original Response,SOME DIFFICULTY,,SOME DIFFICULTY,1,,Y,,3,BASELINE,1,2014-03-18,1
227,CDISCPILOT01,QS,01-701-1033,24,VFQ115C,Difficulty Driving During Daytime,NEI VFQ-25,Original Response,SOME DIFFICULTY,,SOME DIFFICULTY,2,,Y,,3,BASELINE,1,2014-03-18,1
228,CDISCPILOT01,QS,01-701-1033,25,VFQ1A05,Difficulty Shaving or Styling Hair,NEI VFQ-25,Original Response,SOME DIFFICULTY,,SOME DIFFICULTY,2,,Y,,3,BASELINE,1,2014-03-18,1
229,CDISCPILOT01,QS,01-701-1033,26,VFQ1A08,Difficulty Seeing Programs on TV,NEI VFQ-25,Original Response,VERY DIFFICULT,,VERY DIFFICULT,3,,Y,,3,BASELINE,1,2014-03-18,1
230,CDISCPILOT01,QS,01-701-1033,27,VFQ1A07,Difficulty Taking Part in Sports,NEI VFQ-25,Original Response,SOME DIFFICULTY,,SOME DIFFICULTY,2,,Y,,3,BASELINE,1,2014-03-18,1
231,CDISCPILOT01,QS,01-701-1033,28,VFQ116,Difficulty Driving at Night,NEI VFQ-25,Original Response,VERY DIFFICULT,,VERY DIFFICULT,3,,Y,,3,BASELINE,1,2014-03-18,1
232,CDISCPILOT01,QS,01-701-1033,29,VFQ1A06,Difficulty Recognizing People,NEI VFQ-25,Original Response,VERY DIFFICULT,,VERY DIFFICULT,3,,Y,,3,BASELINE,1,2014-03-18,1
233,CDISCPILOT01,QS,01-701-1034,1,VFQ106,Difficulty Doing Work/Hobbies,NEI VFQ-25,Original Response,VERY DIFFICULT,,VERY DIFFICULT,2,,Y,,3,BASELINE,1,2014-07-01,1
234,CDISCPILOT01,QS,01-701-1034,2,VFQ115C,Difficulty Driving During Daytime,NEI VFQ-25,Original Response,SOME DIFFICULTY,,SOME DIFFICULTY,2,,Y,,3,BASELINE,1,2014-07-01,1
235,CDISCPILOT01,QS,01-701-1034,3,VFQ105,Difficulty Reading Newspapers,NEI VFQ-25,Original Response,NO DIFFICULTY,,NO DIFFICULTY,1,,Y,,3,BASELINE,1,2014-07-01,1
236,CDISCPILOT01,QS,01-701-1034,4,VFQ104,How Often Pain in and Around Eyes,NEI VFQ-25,Original Response,RARELY,,RARELY,3,,Y,,3,BASELINE,1,2014-07-01,1
237,CDISCPILOT01,QS,01-701-1034,5,VFQ103,How Often You Worry About Eyesight,NEI VFQ-25,Original Response,NEVER,,NEVER,2,,Y,,3,BASELINE,1,2014-07-01,1
238,CDISCPILOT01,QS,01-701-1034,6,VFQ113,Difficulty Visiting With People,NEI VFQ-25,Original Response,SOME DIFFICULTY,,SOME DIFFICULTY,2,,Y,,3,BASELINE,1,2014-07-01,1
239,CDISCPILOT01,QS,01-701-1034,7,VFQ102,Eyesight Using Both Eyes Is,NEI VFQ-25,Original Response,GOOD,,GOOD,2,,Y,,3,BASELINE,1,2014-07-01,1
240,CDISCPILOT01,QS,01-701-1034,8,VFQ101,Your Overall Health Is,NEI VFQ-25,Original Response,GOOD,,GOOD,2,,Y,,3,BASELINE,1,2014-07-01,1
241,CDISCPILOT01,QS,01-701-1034,9,VFQ107,Difficulty Finding on Crowded Shelf,NEI VFQ-25,Original Response,SOME DIFFICULTY,,SOME DIFFICULTY,2,,Y,,3,BASELINE,1,2014-07-01,1
242,CDISCPILOT01,QS,01-701-1034,10,VFQ116,Difficulty Driving at Night,NEI VFQ-25,Original Response,NO DIFFICULTY,,NO DIFFICULTY,1,,Y,,3,BASELINE,1,2014-07-01,1
243,CDISCPILOT01,QS,01-701-1034,11,VFQ1A06,Difficulty Recognizing People,NEI VFQ-25,Original Response,VERY DIFFICULT,,VERY DIFFICULT,3,,Y,,3,BASELINE,1,2014-07-01,1
244,CDISCPILOT01,QS,01-701-1034,12,VFQ1A05,Difficulty Shaving or Styling Hair,NEI VFQ-25,Original Response,SOME DIFFICULTY,,SOME DIFFICULTY,2,,Y,,3,BASELINE,1,2014-07-01,1
245,CDISCPILOT01,QS,01-701-1034,13,VFQ115,Are You Currently Driving,NEI VFQ-25,Original Response,NO,,NO,1,,Y,,3,BASELINE,1,2014-07-01,1
246,CDISCPILOT01,QS,01-701-1034,14,VFQ114,Difficulty Going Out to See Movies,NEI VFQ-25,Original Response,NO DIFFICULTY,,NO DIFFICULTY,1,,Y,,3,BASELINE,1,2014-07-01,1
247,CDISCPILOT01,QS,01-701-1034,15,VFQ1A03,Difficulty Reading Small Print,NEI VFQ-25,Original Response,NO DIFFICULTY,,NO DIFFICULTY,1,,Y,,3,BASELINE,1,2014-07-01,1
248,CDISCPILOT01,QS,01-701-1034,16,VFQ125,Worry I'll Do Embarrassing Things,NEI VFQ-25,Original Response,SOMETIMES,,SOMETIMES,4,,Y,,3,BASELINE,1,2014-07-01,1
249,CDISCPILOT01,QS,01-701-1034,17,VFQ112,Difficulty Picking Out Own Clothes,NEI VFQ-25,Original Response,NO DIFFICULTY,,NO DIFFICULTY,1,,Y,,3,BASELINE,1,2014-07-01,1
250,CDISCPILOT01,QS,01-701-1034,18,VFQ111,Difficulty Seeing How People React,NEI VFQ-25,Original Response,VERY DIFFICULT,,VERY DIFFICULT,3,,Y,,3,BASELINE,1,2014-07-01,1
251,CDISCPILOT01,QS,01-701-1034,19,VFQ110,Difficulty Noticing Objects to Side,NEI VFQ-25,Original Response,SOME DIFFICULTY,,SOME DIFFICULTY,2,,Y,,3,BASELINE,1,2014-07-01,1
252,CDISCPILOT01,QS,01-701-1034,20,VFQ109,Difficulty Going Down Step at Night,NEI VFQ-25,Original Response,SOME DIFFICULTY,,SOME DIFFICULTY,2,,Y,,3,BASELINE,1,2014-07-01,1
253,CDISCPILOT01,QS,01-701-1034,21,VFQ108,Difficulty Reading Street Signs,NEI VFQ-25,Original Response,SOME DIFFICULTY,,SOME DIFFICULTY,2,,Y,,3,BASELINE,1,2014-07-01,1
254,CDISCPILOT01,QS,01-701-1034,22,VFQ116A,Driving in Difficult Conditions,NEI VFQ-25,Original Response,NO DIFFICULTY,,NO DIFFICULTY,1,,Y,,3,BASELINE,1,2014-07-01,1
255,CDISCPILOT01,QS,01-701-1034,23,VFQ1A07,Difficulty Taking Part in Sports,NEI VFQ-25,Original Response,VERY DIFFICULT,,VERY DIFFICULT,3,,Y,,3,BASELINE,1,2014-07-01,1
256,CDISCPILOT01,QS,01-701-1034,24,VFQ121,I Feel Frustrated a Lot of the Time,NEI VFQ-25,Original Response,RARELY,,RARELY,3,,Y,,3,BASELINE,1,2014-07-01,1
257,CDISCPILOT01,QS,01-701-1034,25,VFQ120,I Stay Home Most of the Time,NEI VFQ-25,Original Response,SOMETIMES,,SOMETIMES,4,,Y,,3,BASELINE,1,2014-07-01,1
258,CDISCPILOT01,QS,01-701-1034,26,VFQ119,Eye Pain Keep You From Doing What You Like,NEI VFQ-25,Original Response,NEVER,,NEVER,2,,Y,,3,BASELINE,1,2014-07-01,1
259,CDISCPILOT01,QS,01-701-1034,27,VFQ1A04,Difficulty Figure Out Bill Accuracy,NEI VFQ-25,Original Response,NO DIFFICULTY,,NO DIFFICULTY,1,,Y,,3,BASELINE,1,2014-07-01,1
260,CDISCPILOT01,QS,01-701-1034,28,VFQ124,I Need a Lot of Help From Others,NEI VFQ-25,Original Response,FREQUENTLY,,FREQUENTLY,1,,Y,,3,BASELINE,1,2014-07-01,1
261,CDISCPILOT01,QS,01-701-1034,29,VFQ1A08,Difficulty Seeing Programs on TV,NEI VFQ-25,Original Response,VERY DIFFICULT,,VERY DIFFICULT,3,,Y,,3,BASELINE,1,2014-07-01,1
262,CDISCPILOT01,QS,01-701-1034,30,VFQ106,Difficulty Doing Work/Hobbies,NEI VFQ-25,Original Response,VERY DIFFICULT,,VERY DIFFICULT,2,,,,9,WEEK 12,84,2014-09-25,87
263,CDISCPILOT01,QS,01-701-1034,31,VFQ115C,Difficulty Driving During Daytime,NEI VFQ-25,Original Response,VERY DIFFICULT,,VERY DIFFICULT,3,,,,9,WEEK 12,84,2014-09-25,87
264,CDISCPILOT01,QS,01-701-1034,32,VFQ103,How Often You Worry About Eyesight,NEI VFQ-25,Original Response,NEVER,,NEVER,2,,,,9,WEEK 12,84,2014-09-25,87
265,CDISCPILOT01,QS,01-701-1034,33,VFQ113,Difficulty Visiting With People,NEI VFQ-25,Original Response,NO DIFFICULTY,,NO DIFFICULTY,1,,,,9,WEEK 12,84,2014-09-25,87
266,CDISCPILOT01,QS,01-701-1034,34,VFQ107,Difficulty Finding on Crowded Shelf,NEI VFQ-25,Original Response,SOME DIFFICULTY,,SOME DIFFICULTY,2,,,,9,WEEK 12,84,2014-09-25,87
267,CDISCPILOT01,QS,01-701-1034,35,VFQ116,Difficulty Driving at Night,NEI VFQ-25,Original Response,VERY DIFFICULT,,VERY DIFFICULT,3,,,,9,WEEK 12,84,2014-09-25,87
268,CDISCPILOT01,QS,01-701-1034,36,VFQ1A06,Difficulty Recognizing People,NEI VFQ-25,Original Response,VERY DIFFICULT,,VERY DIFFICULT,3,,,,9,WEEK 12,84,2014-09-25,87
269,CDISCPILOT01,QS,01-701-1034,37,VFQ105,Difficulty Reading Newspapers,NEI VFQ-25,Original Response,VERY DIFFICULT,,VERY DIFFICULT,3,,,,9,WEEK 12,84,2014-09-25,87
270,CDISCPILOT01,QS,01-701-1034,38,VFQ104,How Often Pain in and Around Eyes,NEI VFQ-25,Original Response,FREQUENTLY,,FREQUENTLY,1,,,,9,WEEK 12,84,2014-09-25,87
271,CDISCPILOT01,QS,01-701-1034,39,VFQ114,Difficulty Going Out to See Movies,NEI VFQ-25,Original Response,NO DIFFICULTY,,NO DIFFICULTY,1,,,,9,WEEK 12,84,2014-09-25,87
272,CDISCPILOT01,QS,01-701-1034,40,VFQ1A03,Difficulty Reading Small Print,NEI VFQ-25,Original Response,NO DIFFICULTY,,NO DIFFICULTY,1,,,,9,WEEK 12,84,2014-09-25,87
273,CDISCPILOT01,QS,01-701-1034,41,VFQ102,Eyesight Using Both Eyes Is,NEI VFQ-25,Original Response,VERY GOOD,,VERY GOOD,4,,,,9,WEEK 12,84,2014-09-25,87
274,CDISCPILOT01,QS,01-701-1034,42,VFQ101,Your Overall Health Is,NEI VFQ-25,Original Response,VERY GOOD,,VERY GOOD,4,,,,9,WEEK 12,84,2014-09-25,87
275,CDISCPILOT01,QS,01-701-1034,43,VFQ111,Difficulty Seeing How People React,NEI VFQ-25,Original Response,SOME DIFFICULTY,,SOME DIFFICULTY,2,,,,9,WEEK 12,84,2014-09-25,87
276,CDISCPILOT01,QS,01-701-1034,44,VFQ110,Difficulty Noticing Objects to Side,NEI VFQ-25,Original Response,VERY DIFFICULT,,VERY DIFFICULT,3,,,,9,WEEK 12,84,2014-09-25,87
277,CDISCPILOT01,QS,01-701-1034,45,VFQ109,Difficulty Going Down Step at Night,NEI VFQ-25,Original Response,VERY DIFFICULT,,VERY DIFFICULT,3,,,,9,WEEK 12,84,2014-09-25,87
278,CDISCPILOT01,QS,01-701-1034,46,VFQ108,Difficulty Reading Street Signs,NEI VFQ-25,Original Response,SOME DIFFICULTY,,SOME DIFFICULTY,2,,,,9,WEEK 12,84,2014-09-25,87
279,CDISCPILOT01,QS,01-701-1034,47,VFQ116A,Driving in Difficult Conditions,NEI VFQ-25,Original Response,NO DIFFICULTY,,NO DIFFICULTY,1,,,,9,WEEK 12,84,2014-09-25,87
280,CDISCPILOT01,QS,01-701-1034,48,VFQ1A07,Difficulty Taking Part in Sports,NEI VFQ-25,Original Response,NO DIFFICULTY,,NO DIFFICULTY,1,,,,9,WEEK 12,84,2014-09-25,87
281,CDISCPILOT01,QS,01-701-1034,49,VFQ121,I Feel Frustrated a Lot of the Time,NEI VFQ-25,Original Response,NEVER,,NEVER,2,,,,9,WEEK 12,84,2014-09-25,87
282,CDISCPILOT01,QS,01-701-1034,50,VFQ1A05,Difficulty Shaving or Styling Hair,NEI VFQ-25,Original Response,SOME DIFFICULTY,,SOME DIFFICULTY,2,,,,9,WEEK 12,84,2014-09-25,87
283,CDISCPILOT01,QS,01-701-1034,51,VFQ115,Are You Currently Driving,NEI VFQ-25,Original Response,YES,,YES,2,,,,9,WEEK 12,84,2014-09-25,87
284,CDISCPILOT01,QS,01-701-1034,52,VFQ1A04,Difficulty Figure Out Bill Accuracy,NEI VFQ-25,Original Response,VERY DIFFICULT,,VERY DIFFICULT,3,,,,9,WEEK 12,84,2014-09-25,87
285,CDISCPILOT01,QS,01-701-1034,53,VFQ125,Worry I'll Do Embarrassing Things,NEI VFQ-25,Original Response,SOMETIMES,,SOMETIMES,4,,,,9,WEEK 12,84,2014-09-25,87
286,CDISCPILOT01,QS,01-701-1034,54,VFQ112,Difficulty Picking Out Own Clothes,NEI VFQ-25,Original Response,VERY DIFFICULT,,VERY DIFFICULT,3,,,,9,WEEK 12,84,2014-09-25,87
287,CDISCPILOT01,QS,01-701-1034,55,VFQ124,I Need a Lot of Help From Others,NEI VFQ-25,Original Response,RARELY,,RARELY,3,,,,9,WEEK 12,84,2014-09-25,87
288,CDISCPILOT01,QS,01-701-1034,56,VFQ120,I Stay Home Most of the Time,NEI VFQ-25,Original Response,RARELY,,RARELY,3,,,,9,WEEK 12,84,2014-09-25,87
289,CDISCPILOT01,QS,01-701-1034,57,VFQ119,Eye Pain Keep You From Doing What You Like,NEI VFQ-25,Original Response,NEVER,,NEVER,2,,,,9,WEEK 12,84,2014-09-25,87
290,CDISCPILOT01,QS,01-701-1034,58,VFQ1A08,Difficulty Seeing Programs on TV,NEI VFQ-25,Original Response,VERY DIFFICULT,,VERY DIFFICULT,3,,,,9,WEEK 12,84,2014-09-25,87
291,CDISCPILOT01,QS,01-701-1034,59,VFQ106,Difficulty Doing Work/Hobbies,NEI VFQ-25,Original Response,VERY DIFFICULT,,VERY DIFFICULT,2,,,,12,WEEK 24,168,2014-12-17,170
292,CDISCPILOT01,QS,01-701-1034,60,VFQ115C,Difficulty Driving During Daytime,NEI VFQ-25,Original Response,NO DIFFICULTY,,NO DIFFICULTY,1,,,,12,WEEK 24,168,2014-12-17,170
293,CDISCPILOT01,QS,01-701-1034,61,VFQ105,Difficulty Reading Newspapers,NEI VFQ-25,Original Response,SOME DIFFICULTY,,SOME DIFFICULTY,2,,,,12,WEEK 24,168,2014-12-17,170
294,CDISCPILOT01,QS,01-701-1034,62,VFQ103,How Often You Worry About Eyesight,NEI VFQ-25,Original Response,RARELY,,RARELY,3,,,,12,WEEK 24,168,2014-12-17,170
295,CDISCPILOT01,QS,01-701-1034,63,VFQ113,Difficulty Visiting With People,NEI VFQ-25,Original Response,NO DIFFICULTY,,NO DIFFICULTY,1,,,,12,WEEK 24,168,2014-12-17,170
296,CDISCPILOT01,QS,01-701-1034,64,VFQ102,Eyesight Using Both Eyes Is,NEI VFQ-25,Original Response,POOR,,POOR,3,,,,12,WEEK 24,168,2014-12-17,170
297,CDISCPILOT01,QS,01-701-1034,65,VFQ107,Difficulty Finding on Crowded Shelf,NEI VFQ-25,Original Response,SOME DIFFICULTY,,SOME DIFFICULTY,2,,,,12,WEEK 24,168,2014-12-17,170
298,CDISCPILOT01,QS,01-701-1034,66,VFQ116,Difficulty Driving at Night,NEI VFQ-25,Original Response,SOME DIFFICULTY,,SOME DIFFICULTY,2,,,,12,WEEK 24,168,2014-12-17,170
299,CDISCPILOT01,QS,01-701-1034,67,VFQ1A06,Difficulty Recognizing People,NEI VFQ-25,Original Response,NO DIFFICULTY,,NO DIFFICULTY,1,,,,12,WEEK 24,168,2014-12-17,170
300,CDISCPILOT01,QS,01-701-1034,68,VFQ1A05,Difficulty Shaving or Styling Hair,NEI VFQ-25,Original Response,NO DIFFICULTY,,NO DIFFICULTY,1,,,,12,WEEK 24,168,2014-12-17,170
301,CDISCPILOT01,QS,01-701-1034,69,VFQ104,How Often Pain in and Around Eyes,NEI VFQ-25,Original Response,FREQUENTLY,,FREQUENTLY,1,,,,12,WEEK 24,168,2014-12-17,170
302,CDISCPILOT01,QS,01-701-1034,70,VFQ114,Difficulty Going Out to See Movies,NEI VFQ-25,Original Response,NO DIFFICULTY,,NO DIFFICULTY,1,,,,12,WEEK 24,168,2014-12-17,170
303,CDISCPILOT01,QS,01-701-1034,71,VFQ1A03,Difficulty Reading Small Print,NEI VFQ-25,Original Response,SOME DIFFICULTY,,SOME DIFFICULTY,2,,,,12,WEEK 24,168,2014-12-17,170
304,CDISCPILOT01,QS,01-701-1034,72,VFQ125,Worry I'll Do Embarrassing Things,NEI VFQ-25,Original Response,SOMETIMES,,SOMETIMES,4,,,,12,WEEK 24,168,2014-12-17,170
305,CDISCPILOT01,QS,01-701-1034,73,VFQ101,Your Overall Health Is,NEI VFQ-25,Original Response,VERY POOR,,VERY POOR,5,,,,12,WEEK 24,168,2014-12-17,170
306,CDISCPILOT01,QS,01-701-1034,74,VFQ111,Difficulty Seeing How People React,NEI VFQ-25,Original Response,NO DIFFICULTY,,NO DIFFICULTY,1,,,,12,WEEK 24,168,2014-12-17,170
307,CDISCPILOT01,QS,01-701-1034,75,VFQ110,Difficulty Noticing Objects to Side,NEI VFQ-25,Original Response,SOME DIFFICULTY,,SOME DIFFICULTY,2,,,,12,WEEK 24,168,2014-12-17,170
308,CDISCPILOT01,QS,01-701-1034,76,VFQ109,Difficulty Going Down Step at Night,NEI VFQ-25,Original Response,NO DIFFICULTY,,NO DIFFICULTY,1,,,,12,WEEK 24,168,2014-12-17,170
309,CDISCPILOT01,QS,01-701-1034,77,VFQ108,Difficulty Reading Street Signs,NEI VFQ-25,Original Response,NO DIFFICULTY,,NO DIFFICULTY,1,,,,12,WEEK 24,168,2014-12-17,170
310,CDISCPILOT01,QS,01-701-1034,78,VFQ116A,Driving in Difficult Conditions,NEI VFQ-25,Original Response,SOME DIFFICULTY,,SOME DIFFICULTY,2,,,,12,WEEK 24,168,2014-12-17,170
311,CDISCPILOT01,QS,01-701-1034,79,VFQ1A07,Difficulty Taking Part in Sports,NEI VFQ-25,Original Response,VERY DIFFICULT,,VERY DIFFICULT,3,,,,12,WEEK 24,168,2014-12-17,170
312,CDISCPILOT01,QS,01-701-1034,80,VFQ121,I Feel Frustrated a Lot of the Time,NEI VFQ-25,Original Response,NEVER,,NEVER,2,,,,12,WEEK 24,168,2014-12-17,170
313,CDISCPILOT01,QS,01-701-1034,81,VFQ120,I Stay Home Most of the Time,NEI VFQ-25,Original Response,RARELY,,RARELY,3,,,,12,WEEK 24,168,2014-12-17,170
314,CDISCPILOT01,QS,01-701-1034,82,VFQ115,Are You Currently Driving,NEI VFQ-25,Original Response,YES,,YES,2,,,,12,WEEK 24,168,2014-12-17,170
315,CDISCPILOT01,QS,01-701-1034,83,VFQ1A04,Difficulty Figure Out Bill Accuracy,NEI VFQ-25,Original Response,VERY DIFFICULT,,VERY DIFFICULT,3,,,,12,WEEK 24,168,2014-12-17,170
316,CDISCPILOT01,QS,01-701-1034,84,VFQ112,Difficulty Picking Out Own Clothes,NEI VFQ-25,Original Response,NO DIFFICULTY,,NO DIFFICULTY,1,,,,12,WEEK 24,168,2014-12-17,170
317,CDISCPILOT01,QS,01-701-1034,85,VFQ124,I Need a Lot of Help From Others,NEI VFQ-25,Original Response,NEVER,,NEVER,2,,,,12,WEEK 24,168,2014-12-17,170
318,CDISCPILOT01,QS,01-701-1034,86,VFQ119,Eye Pain Keep You From Doing What You Like,NEI VFQ-25,Original Response,FREQUENTLY,,FREQUENTLY,1,,,,12,WEEK 24,168,2014-12-17,170
319,CDISCPILOT01,QS,01-701-1034,87,VFQ1A08,Difficulty Seeing Programs on TV,NEI VFQ-25,Original Response,VERY DIFFICULT,,VERY DIFFICULT,3,,,,12,WEEK 24,168,2014-12-17,170
320,CDISCPILOT01,QS,01-701-1047,1,VFQ106,Difficulty Doing Work/Hobbies,NEI VFQ-25,Original Response,SOME DIFFICULTY,,SOME DIFFICULTY,1,,Y,,3,BASELINE,1,2013-02-12,1
321,CDISCPILOT01,QS,01-701-1047,2,VFQ103,How Often You Worry About Eyesight,NEI VFQ-25,Original Response,RARELY,,RARELY,3,,Y,,3,BASELINE,1,2013-02-12,1
322,CDISCPILOT01,QS,01-701-1047,3,VFQ107,Difficulty Finding on Crowded Shelf,NEI VFQ-25,Original Response,SOME DIFFICULTY,,SOME DIFFICULTY,2,,Y,,3,BASELINE,1,2013-02-12,1
323,CDISCPILOT01,QS,01-701-1047,4,VFQ116,Difficulty Driving at Night,NEI VFQ-25,Original Response,SOME DIFFICULTY,,SOME DIFFICULTY,2,,Y,,3,BASELINE,1,2013-02-12,1
324,CDISCPILOT01,QS,01-701-1047,5,VFQ115C,Difficulty Driving During Daytime,NEI VFQ-25,Original Response,NO DIFFICULTY,,NO DIFFICULTY,1,,Y,,3,BASELINE,1,2013-02-12,1
325,CDISCPILOT01,QS,01-701-1047,6,VFQ105,Difficulty Reading Newspapers,NEI VFQ-25,Original Response,NO DIFFICULTY,,NO DIFFICULTY,1,,Y,,3,BASELINE,1,2013-02-12,1
326,CDISCPILOT01,QS,01-701-1047,7,VFQ104,How Often Pain in and Around Eyes,NEI VFQ-25,Original Response,FREQUENTLY,,FREQUENTLY,1,,Y,,3,BASELINE,1,2013-02-12,1
327,CDISCPILOT01,QS,01-701-1047,8,VFQ114,Difficulty Going Out to See Movies,NEI VFQ-25,Original Response,NO DIFFICULTY,,NO DIFFICULTY,1,,Y,,3,BASELINE,1,2013-02-12,1
328,CDISCPILOT01,QS,01-701-1047,9,VFQ113,Difficulty Visiting With People,NEI VFQ-25,Original Response,NO DIFFICULTY,,NO DIFFICULTY,1,,Y,,3,BASELINE,1,2013-02-12,1
329,CDISCPILOT01,QS,01-701-1047,10,VFQ102,Eyesight Using Both Eyes Is,NEI VFQ-25,Original Response,POOR,,POOR,3,,Y,,3,BASELINE,1,2013-02-12,1
330,CDISCPILOT01,QS,01-701-1047,11,VFQ101,Your Overall Health Is,NEI VFQ-25,Original Response,POOR,,POOR,3,,Y,,3,BASELINE,1,2013-02-12,1
331,CDISCPILOT01,QS,01-701-1047,12,VFQ111,Difficulty Seeing How People React,NEI VFQ-25,Original Response,NO DIFFICULTY,,NO DIFFICULTY,1,,Y,,3,BASELINE,1,2013-02-12,1
332,CDISCPILOT01,QS,01-701-1047,13,VFQ110,Difficulty Noticing Objects to Side,NEI VFQ-25,Original Response,NO DIFFICULTY,,NO DIFFICULTY,1,,Y,,3,BASELINE,1,2013-02-12,1
333,CDISCPILOT01,QS,01-701-1047,14,VFQ109,Difficulty Going Down Step at Night,NEI VFQ-25,Original Response,NO DIFFICULTY,,NO DIFFICULTY,1,,Y,,3,BASELINE,1,2013-02-12,1
334,CDISCPILOT01,QS,01-701-1047,15,VFQ108,Difficulty Reading Street Signs,NEI VFQ-25,Original Response,VERY DIFFICULT,,VERY DIFFICULT,3,,Y,,3,BASELINE,1,2013-02-12,1
335,CDISCPILOT01,QS,01-701-1047,16,VFQ116A,Driving in Difficult Conditions,NEI VFQ-25,Original Response,SOME DIFFICULTY,,SOME DIFFICULTY,2,,Y,,3,BASELINE,1,2013-02-12,1
336,CDISCPILOT01,QS,01-701-1047,17,VFQ1A07,Difficulty Taking Part in Sports,NEI VFQ-25,Original Response,SOME DIFFICULTY,,SOME DIFFICULTY,2,,Y,,3,BASELINE,1,2013-02-12,1
337,CDISCPILOT01,QS,01-701-1047,18,VFQ1A06,Difficulty Recognizing People,NEI VFQ-25,Original Response,VERY DIFFICULT,,VERY DIFFICULT,3,,Y,,3,BASELINE,1,2013-02-12,1
338,CDISCPILOT01,QS,01-701-1047,19,VFQ1A05,Difficulty Shaving or Styling Hair,NEI VFQ-25,Original Response,VERY DIFFICULT,,VERY DIFFICULT,3,,Y,,3,BASELINE,1,2013-02-12,1
339,CDISCPILOT01,QS,01-701-1047,20,VFQ115,Are You Currently Driving,NEI VFQ-25,Original Response,YES,,YES,2,,Y,,3,BASELINE,1,2013-02-12,1
340,CDISCPILOT01,QS,01-701-1047,21,VFQ1A04,Difficulty Figure Out Bill Accuracy,NEI VFQ-25,Original Response,VERY DIFFICULT,,VERY DIFFICULT,3,,Y,,3,BASELINE,1,2013-02-12,1
341,CDISCPILOT01,QS,01-701-1047,22,VFQ1A03,Difficulty Reading Small Print,NEI VFQ-25,Original Response,VERY DIFFICULT,,VERY DIFFICULT,3,,Y,,3,BASELINE,1,2013-02-12,1
342,CDISCPILOT01,QS,01-701-1047,23,VFQ125,Worry I'll Do Embarrassing Things,NEI VFQ-25,Original Response,FREQUENTLY,,FREQUENTLY,1,,Y,,3,BASELINE,1,2013-02-12,1
343,CDISCPILOT01,QS,01-701-1047,24,VFQ112,Difficulty Picking Out Own Clothes,NEI VFQ-25,Original Response,NO DIFFICULTY,,NO DIFFICULTY,1,,Y,,3,BASELINE,1,2013-02-12,1
344,CDISCPILOT01,QS,01-701-1047,25,VFQ124,I Need a Lot of Help From Others,NEI VFQ-25,Original Response,FREQUENTLY,,FREQUENTLY,1,,Y,,3,BASELINE,1,2013-02-12,1
345,CDISCPILOT01,QS,01-701-1047,26,VFQ121,I Feel Frustrated a Lot of the Time,NEI VFQ-25,Original Response,SOMETIMES,,SOMETIMES,4,,Y,,3,BASELINE,1,2013-02-12,1
346,CDISCPILOT01,QS,01-701-1047,27,VFQ120,I Stay Home Most of the Time,NEI VFQ-25,Original Response,NEVER,,NEVER,2,,Y,,3,BASELINE,1,2013-02-12,1
347,CDISCPILOT01,QS,01-701-1047,28,VFQ119,Eye Pain Keep You From Doing What You Like,NEI VFQ-25,Original Response,FREQUENTLY,,FREQUENTLY,1,,Y,,3,BASELINE,1,2013-02-12,1
348,CDISCPILOT01,QS,01-701-1047,29,VFQ1A08,Difficulty Seeing Programs on TV,NEI VFQ-25,Original Response,NO DIFFICULTY,,NO DIFFICULTY,1,,Y,,3,BASELINE,1,2013-02-12,1
