rownames,STUDYID,DOMAIN,USUBJID,RSSEQ,RSLNKGRP,RSTESTCD,RSTEST,RSCAT,RSORRES,RSSTRESC,RSSTAT,RSREASND,RSEVAL,RSEVALID,RSACPTFL,VISITNUM,VISIT,RSDTC,RSDY
1,CDISCPILOT01,RS,01-701-1015,7,A2,OVRLRESP,Overall Response,iRECIST,iUPD,iUPD,,,INVESTIGATOR,,,7,WEEK 6,2014-02-12,42
2,CDISCPILOT01,RS,01-701-1015,8,,NTRGRESP,Non-target Response,iRECIST,NON-iCR/NON-iUPD,NON-iCR/NON-iUPD,,,INVESTIGATOR,,,7,WEEK 6,2014-02-12,42
3,CDISCPILOT01,RS,01-701-1015,9,,TRGRESP,Target Response,iRECIST,iUPD,iUPD,,,INVESTIGATOR,,,7,WEEK 6,2014-02-12,42
4,CDISCPILOT01,RS,01-701-1015,11,,IRECLIND,Last iRECIST Assessment Indicator,iRECIST,Y,Y,,,INVESTIGATOR,,,7,WEEK 6,2014-02-12,42
5,CDISCPILOT01,RS,01-701-1015,12,,NEWLIND,New Lesion Indicator,iRECIST,N,N,,,INVESTIGATOR,,,7,WEEK 6,2014-02-12,42
6,CDISCPILOT01,RS,01-701-1028,7,A2,OVRLRESP,Overall Response,iRECIST,iUPD,iUPD,,,INVESTIGATOR,,,7,WEEK 6,2013-08,
7,CDISCPILOT01,RS,01-701-1028,8,,NTRGRESP,Non-target Response,iRECIST,NON-iCR/NON-iUPD,NON-iCR/NON-iUPD,,,INVESTIGATOR,,,7,WEEK 6,2013-08,
8,CDISCPILOT01,RS,01-701-1028,9,,TRGRESP,Target Response,iRECIST,iUPD,iUPD,,,INVESTIGATOR,,,7,WEEK 6,2013-08,
9,CDISCPILOT01,RS,01-701-1028,10,,IRECLIND,Last iRECIST Assessment Indicator,iRECIST,N,N,,,INVESTIGATOR,,,7,WEEK 6,2013-08-29,42
10,CDISCPILOT01,RS,01-701-1028,11,,NEWLIND,New Lesion Indicator,iRECIST,N,N,,,INVESTIGATOR,,,7,WEEK 6,2013-08-29,42
11,CDISCPILOT01,RS,01-701-1028,16,A3,OVRLRESP,Overall Response,iRECIST,iCPD,iCPD,,,INVESTIGATOR,,,9,WEEK 12,2013-10-09,84
12,CDISCPILOT01,RS,01-701-1028,17,,NTRGRESP,Non-target Response,iRECIST,NON-iCR/NON-iUPD,NON-iCR/NON-iUPD,,,INVESTIGATOR,,,9,WEEK 12,2013-10-09,84
13,CDISCPILOT01,RS,01-701-1028,18,,TRGRESP,Target Response,iRECIST,iCPD,iCPD,,,INVESTIGATOR,,,9,WEEK 12,2013-10-09,84
14,CDISCPILOT01,RS,01-701-1028,19,,IRECLIND,Last iRECIST Assessment Indicator,iRECIST,Y,Y,,,INVESTIGATOR,,,9,WEEK 12,2013-10-09,84
15,CDISCPILOT01,RS,01-701-1028,20,,NEWLIND,New Lesion Indicator,iRECIST,N,N,,,INVESTIGATOR,,,9,WEEK 12,2013-10-09,84
16,CDISCPILOT01,RS,01-701-1028,21,A4,OVRLRESP,Overall Response,iRECIST,iSD,iSD,,,INVESTIGATOR,,,10,WEEK 18,2013-11-20,126
17,CDISCPILOT01,RS,01-701-1028,22,,NTRGRESP,Non-target Response,iRECIST,NON-iCR/NON-iUPD,NON-iCR/NON-iUPD,,,INVESTIGATOR,,,10,WEEK 18,2013-11-20,126
18,CDISCPILOT01,RS,01-701-1028,23,,TRGRESP,Target Response,iRECIST,iSD,iSD,,,INVESTIGATOR,,,10,WEEK 18,2013-11-20,126
19,CDISCPILOT01,RS,01-701-1028,24,,IRECLIND,Last iRECIST Assessment Indicator,iRECIST,N,N,,,INVESTIGATOR,,,10,WEEK 18,2013-11-20,126
20,CDISCPILOT01,RS,01-701-1028,25,,NEWLIND,New Lesion Indicator,iRECIST,N,N,,,INVESTIGATOR,,,10,WEEK 18,2013-11-20,126
21,CDISCPILOT01,RS,01-701-1034,7,A2,OVRLRESP,Overall Response,iRECIST,iUPD,iUPD,,,INVESTIGATOR,,,7,WEEK 6,2014-08-11,42
22,CDISCPILOT01,RS,01-701-1034,8,,NTRGRESP,Non-target Response,iRECIST,NON-iCR/NON-iUPD,NON-iCR/NON-iUPD,,,INVESTIGATOR,,,7,WEEK 6,2014-08-11,42
23,CDISCPILOT01,RS,01-701-1034,9,,TRGRESP,Target Response,iRECIST,iUPD,iUPD,,,INVESTIGATOR,,,7,WEEK 6,2014-08-11,42
24,CDISCPILOT01,RS,01-701-1034,10,,IRECLIND,Last iRECIST Assessment Indicator,iRECIST,N,N,,,INVESTIGATOR,,,7,WEEK 6,2014-08-11,42
25,CDISCPILOT01,RS,01-701-1034,11,,NEWLIND,New Lesion Indicator,iRECIST,N,N,,,INVESTIGATOR,,,7,WEEK 6,2014-08-11,42
26,CDISCPILOT01,RS,01-701-1034,16,A3,OVRLRESP,Overall Response,iRECIST,iSD,iSD,,,INVESTIGATOR,,,9,WEEK 12,2014-09-25,84
27,CDISCPILOT01,RS,01-701-1034,17,,NTRGRESP,Non-target Response,iRECIST,NON-iCR/NON-iUPD,NON-iCR/NON-iUPD,,,INVESTIGATOR,,,9,WEEK 12,2014-09-25,84
28,CDISCPILOT01,RS,01-701-1034,18,,TRGRESP,Target Response,iRECIST,iSD,iSD,,,INVESTIGATOR,,,9,WEEK 12,2014-09-25,84
29,CDISCPILOT01,RS,01-701-1034,19,,IRECLIND,Last iRECIST Assessment Indicator,iRECIST,N,N,,,INVESTIGATOR,,,9,WEEK 12,2014-09-25,84
30,CDISCPILOT01,RS,01-701-1034,20,,NEWLIND,New Lesion Indicator,iRECIST,N,N,,,INVESTIGATOR,,,9,WEEK 12,2014-09-25,84
31,CDISCPILOT01,RS,01-701-1034,25,A4,NTRGRESP,Non-target Response,iRECIST,iSD,iSD,,,INVESTIGATOR,,,10,WEEK 18,2014-11-04,126
32,CDISCPILOT01,RS,01-701-1034,26,,OVRLRESP,Overall Response,iRECIST,NON-iCR/NON-iUPD,NON-iCR/NON-iUPD,,,INVESTIGATOR,,,10,WEEK 18,2014-11-04,126
33,CDISCPILOT01,RS,01-701-1034,27,,TRGRESP,Target Response,iRECIST,iSD,iSD,,,INVESTIGATOR,,,10,WEEK 18,2014-11-04,126
34,CDISCPILOT01,RS,01-701-1034,28,,IRECLIND,Last iRECIST Assessment Indicator,iRECIST,N,N,,,INVESTIGATOR,,,10,WEEK 18,2014-11-04,126
35,CDISCPILOT01,RS,01-701-1034,29,,NEWLIND,New Lesion Indicator,iRECIST,N,N,,,INVESTIGATOR,,,10,WEEK 18,2014-11-04,126
36,CDISCPILOT01,RS,01-701-1097,7,A2,OVRLRESP,Overall Response,iRECIST,NE,NE,,,INVESTIGATOR,,,7,WEEK 6,2014-02-11,42
37,CDISCPILOT01,RS,01-701-1097,8,,NTRGRESP,Non-target Response,iRECIST,NE,NE,,,INVESTIGATOR,,,7,WEEK 6,2014-02-11,42
38,CDISCPILOT01,RS,01-701-1097,10,,NEWLIND,New Lesion Indicator,iRECIST,Y,Y,,,INVESTIGATOR,,,7,WEEK 6,2014-02-11,42
39,CDISCPILOT01,RS,01-701-1097,9,,TRGRESP,Target Response,iRECIST,NE,NE,,,INVESTIGATOR,,,7,WEEK 6,2014-02-11,42
40,CDISCPILOT01,RS,01-701-1115,7,A2,OVRLRESP,Overall Response,iRECIST,iUPD,iUPD,,,INVESTIGATOR,,,7,WEEK 6,2013-01-10,42
41,CDISCPILOT01,RS,01-701-1115,8,,NTRGRESP,Non-target Response,iRECIST,NON-iCR/NON-iUPD,NON-iCR/NON-iUPD,,,INVESTIGATOR,,,7,WEEK 6,2013-01-10,42
42,CDISCPILOT01,RS,01-701-1115,10,,IRECLIND,Last iRECIST Assessment Indicator,iRECIST,N,N,,,INVESTIGATOR,,,7,WEEK 6,2013-01-10,42
43,CDISCPILOT01,RS,01-701-1115,11,,NEWLIND,New Lesion Indicator,iRECIST,N,N,,,INVESTIGATOR,,,7,WEEK 6,2013-01-10,42
44,CDISCPILOT01,RS,01-701-1115,9,,TRGRESP,Target Response,iRECIST,iUPD,iUPD,,,INVESTIGATOR,,,7,WEEK 6,2013-01-10,42
45,CDISCPILOT01,RS,01-701-1118,7,A2,OVRLRESP,Overall Response,iRECIST,iUPD,iUPD,,,INVESTIGATOR,,,7,WEEK 6,2014-04-23,42
46,CDISCPILOT01,RS,01-701-1118,8,,NTRGRESP,Non-target Response,iRECIST,NON-iCR/NON-iUPD,NON-iCR/NON-iUPD,,,INVESTIGATOR,,,7,WEEK 6,2014-04-23,42
47,CDISCPILOT01,RS,01-701-1118,9,,TRGRESP,Target Response,iRECIST,iUPD,iUPD,,,INVESTIGATOR,,,7,WEEK 6,2014-04-23,42
48,CDISCPILOT01,RS,01-701-1118,10,,IRECLIND,Last iRECIST Assessment Indicator,iRECIST,N,N,,,INVESTIGATOR,,,7,WEEK 6,2014-04-23,42
49,CDISCPILOT01,RS,01-701-1118,11,,NEWLIND,New Lesion Indicator,iRECIST,N,N,,,INVESTIGATOR,,,7,WEEK 6,2014-04-23,42
50,CDISCPILOT01,RS,01-701-1118,16,A3,OVRLRESP,Overall Response,iRECIST,iSD,iSD,,,INVESTIGATOR,,,9,WEEK 12,2014-06-05,84
51,CDISCPILOT01,RS,01-701-1118,17,,NTRGRESP,Non-target Response,iRECIST,NON-iCR/NON-iUPD,NON-iCR/NON-iUPD,,,INVESTIGATOR,,,9,WEEK 12,2014-06-05,84
52,CDISCPILOT01,RS,01-701-1118,18,,TRGRESP,Target Response,iRECIST,iSD,iSD,,,INVESTIGATOR,,,9,WEEK 12,2014-06-05,84
53,CDISCPILOT01,RS,01-701-1118,19,,IRECLIND,Last iRECIST Assessment Indicator,iRECIST,N,N,,,INVESTIGATOR,,,9,WEEK 12,2014-06-05,84
54,CDISCPILOT01,RS,01-701-1118,20,,NEWLIND,New Lesion Indicator,iRECIST,N,N,,,INVESTIGATOR,,,9,WEEK 12,2014-06-05,84
55,CDISCPILOT01,RS,01-701-1118,25,,NTRGRESP,Non-target Response,iRECIST,NON-iCR/NON-iUPD,NON-iCR/NON-iUPD,,,INVESTIGATOR,,,10.1,WEEK 18 (T),2014-07-16,126
56,CDISCPILOT01,RS,01-701-1118,26,,OVRLRESP,Overall Response,iRECIST,iSD,iSD,,,INVESTIGATOR,,,10.1,WEEK 18 (T),2014-07-16,126
57,CDISCPILOT01,RS,01-701-1118,27,,TRGRESP,Target Response,iRECIST,iSD,iSD,,,INVESTIGATOR,,,10.1,WEEK 18 (T),2014-07-16,126
58,CDISCPILOT01,RS,01-701-1118,28,,IRECLIND,Last iRECIST Assessment Indicator,iRECIST,N,N,,,INVESTIGATOR,,,10.1,WEEK 18 (T),2014-07-16,126
59,CDISCPILOT01,RS,01-701-1118,29,,NEWLIND,New Lesion Indicator,iRECIST,N,N,,,INVESTIGATOR,,,10.1,WEEK 18 (T),2014-07-16,126
60,CDISCPILOT01,RS,01-701-1118,34,A4,OVRLRESP,Overall Response,iRECIST,iUPD,iUPD,,,INVESTIGATOR,,,12,WEEK 24,2014-08-27,168
61,CDISCPILOT01,RS,01-701-1118,35,,NTRGRESP,Non-target Response,iRECIST,iUPD,iUPD,,,INVESTIGATOR,,,12,WEEK 24,2014-08-27,168
62,CDISCPILOT01,RS,01-701-1118,37,,IRECLIND,Last iRECIST Assessment Indicator,iRECIST,N,N,,,INVESTIGATOR,,,12,WEEK 24,2014-08-27,168
63,CDISCPILOT01,RS,01-701-1118,38,,NEWLIND,New Lesion Indicator,iRECIST,Y,Y,,,INVESTIGATOR,,,12,WEEK 24,2014-08-27,168
64,CDISCPILOT01,RS,01-701-1118,36,,TRGRESP,Target Response,iRECIST,iSD,iSD,,,INVESTIGATOR,,,12,WEEK 24,2014-08-27,168
65,CDISCPILOT01,RS,01-701-1130,7,A2,OVRLRESP,Overall Response,iRECIST,iUPD,iUPD,,,INVESTIGATOR,,,7,WEEK 6,2014-03-29,42
66,CDISCPILOT01,RS,01-701-1130,8,,NTRGRESP,Non-target Response,iRECIST,NON-iCR/NON-iUPD,NON-iCR/NON-iUPD,,,INVESTIGATOR,,,7,WEEK 6,2014-03-29,42
67,CDISCPILOT01,RS,01-701-1130,9,,TRGRESP,Target Response,iRECIST,iUPD,iUPD,,,INVESTIGATOR,,,7,WEEK 6,2014-03-29,42
68,CDISCPILOT01,RS,01-701-1130,10,,IRECLIND,Last iRECIST Assessment Indicator,iRECIST,N,N,,,INVESTIGATOR,,,7,WEEK 6,2014-03-29,42
69,CDISCPILOT01,RS,01-701-1130,11,,NEWLIND,New Lesion Indicator,iRECIST,N,N,,,INVESTIGATOR,,,7,WEEK 6,2014-03-29,42
70,CDISCPILOT01,RS,01-701-1130,16,A3,OVRLRESP,Overall Response,iRECIST,iCR,iCR,,,INVESTIGATOR,,,9,WEEK 12,2014-05-16,84
71,CDISCPILOT01,RS,01-701-1130,17,,NTRGRESP,Non-target Response,iRECIST,iCR,iCR,,,INVESTIGATOR,,,9,WEEK 12,2014-05-16,84
72,CDISCPILOT01,RS,01-701-1130,18,,TRGRESP,Target Response,iRECIST,iCR,iCR,,,INVESTIGATOR,,,9,WEEK 12,2014-05-16,84
73,CDISCPILOT01,RS,01-701-1130,19,,IRECLIND,Last iRECIST Assessment Indicator,iRECIST,N,N,,,INVESTIGATOR,,,9,WEEK 12,2014-05-16,84
74,CDISCPILOT01,RS,01-701-1130,20,,NEWLIND,New Lesion Indicator,iRECIST,N,N,,,INVESTIGATOR,,,9,WEEK 12,2014-05-16,84
75,CDISCPILOT01,RS,01-701-1130,25,,NTRGRESP,Non-target Response,iRECIST,iCR,iCR,,,INVESTIGATOR,,,10,WEEK 18,2014-06-21,126
76,CDISCPILOT01,RS,01-701-1130,26,,OVRLRESP,Overall Response,iRECIST,iCR,iCR,,,INVESTIGATOR,,,10,WEEK 18,2014-06-21,126
77,CDISCPILOT01,RS,01-701-1130,27,,TRGRESP,Target Response,iRECIST,iCR,iCR,,,INVESTIGATOR,,,10,WEEK 18,2014-06-21,126
78,CDISCPILOT01,RS,01-701-1130,28,,IRECLIND,Last iRECIST Assessment Indicator,iRECIST,N,N,,,INVESTIGATOR,,,10,WEEK 18,2014-06-21,126
79,CDISCPILOT01,RS,01-701-1130,29,,NEWLIND,New Lesion Indicator,iRECIST,N,N,,,INVESTIGATOR,,,10,WEEK 18,2014-06-21,126
80,CDISCPILOT01,RS,01-701-1130,34,A4,OVRLRESP,Overall Response,iRECIST,iUPD,iUPD,,,INVESTIGATOR,,,12,WEEK 24,2014-08-02,168
81,CDISCPILOT01,RS,01-701-1130,35,,NTRGRESP,Non-target Response,iRECIST,NON-iCR/NON-iUPD,NON-iCR/NON-iUPD,,,INVESTIGATOR,,,12,WEEK 24,2014-08-02,168
82,CDISCPILOT01,RS,01-701-1130,36,,TRGRESP,Target Response,iRECIST,iUPD,iUPD,,,INVESTIGATOR,,,12,WEEK 24,2014-08-02,168
83,CDISCPILOT01,RS,01-701-1133,7,A2,OVRLRESP,Overall Response,iRECIST,iSD,iSD,,,INVESTIGATOR,,,7,WEEK 6,2012-12-11,42
84,CDISCPILOT01,RS,01-701-1133,8,,NTRGRESP,Non-target Response,iRECIST,NON-iCR/NON-iUPD,NON-iCR/NON-iUPD,,,INVESTIGATOR,,,7,WEEK 6,2012-12-11,42
85,CDISCPILOT01,RS,01-701-1133,9,,TRGRESP,Target Response,iRECIST,iSD,iSD,,,INVESTIGATOR,,,7,WEEK 6,2012-12-11,42
86,CDISCPILOT01,RS,01-701-1133,10,,IRECLIND,Last iRECIST Assessment Indicator,iRECIST,N,N,,,INVESTIGATOR,,,7,WEEK 6,2012-12-11,42
87,CDISCPILOT01,RS,01-701-1133,11,,NEWLIND,New Lesion Indicator,iRECIST,N,N,,,INVESTIGATOR,,,7,WEEK 6,2012-12-11,42
88,CDISCPILOT01,RS,01-701-1133,16,A3,OVRLRESP,Overall Response,iRECIST,iPR,iPR,,,INVESTIGATOR,,,9,WEEK 12,2013-01-22,84
89,CDISCPILOT01,RS,01-701-1133,17,,NTRGRESP,Non-target Response,iRECIST,NON-iCR/NON-iUPD,NON-iCR/NON-iUPD,,,INVESTIGATOR,,,9,WEEK 12,2013-01-22,84
90,CDISCPILOT01,RS,01-701-1133,18,,TRGRESP,Target Response,iRECIST,iPR,iPR,,,INVESTIGATOR,,,9,WEEK 12,2013-01-22,84
91,CDISCPILOT01,RS,01-701-1133,19,,IRECLIND,Last iRECIST Assessment Indicator,iRECIST,N,N,,,INVESTIGATOR,,,9,WEEK 12,2013-01-22,84
92,CDISCPILOT01,RS,01-701-1133,20,,NEWLIND,New Lesion Indicator,iRECIST,N,N,,,INVESTIGATOR,,,9,WEEK 12,2013-01-22,84
93,CDISCPILOT01,RS,01-701-1133,25,,NTRGRESP,Non-target Response,iRECIST,NON-iCR/NON-iUPD,NON-iCR/NON-iUPD,,,INVESTIGATOR,,,10.1,WEEK 18 (T),2013-03-04,126
94,CDISCPILOT01,RS,01-701-1133,26,,OVRLRESP,Overall Response,iRECIST,iPR,iPR,,,INVESTIGATOR,,,10.1,WEEK 18 (T),2013-03-04,126
95,CDISCPILOT01,RS,01-701-1133,27,,TRGRESP,Target Response,iRECIST,iPR,iPR,,,INVESTIGATOR,,,10.1,WEEK 18 (T),2013-03-04,126
96,CDISCPILOT01,RS,01-701-1133,28,,IRECLIND,Last iRECIST Assessment Indicator,iRECIST,N,N,,,INVESTIGATOR,,,10.1,WEEK 18 (T),2013-03-04,126
97,CDISCPILOT01,RS,01-701-1133,29,,NEWLIND,New Lesion Indicator,iRECIST,N,N,,,INVESTIGATOR,,,10.1,WEEK 18 (T),2013-03-04,126
98,CDISCPILOT01,RS,01-701-1133,34,A4,OVRLRESP,Overall Response,iRECIST,iUPD,iUPD,,,INVESTIGATOR,,,12,WEEK 24,2013-04-18,168
99,CDISCPILOT01,RS,01-701-1133,35,,NTRGRESP,Non-target Response,iRECIST,NE,NE,,,INVESTIGATOR,,,12,WEEK 24,2013-04-18,168
100,CDISCPILOT01,RS,01-701-1133,36,,TRGRESP,Target Response,iRECIST,iUPD,iUPD,,,INVESTIGATOR,,,12,WEEK 24,2013-04-18,168
101,CDISCPILOT01,RS,01-701-1133,37,,IRECLIND,Last iRECIST Assessment Indicator,iRECIST,N,N,,,INVESTIGATOR,,,12,WEEK 24,2013-04-18,168
102,CDISCPILOT01,RS,01-701-1133,38,,NEWLIND,New Lesion Indicator,iRECIST,Y,Y,,,INVESTIGATOR,,,12,WEEK 24,2013-04-18,168
103,CDISCPILOT01,RS,01-701-1146,7,A2,OVRLRESP,Overall Response,iRECIST,iUPD,iUPD,,,INVESTIGATOR,,,7,WEEK 6,2013-06-30,42
104,CDISCPILOT01,RS,01-701-1146,8,,NTRGRESP,Non-target Response,iRECIST,iUPD,iUPD,,,INVESTIGATOR,,,7,WEEK 6,2013-06-30,42
105,CDISCPILOT01,RS,01-701-1146,9,,IRECLIND,Last iRECIST Assessment Indicator,iRECIST,N,N,,,INVESTIGATOR,,,7,WEEK 6,2013-06-30,42
106,CDISCPILOT01,RS,01-701-1146,10,,NEWLIND,New Lesion Indicator,iRECIST,Y,Y,,,INVESTIGATOR,,,7,WEEK 6,2013-06-30,42
107,CDISCPILOT01,RS,01-701-1146,9,,TRGRESP,Target Response,iRECIST,iUPD,iUPD,,,INVESTIGATOR,,,7,WEEK 6,2013-06-30,42
108,CDISCPILOT01,RS,01-701-1148,7,A2,OVRLRESP,Overall Response,iRECIST,iPR,iPR,,,INVESTIGATOR,,,7,WEEK 6,2013-10-03,42
109,CDISCPILOT01,RS,01-701-1148,8,,NTRGRESP,Non-target Response,iRECIST,NON-iCR/NON-iUPD,NON-iCR/NON-iUPD,,,INVESTIGATOR,,,7,WEEK 6,2013-10-03,42
110,CDISCPILOT01,RS,01-701-1148,9,,TRGRESP,Target Response,iRECIST,iPR,iPR,,,INVESTIGATOR,,,7,WEEK 6,2013-10-03,42
111,CDISCPILOT01,RS,01-701-1148,10,,IRECLIND,Last iRECIST Assessment Indicator,iRECIST,N,N,,,INVESTIGATOR,,,7,WEEK 6,2013-10-03,42
112,CDISCPILOT01,RS,01-701-1148,11,,NEWLIND,New Lesion Indicator,iRECIST,N,N,,,INVESTIGATOR,,,7,WEEK 6,2013-10-03,42
113,CDISCPILOT01,RS,01-701-1148,16,A3,OVRLRESP,Overall Response,iRECIST,iUPD,iUPD,,,INVESTIGATOR,,,9,WEEK 12,2013-11-17,84
114,CDISCPILOT01,RS,01-701-1148,17,,NTRGRESP,Non-target Response,iRECIST,NON-iCR/NON-iUPD,NON-iCR/NON-iUPD,,,INVESTIGATOR,,,9,WEEK 12,2013-11-17,84
115,CDISCPILOT01,RS,01-701-1148,18,,TRGRESP,Target Response,iRECIST,iUPD,iUPD,,,INVESTIGATOR,,,9,WEEK 12,2013-11-17,84
116,CDISCPILOT01,RS,01-701-1148,19,,IRECLIND,Last iRECIST Assessment Indicator,iRECIST,N,N,,,INVESTIGATOR,,,9,WEEK 12,2013-11-17,84
117,CDISCPILOT01,RS,01-701-1148,20,,NEWLIND,New Lesion Indicator,iRECIST,N,N,,,INVESTIGATOR,,,9,WEEK 12,2013-11-17,84
118,CDISCPILOT01,RS,01-701-1148,25,,NTRGRESP,Non-target Response,iRECIST,iPR,iPR,,,INVESTIGATOR,,,10.1,WEEK 18 (T),2013-12-27,126
119,CDISCPILOT01,RS,01-701-1148,26,,OVRLRESP,Overall Response,iRECIST,NON-iCR/NON-iUPD,NON-iCR/NON-iUPD,,,INVESTIGATOR,,,10.1,WEEK 18 (T),2013-12-27,126
120,CDISCPILOT01,RS,01-701-1148,27,,TRGRESP,Target Response,iRECIST,iPR,iPR,,,INVESTIGATOR,,,10.1,WEEK 18 (T),2013-12-27,126
121,CDISCPILOT01,RS,01-701-1148,28,,IRECLIND,Last iRECIST Assessment Indicator,iRECIST,N,N,,,INVESTIGATOR,,,10.1,WEEK 18 (T),2013-12-27,126
122,CDISCPILOT01,RS,01-701-1148,29,,NEWLIND,New Lesion Indicator,iRECIST,N,N,,,INVESTIGATOR,,,10.1,WEEK 18 (T),2013-12-27,126
123,CDISCPILOT01,RS,01-701-1148,36,A4,OVRLRESP,Overall Response,iRECIST,iUPD,iUPD,,,INVESTIGATOR,,,12,WEEK 24,2014-02-08,168
124,CDISCPILOT01,RS,01-701-1148,37,,NEWLPROG,New Lesion Progression,iRECIST,EQUIVOCAL,EQUIVOCAL,,,INVESTIGATOR,,,12,WEEK 24,2014-02-08,168
125,CDISCPILOT01,RS,01-701-1148,38,,NTRGRESP,Non-target Response,iRECIST,NON-iCR/NON-iUPD,NON-iCR/NON-iUPD,,,INVESTIGATOR,,,12,WEEK 24,2014-02-08,168
126,CDISCPILOT01,RS,01-701-1148,40,,IRECLIND,Last iRECIST Assessment Indicator,iRECIST,N,N,,,INVESTIGATOR,,,12,WEEK 24,2014-02-08,168
127,CDISCPILOT01,RS,01-701-1148,41,,NEWLIND,New Lesion Indicator,iRECIST,Y,Y,,,INVESTIGATOR,,,12,WEEK 24,2014-02-08,168
128,CDISCPILOT01,RS,01-701-1148,39,,TRGRESP,Target Response,iRECIST,iUPD,iUPD,,,INVESTIGATOR,,,12,WEEK 24,2014-02-08,168
129,CDISCPILOT01,RS,01-701-1153,7,A2,OVRLRESP,Overall Response,iRECIST,iSD,iSD,,,INVESTIGATOR,,,7,WEEK 6,2013-11-04,42
130,CDISCPILOT01,RS,01-701-1153,8,,NTRGRESP,Non-target Response,iRECIST,NON-iCR/NON-iUPD,NON-iCR/NON-iUPD,,,INVESTIGATOR,,,7,WEEK 6,2013-11-04,42
131,CDISCPILOT01,RS,01-701-1153,9,,TRGRESP,Target Response,iRECIST,iSD,iSD,,,INVESTIGATOR,,,7,WEEK 6,2013-11-04,42
132,CDISCPILOT01,RS,01-701-1153,10,,IRECLIND,Last iRECIST Assessment Indicator,iRECIST,N,N,,,INVESTIGATOR,,,7,WEEK 6,2013-11-04,42
133,CDISCPILOT01,RS,01-701-1153,11,,NEWLIND,New Lesion Indicator,iRECIST,N,N,,,INVESTIGATOR,,,7,WEEK 6,2013-11-04,42
134,CDISCPILOT01,RS,01-701-1153,16,A3,OVRLRESP,Overall Response,iRECIST,iCR,iCR,,,INVESTIGATOR,,,9,WEEK 12,2013-12-16,84
135,CDISCPILOT01,RS,01-701-1153,17,,NTRGRESP,Non-target Response,iRECIST,iCR,iCR,,,INVESTIGATOR,,,9,WEEK 12,2013-12-16,84
136,CDISCPILOT01,RS,01-701-1153,18,,TRGRESP,Target Response,iRECIST,iCR,iCR,,,INVESTIGATOR,,,9,WEEK 12,2013-12-16,84
137,CDISCPILOT01,RS,01-701-1153,19,,IRECLIND,Last iRECIST Assessment Indicator,iRECIST,N,N,,,INVESTIGATOR,,,9,WEEK 12,2013-12-16,84
138,CDISCPILOT01,RS,01-701-1153,20,,NEWLIND,New Lesion Indicator,iRECIST,N,N,,,INVESTIGATOR,,,9,WEEK 12,2013-12-16,84
139,CDISCPILOT01,RS,01-701-1153,25,,NTRGRESP,Non-target Response,iRECIST,NON-iCR/NON-iUPD,NON-iCR/NON-iUPD,,,INVESTIGATOR,,,9.2,UNSCHEDULED 9.2,2014-01-08,
140,CDISCPILOT01,RS,01-701-1153,26,,OVRLRESP,Overall Response,iRECIST,iPR,iPR,,,INVESTIGATOR,,,9.2,UNSCHEDULED 9.2,2014-01-08,
141,CDISCPILOT01,RS,01-701-1153,27,,TRGRESP,Target Response,iRECIST,iPR,iPR,,,INVESTIGATOR,,,9.2,UNSCHEDULED 9.2,2014-01-08,
142,CDISCPILOT01,RS,01-701-1153,28,,IRECLIND,Last iRECIST Assessment Indicator,iRECIST,N,N,,,INVESTIGATOR,,,9.2,UNSCHEDULED 9.2,2014-01-08,
143,CDISCPILOT01,RS,01-701-1153,29,,NEWLIND,New Lesion Indicator,iRECIST,N,N,,,INVESTIGATOR,,,9.2,UNSCHEDULED 9.2,2014-01-08,
144,CDISCPILOT01,RS,01-701-1153,34,,NTRGRESP,Non-target Response,iRECIST,NON-iCR/NON-iUPD,NON-iCR/NON-iUPD,,,INVESTIGATOR,,,9.3,UNSCHEDULED 9.3,2013-12-30,
145,CDISCPILOT01,RS,01-701-1153,35,,OVRLRESP,Overall Response,iRECIST,iPR,iPR,,,INVESTIGATOR,,,9.3,UNSCHEDULED 9.3,2013-12-30,
146,CDISCPILOT01,RS,01-701-1153,36,,TRGRESP,Target Response,iRECIST,iPR,iPR,,,INVESTIGATOR,,,9.3,UNSCHEDULED 9.3,2013-12-30,
147,CDISCPILOT01,RS,01-701-1153,37,,IRECLIND,Last iRECIST Assessment Indicator,iRECIST,N,N,,,INVESTIGATOR,,,9.3,UNSCHEDULED 9.3,2013-12-30,
148,CDISCPILOT01,RS,01-701-1153,38,,NEWLIND,New Lesion Indicator,iRECIST,N,N,,,INVESTIGATOR,,,9.3,UNSCHEDULED 9.3,2013-12-30,
149,CDISCPILOT01,RS,01-701-1153,43,A4,OVRLRESP,Overall Response,iRECIST,iSD,iSD,,,INVESTIGATOR,,,12,WEEK 24,2014-03-11,168
150,CDISCPILOT01,RS,01-701-1153,44,,NTRGRESP,Non-target Response,iRECIST,NON-iCR/NON-iUPD,NON-iCR/NON-iUPD,,,INVESTIGATOR,,,12,WEEK 24,2014-03-11,168
151,CDISCPILOT01,RS,01-701-1153,46,,IRECLIND,Last iRECIST Assessment Indicator,iRECIST,N,N,,,INVESTIGATOR,,,12,WEEK 24,2014-03-11,168
152,CDISCPILOT01,RS,01-701-1153,47,,NEWLIND,New Lesion Indicator,iRECIST,N,N,,,INVESTIGATOR,,,12,WEEK 24,2014-03-11,168
153,CDISCPILOT01,RS,01-701-1153,45,,TRGRESP,Target Response,iRECIST,iSD,iSD,,,INVESTIGATOR,,,12,WEEK 24,2014-03-11,168
154,CDISCPILOT01,RS,01-701-1203,7,A2,OVRLRESP,Overall Response,iRECIST,iPR,iPR,,,INVESTIGATOR,,,7,WEEK 6,2013-03-16,42
155,CDISCPILOT01,RS,01-701-1203,8,,NTRGRESP,Non-target Response,iRECIST,NON-iCR/NON-iUPD,NON-iCR/NON-iUPD,,,INVESTIGATOR,,,7,WEEK 6,2013-03-16,42
156,CDISCPILOT01,RS,01-701-1203,9,,TRGRESP,Target Response,iRECIST,iPR,iPR,,,INVESTIGATOR,,,7,WEEK 6,2013-03-16,42
157,CDISCPILOT01,RS,01-701-1203,10,,IRECLIND,Last iRECIST Assessment Indicator,iRECIST,N,N,,,INVESTIGATOR,,,7,WEEK 6,2013-03-16,42
158,CDISCPILOT01,RS,01-701-1203,11,,NEWLIND,New Lesion Indicator,iRECIST,N,N,,,INVESTIGATOR,,,7,WEEK 6,2013-03-16,42
159,CDISCPILOT01,RS,01-701-1203,16,A3,OVRLRESP,Overall Response,iRECIST,iSD,iSD,,,INVESTIGATOR,,,9,WEEK 12,2013-05-09,84
160,CDISCPILOT01,RS,01-701-1203,17,,NTRGRESP,Non-target Response,iRECIST,NON-iCR/NON-iUPD,NON-iCR/NON-iUPD,,,INVESTIGATOR,,,9,WEEK 12,2013-05-09,84
161,CDISCPILOT01,RS,01-701-1203,18,,TRGRESP,Target Response,iRECIST,iSD,iSD,,,INVESTIGATOR,,,9,WEEK 12,2013-05-09,84
162,CDISCPILOT01,RS,01-701-1203,19,,IRECLIND,Last iRECIST Assessment Indicator,iRECIST,N,N,,,INVESTIGATOR,,,9,WEEK 12,2013-05-09,84
163,CDISCPILOT01,RS,01-701-1203,20,,NEWLIND,New Lesion Indicator,iRECIST,N,N,,,INVESTIGATOR,,,9,WEEK 12,2013-05-09,84
164,CDISCPILOT01,RS,01-701-1203,25,,NTRGRESP,Non-target Response,iRECIST,NON-iCR/NON-iUPD,NON-iCR/NON-iUPD,,,INVESTIGATOR,,,10.1,WEEK 18 (T),2013-06-08,126
165,CDISCPILOT01,RS,01-701-1203,26,,OVRLRESP,Overall Response,iRECIST,iPR,iPR,,,INVESTIGATOR,,,10.1,WEEK 18 (T),2013-06-08,126
166,CDISCPILOT01,RS,01-701-1203,27,,TRGRESP,Target Response,iRECIST,iPR,iPR,,,INVESTIGATOR,,,10.1,WEEK 18 (T),2013-06-08,126
167,CDISCPILOT01,RS,01-701-1203,28,,IRECLIND,Last iRECIST Assessment Indicator,iRECIST,N,N,,,INVESTIGATOR,,,10.1,WEEK 18 (T),2013-06-08,126
168,CDISCPILOT01,RS,01-701-1203,29,,NEWLIND,New Lesion Indicator,iRECIST,N,N,,,INVESTIGATOR,,,10.1,WEEK 18 (T),2013-06-08,126
169,CDISCPILOT01,RS,01-701-1203,34,A4,OVRLRESP,Overall Response,iRECIST,iPR,iPR,,,INVESTIGATOR,,,12,WEEK 24,2013-07-22,168
170,CDISCPILOT01,RS,01-701-1203,35,,NTRGRESP,Non-target Response,iRECIST,NE,NE,NOT DONE,NOT ASSESSABLE: Image obscured,INVESTIGATOR,,,12,WEEK 24,2013-07-22,168
171,CDISCPILOT01,RS,01-701-1203,36,,TRGRESP,Target Response,iRECIST,iPR,iPR,,,INVESTIGATOR,,,12,WEEK 24,2013-07-22,168
172,CDISCPILOT01,RS,01-701-1203,37,,IRECLIND,Last iRECIST Assessment Indicator,iRECIST,N,N,,,INVESTIGATOR,,,12,WEEK 24,2013-07-22,168
173,CDISCPILOT01,RS,01-701-1203,38,,NEWLIND,New Lesion Indicator,iRECIST,N,N,,,INVESTIGATOR,,,12,WEEK 24,2013-07-22,168
174,CDISCPILOT01,RS,01-701-1211,7,A2,OVRLRESP,Overall Response,iRECIST,iPR,iPR,,,INVESTIGATOR,,,7,WEEK 6,2012-12-25,42
175,CDISCPILOT01,RS,01-701-1211,8,,NTRGRESP,Non-target Response,iRECIST,NON-iCR/NON-iUPD,NON-iCR/NON-iUPD,,,INVESTIGATOR,,,7,WEEK 6,2012-12-25,42
176,CDISCPILOT01,RS,01-701-1211,9,,TRGRESP,Target Response,iRECIST,iPR,iPR,,,INVESTIGATOR,,,7,WEEK 6,2012-12-25,42
177,CDISCPILOT01,RS,01-701-1211,10,,IRECLIND,Last iRECIST Assessment Indicator,iRECIST,N,N,,,INVESTIGATOR,,,7,WEEK 6,2012-12-25,42
178,CDISCPILOT01,RS,01-701-1211,11,,NEWLIND,New Lesion Indicator,iRECIST,N,N,,,INVESTIGATOR,,,7,WEEK 6,2012-12-25,42
179,CDISCPILOT01,RS,01-701-1211,16,A3,OVRLRESP,Overall Response,iRECIST,iCR,iCR,,,INVESTIGATOR,,,9,WEEK 12,2013-01-14,84
180,CDISCPILOT01,RS,01-701-1211,17,,NTRGRESP,Non-target Response,iRECIST,iCR,iCR,,,INVESTIGATOR,,,9,WEEK 12,2013-01-14,84
181,CDISCPILOT01,RS,01-701-1211,19,,IRECLIND,Last iRECIST Assessment Indicator,iRECIST,N,N,,,INVESTIGATOR,,,9,WEEK 12,2013-01-14,84
182,CDISCPILOT01,RS,01-701-1211,20,,NEWLIND,New Lesion Indicator,iRECIST,N,N,,,INVESTIGATOR,,,9,WEEK 12,2013-01-14,84
183,CDISCPILOT01,RS,01-701-1211,18,,TRGRESP,Target Response,iRECIST,iCR,iCR,,,INVESTIGATOR,,,9,WEEK 12,2013-01-14,84
184,CDISCPILOT01,RS,01-701-1239,7,A2,OVRLRESP,Overall Response,iRECIST,iCR,iCR,,,INVESTIGATOR,,,7,WEEK 6,2014-02-19,42
185,CDISCPILOT01,RS,01-701-1239,8,,NTRGRESP,Non-target Response,iRECIST,iCR,iCR,,,INVESTIGATOR,,,7,WEEK 6,2014-02-19,42
186,CDISCPILOT01,RS,01-701-1239,9,,TRGRESP,Target Response,iRECIST,iCR,iCR,,,INVESTIGATOR,,,7,WEEK 6,2014-02-19,42
187,CDISCPILOT01,RS,01-701-1239,10,,IRECLIND,Last iRECIST Assessment Indicator,iRECIST,N,N,,,INVESTIGATOR,,,7,WEEK 6,2014-02-19,42
188,CDISCPILOT01,RS,01-701-1239,11,,NEWLIND,New Lesion Indicator,iRECIST,N,N,,,INVESTIGATOR,,,7,WEEK 6,2014-02-19,42
189,CDISCPILOT01,RS,01-701-1239,16,A3,OVRLRESP,Overall Response,iRECIST,iPR,iPR,,,INVESTIGATOR,,,9,WEEK 12,2014-04-02,84
190,CDISCPILOT01,RS,01-701-1239,17,,NTRGRESP,Non-target Response,iRECIST,NE,NE,NOT DONE,NOT ASSESSABLE: Image obscured,INVESTIGATOR,,,9,WEEK 12,2014-04-02,84
191,CDISCPILOT01,RS,01-701-1239,18,,TRGRESP,Target Response,iRECIST,iPR,iPR,,,INVESTIGATOR,,,9,WEEK 12,2014-04-02,84
192,CDISCPILOT01,RS,01-701-1239,19,,IRECLIND,Last iRECIST Assessment Indicator,iRECIST,N,N,,,INVESTIGATOR,,,9,WEEK 12,2014-04-02,84
193,CDISCPILOT01,RS,01-701-1239,20,,NEWLIND,New Lesion Indicator,iRECIST,N,N,,,INVESTIGATOR,,,9,WEEK 12,2014-04-02,84
194,CDISCPILOT01,RS,01-701-1239,25,,NTRGRESP,Non-target Response,iRECIST,iUPD,iUPD,,,INVESTIGATOR,,,10.1,WEEK 18 (T),2014-05-14,126
195,CDISCPILOT01,RS,01-701-1239,26,,OVRLRESP,Overall Response,iRECIST,iUPD,iUPD,,,INVESTIGATOR,,,10.1,WEEK 18 (T),2014-05-14,126
196,CDISCPILOT01,RS,01-701-1239,27,,TRGRESP,Target Response,iRECIST,iSD,iSD,,,INVESTIGATOR,,,10.1,WEEK 18 (T),2014-05-14,126
197,CDISCPILOT01,RS,01-701-1239,28,,IRECLIND,Last iRECIST Assessment Indicator,iRECIST,N,N,,,INVESTIGATOR,,,10.1,WEEK 18 (T),2014-05-14,126
198,CDISCPILOT01,RS,01-701-1239,29,,NEWLIND,New Lesion Indicator,iRECIST,N,N,,,INVESTIGATOR,,,10.1,WEEK 18 (T),2014-05-14,126
199,CDISCPILOT01,RS,01-701-1239,34,A4,OVRLRESP,Overall Response,iRECIST,iPR,iPR,,,INVESTIGATOR,,,12,WEEK 24,2014-06-27,168
200,CDISCPILOT01,RS,01-701-1239,35,,NTRGRESP,Non-target Response,iRECIST,NON-iCR/NON-iUPD,NON-iCR/NON-iUPD,,,INVESTIGATOR,,,12,WEEK 24,2014-06-27,168
201,CDISCPILOT01,RS,01-701-1239,36,,TRGRESP,Target Response,iRECIST,iPR,iPR,,,INVESTIGATOR,,,12,WEEK 24,2014-06-27,168
202,CDISCPILOT01,RS,01-701-1239,37,,IRECLIND,Last iRECIST Assessment Indicator,iRECIST,N,N,,,INVESTIGATOR,,,12,WEEK 24,2014-06-27,168
203,CDISCPILOT01,RS,01-701-1239,38,,NEWLIND,New Lesion Indicator,iRECIST,N,N,,,INVESTIGATOR,,,12,WEEK 24,2014-06-27,168
204,CDISCPILOT01,RS,01-701-1275,7,A2,OVRLRESP,Overall Response,iRECIST,iSD,iSD,,,INVESTIGATOR,,,7,WEEK 6,2014-03-22,42
205,CDISCPILOT01,RS,01-701-1275,8,,NTRGRESP,Non-target Response,iRECIST,NON-iCR/NON-iUPD,NON-iCR/NON-iUPD,,,INVESTIGATOR,,,7,WEEK 6,2014-03-22,42
206,CDISCPILOT01,RS,01-701-1275,9,,TRGRESP,Target Response,iRECIST,iSD,iSD,,,INVESTIGATOR,,,7,WEEK 6,2014-03-22,42
207,CDISCPILOT01,RS,01-701-1275,10,,IRECLIND,Last iRECIST Assessment Indicator,iRECIST,N,N,,,INVESTIGATOR,,,7,WEEK 6,2014-03-22,42
208,CDISCPILOT01,RS,01-701-1275,11,,NEWLIND,New Lesion Indicator,iRECIST,N,N,,,INVESTIGATOR,,,7,WEEK 6,2014-03-22,42
209,CDISCPILOT01,RS,01-701-1275,16,A3,OVRLRESP,Overall Response,iRECIST,iCR,iCR,,,INVESTIGATOR,,,9,WEEK 12,2014-05-03,84
210,CDISCPILOT01,RS,01-701-1275,17,,NTRGRESP,Non-target Response,iRECIST,iCR,iCR,,,INVESTIGATOR,,,9,WEEK 12,2014-05-03,84
211,CDISCPILOT01,RS,01-701-1275,18,,TRGRESP,Target Response,iRECIST,iCR,iCR,,,INVESTIGATOR,,,9,WEEK 12,2014-05-03,84
212,CDISCPILOT01,RS,01-701-1275,19,,IRECLIND,Last iRECIST Assessment Indicator,iRECIST,N,N,,,INVESTIGATOR,,,9,WEEK 12,2014-05-03,84
213,CDISCPILOT01,RS,01-701-1275,20,,NEWLIND,New Lesion Indicator,iRECIST,N,N,,,INVESTIGATOR,,,9,WEEK 12,2014-05-03,84
214,CDISCPILOT01,RS,01-701-1287,7,A2,OVRLRESP,Overall Response,iRECIST,iPR,iPR,,,INVESTIGATOR,,,7,WEEK 6,2014-03-06,42
215,CDISCPILOT01,RS,01-701-1287,8,,NTRGRESP,Non-target Response,iRECIST,NON-iCR/NON-iUPD,NON-iCR/NON-iUPD,,,INVESTIGATOR,,,7,WEEK 6,2014-03-06,42
216,CDISCPILOT01,RS,01-701-1287,9,,TRGRESP,Target Response,iRECIST,iPR,iPR,,,INVESTIGATOR,,,7,WEEK 6,2014-03-06,42
217,CDISCPILOT01,RS,01-701-1287,10,,IRECLIND,Last iRECIST Assessment Indicator,iRECIST,N,N,,,INVESTIGATOR,,,7,WEEK 6,2014-03-06,42
218,CDISCPILOT01,RS,01-701-1287,11,,NEWLIND,New Lesion Indicator,iRECIST,N,N,,,INVESTIGATOR,,,7,WEEK 6,2014-03-06,42
219,CDISCPILOT01,RS,01-701-1287,16,A3,OVRLRESP,Overall Response,iRECIST,iSD,iSD,,,INVESTIGATOR,,,9,WEEK 12,2014-04-17,84
220,CDISCPILOT01,RS,01-701-1287,17,,NTRGRESP,Non-target Response,iRECIST,NON-iCR/NON-iUPD,NON-iCR/NON-iUPD,,,INVESTIGATOR,,,9,WEEK 12,2014-04-17,84
221,CDISCPILOT01,RS,01-701-1287,18,,TRGRESP,Target Response,iRECIST,iSD,iSD,,,INVESTIGATOR,,,9,WEEK 12,2014-04-17,84
222,CDISCPILOT01,RS,01-701-1287,19,,IRECLIND,Last iRECIST Assessment Indicator,iRECIST,N,N,,,INVESTIGATOR,,,9,WEEK 12,2014-04-17,84
223,CDISCPILOT01,RS,01-701-1287,20,,NEWLIND,New Lesion Indicator,iRECIST,N,N,,,INVESTIGATOR,,,9,WEEK 12,2014-04-17,84
224,CDISCPILOT01,RS,01-701-1287,25,,NTRGRESP,Non-target Response,iRECIST,NON-iCR/NON-iUPD,NON-iCR/NON-iUPD,,,INVESTIGATOR,,,10.1,WEEK 18 (T),2014-05-29,126
225,CDISCPILOT01,RS,01-701-1287,26,,OVRLRESP,Overall Response,iRECIST,iPR,iPR,,,INVESTIGATOR,,,10.1,WEEK 18 (T),2014-05-29,126
226,CDISCPILOT01,RS,01-701-1287,27,,TRGRESP,Target Response,iRECIST,iPR,iPR,,,INVESTIGATOR,,,10.1,WEEK 18 (T),2014-05-29,126
227,CDISCPILOT01,RS,01-701-1287,28,,IRECLIND,Last iRECIST Assessment Indicator,iRECIST,N,N,,,INVESTIGATOR,,,10.1,WEEK 18 (T),2014-05-29,126
228,CDISCPILOT01,RS,01-701-1287,29,,NEWLIND,New Lesion Indicator,iRECIST,N,N,,,INVESTIGATOR,,,10.1,WEEK 18 (T),2014-05-29,126
229,CDISCPILOT01,RS,01-701-1287,36,A4,OVRLRESP,Overall Response,iRECIST,iUPD,iUPD,,,INVESTIGATOR,,,12,WEEK 24,2014-07-12,168
230,CDISCPILOT01,RS,01-701-1287,37,,NEWLPROG,New Lesion Progression,iRECIST,UNEQUIVOCAL,UNEQUIVOCAL,,,INVESTIGATOR,,,12,WEEK 24,2014-07-12,168
231,CDISCPILOT01,RS,01-701-1287,38,,NTRGRESP,Non-target Response,iRECIST,iUPD,iUPD,,,INVESTIGATOR,,,12,WEEK 24,2014-07-12,168
232,CDISCPILOT01,RS,01-701-1287,40,,IRECLIND,Last iRECIST Assessment Indicator,iRECIST,N,N,,,INVESTIGATOR,,,12,WEEK 24,2014-07-12,168
233,CDISCPILOT01,RS,01-701-1287,41,,NEWLIND,New Lesion Indicator,iRECIST,Y,Y,,,INVESTIGATOR,,,12,WEEK 24,2014-07-12,168
234,CDISCPILOT01,RS,01-701-1287,39,,TRGRESP,Target Response,iRECIST,PR,PR,,,INVESTIGATOR,,,12,WEEK 24,2014-07-12,168
235,CDISCPILOT01,RS,01-701-1294,7,A2,OVRLRESP,Overall Response,iRECIST,iUPD,iUPD,,,INVESTIGATOR,,,7,WEEK 6,2013-05-08,42
236,CDISCPILOT01,RS,01-701-1294,8,,NTRGRESP,Non-target Response,iRECIST,iUPD,iUPD,,,INVESTIGATOR,,,7,WEEK 6,2013-05-08,42
237,CDISCPILOT01,RS,01-701-1294,9,,TRGRESP,Target Response,iRECIST,iUPD,iUPD,,,INVESTIGATOR,,,7,WEEK 6,2013-05-08,42
238,CDISCPILOT01,RS,01-701-1294,10,,IRECLIND,Last iRECIST Assessment Indicator,iRECIST,N,N,,,INVESTIGATOR,,,7,WEEK 6,2013-05-08,42
239,CDISCPILOT01,RS,01-701-1294,11,,NEWLIND,New Lesion Indicator,iRECIST,N,N,,,INVESTIGATOR,,,7,WEEK 6,2013-05-08,42
240,CDISCPILOT01,RS,01-701-1294,16,A3,OVRLRESP,Overall Response,iRECIST,NE,NE,,,INVESTIGATOR,,,9,WEEK 12,2013-06-14,84
241,CDISCPILOT01,RS,01-701-1294,17,,NTRGRESP,Non-target Response,iRECIST,NON-iCR/NON-iUPD,NON-iCR/NON-iUPD,,,INVESTIGATOR,,,9,WEEK 12,2013-06-14,84
242,CDISCPILOT01,RS,01-701-1294,18,,TRGRESP,Target Response,iRECIST,NE,NE,,,INVESTIGATOR,,,9,WEEK 12,2013-06-14,84
243,CDISCPILOT01,RS,01-701-1294,19,,IRECLIND,Last iRECIST Assessment Indicator,iRECIST,Y,Y,,,INVESTIGATOR,,,9,WEEK 12,2013-06-14,84
244,CDISCPILOT01,RS,01-701-1294,20,,NEWLIND,New Lesion Indicator,iRECIST,N,N,,,INVESTIGATOR,,,9,WEEK 12,2013-06-14,84
245,CDISCPILOT01,RS,01-701-1302,7,A2,OVRLRESP,Overall Response,iRECIST,iSD,iSD,,,INVESTIGATOR,,,7,WEEK 6,2013-10-08,42
246,CDISCPILOT01,RS,01-701-1302,8,,NTRGRESP,Non-target Response,iRECIST,NON-iCR/NON-iUPD,NON-iCR/NON-iUPD,,,INVESTIGATOR,,,7,WEEK 6,2013-10-08,42
247,CDISCPILOT01,RS,01-701-1302,9,,TRGRESP,Target Response,iRECIST,iSD,iSD,,,INVESTIGATOR,,,7,WEEK 6,2013-10-08,42
248,CDISCPILOT01,RS,01-701-1302,10,,IRECLIND,Last iRECIST Assessment Indicator,iRECIST,N,N,,,INVESTIGATOR,,,7,WEEK 6,2013-10-08,42
249,CDISCPILOT01,RS,01-701-1302,11,,NEWLIND,New Lesion Indicator,iRECIST,Y,Y,,,INVESTIGATOR,,,7,WEEK 6,2013-10-08,42
250,CDISCPILOT01,RS,01-701-1302,16,A3,OVRLRESP,Overall Response,iRECIST,NE,NE,,,INVESTIGATOR,,,9,WEEK 12,2013-11-05,84
251,CDISCPILOT01,RS,01-701-1302,17,,NTRGRESP,Non-target Response,iRECIST,NON-iCR/NON-iUPD,NON-iCR/NON-iUPD,,,INVESTIGATOR,,,9,WEEK 12,2013-11-05,84
252,CDISCPILOT01,RS,01-701-1302,19,,IRECLIND,Last iRECIST Assessment Indicator,iRECIST,Y,Y,,,INVESTIGATOR,,,9,WEEK 12,2013-11-05,84
253,CDISCPILOT01,RS,01-701-1302,20,,NEWLIND,New Lesion Indicator,iRECIST,N,N,,,INVESTIGATOR,,,9,WEEK 12,2013-11-05,84
254,CDISCPILOT01,RS,01-701-1302,18,,TRGRESP,Target Response,iRECIST,NE,NE,,,INVESTIGATOR,,,9,WEEK 12,2013-11-05,84
255,CDISCPILOT01,RS,01-701-1345,7,A2,OVRLRESP,Overall Response,iRECIST,iSD,iSD,,,INVESTIGATOR,,,7,WEEK 6,2013-11-19,42
256,CDISCPILOT01,RS,01-701-1345,8,,NTRGRESP,Non-target Response,iRECIST,NON-iCR/NON-iUPD,NON-iCR/NON-iUPD,,,INVESTIGATOR,,,7,WEEK 6,2013-11-19,42
257,CDISCPILOT01,RS,01-701-1345,9,,TRGRESP,Target Response,iRECIST,iSD,iSD,,,INVESTIGATOR,,,7,WEEK 6,2013-11-19,42
258,CDISCPILOT01,RS,01-701-1345,10,,IRECLIND,Last iRECIST Assessment Indicator,iRECIST,N,N,,,INVESTIGATOR,,,7,WEEK 6,2013-11-19,42
259,CDISCPILOT01,RS,01-701-1345,11,,NEWLIND,New Lesion Indicator,iRECIST,N,N,,,INVESTIGATOR,,,7,WEEK 6,2013-11-19,42
260,CDISCPILOT01,RS,01-701-1345,16,A3,OVRLRESP,Overall Response,iRECIST,iCR,iCR,,,INVESTIGATOR,,,9,WEEK 12,2013-12-31,84
261,CDISCPILOT01,RS,01-701-1345,17,,NTRGRESP,Non-target Response,iRECIST,iCR,iCR,,,INVESTIGATOR,,,9,WEEK 12,2013-12-31,84
262,CDISCPILOT01,RS,01-701-1345,18,,TRGRESP,Target Response,iRECIST,iCR,iCR,,,INVESTIGATOR,,,9,WEEK 12,2013-12-31,84
263,CDISCPILOT01,RS,01-701-1345,19,,IRECLIND,Last iRECIST Assessment Indicator,iRECIST,N,N,,,INVESTIGATOR,,,9,WEEK 12,2013-12-31,84
264,CDISCPILOT01,RS,01-701-1345,20,,NEWLIND,New Lesion Indicator,iRECIST,N,N,,,INVESTIGATOR,,,9,WEEK 12,2013-12-31,84
265,CDISCPILOT01,RS,01-701-1345,25,,NTRGRESP,Non-target Response,iRECIST,iSD,iSD,,,INVESTIGATOR,,,10.1,WEEK 18 (T),2014-02-11,126
266,CDISCPILOT01,RS,01-701-1345,26,,OVRLRESP,Overall Response,iRECIST,NON-iCR/NON-iUPD,NON-iCR/NON-iUPD,,,INVESTIGATOR,,,10.1,WEEK 18 (T),2014-02-11,126
267,CDISCPILOT01,RS,01-701-1345,27,,TRGRESP,Target Response,iRECIST,iSD,iSD,,,INVESTIGATOR,,,10.1,WEEK 18 (T),2014-02-11,126
268,CDISCPILOT01,RS,01-701-1345,28,,IRECLIND,Last iRECIST Assessment Indicator,iRECIST,N,N,,,INVESTIGATOR,,,10.1,WEEK 18 (T),2014-02-11,126
269,CDISCPILOT01,RS,01-701-1345,29,,NEWLIND,New Lesion Indicator,iRECIST,N,N,,,INVESTIGATOR,,,10.1,WEEK 18 (T),2014-02-11,126
270,CDISCPILOT01,RS,01-701-1345,34,A4,OVRLRESP,Overall Response,iRECIST,iSD,iSD,,,INVESTIGATOR,,,12,WEEK 24,2014-03-18,168
271,CDISCPILOT01,RS,01-701-1345,35,,NTRGRESP,Non-target Response,iRECIST,NON-iCR/NON-iUPD,NON-iCR/NON-iUPD,,,INVESTIGATOR,,,12,WEEK 24,2014-03-18,168
272,CDISCPILOT01,RS,01-701-1345,36,,TRGRESP,Target Response,iRECIST,iSD,iSD,,,INVESTIGATOR,,,12,WEEK 24,2014-03-18,168
273,CDISCPILOT01,RS,01-701-1345,37,,IRECLIND,Last iRECIST Assessment Indicator,iRECIST,N,N,,,INVESTIGATOR,,,12,WEEK 24,2014-03-18,168
274,CDISCPILOT01,RS,01-701-1345,38,,NEWLIND,New Lesion Indicator,iRECIST,N,N,,,INVESTIGATOR,,,12,WEEK 24,2014-03-18,168
275,CDISCPILOT01,RS,01-701-1363,7,A2,OVRLRESP,Overall Response,iRECIST,iCR,iCR,,,INVESTIGATOR,,,7,WEEK 6,2013-07-10,42
276,CDISCPILOT01,RS,01-701-1363,8,,NTRGRESP,Non-target Response,iRECIST,iCR,iCR,,,INVESTIGATOR,,,7,WEEK 6,2013-07-10,42
277,CDISCPILOT01,RS,01-701-1363,9,,TRGRESP,Target Response,iRECIST,iCR,iCR,,,INVESTIGATOR,,,7,WEEK 6,2013-07-10,42
278,CDISCPILOT01,RS,01-701-1363,10,,IRECLIND,Last iRECIST Assessment Indicator,iRECIST,N,N,,,INVESTIGATOR,,,7,WEEK 6,2013-07-10,42
279,CDISCPILOT01,RS,01-701-1363,11,,NEWLIND,New Lesion Indicator,iRECIST,N,N,,,INVESTIGATOR,,,7,WEEK 6,2013-07-10,42
280,CDISCPILOT01,RS,01-701-1363,16,A3,OVRLRESP,Overall Response,iRECIST,iUPD,iUPD,,,INVESTIGATOR,,,9,WEEK 12,2013-08-21,84
281,CDISCPILOT01,RS,01-701-1363,17,,NTRGRESP,Non-target Response,iRECIST,NON-iCR/NON-iUPD,NON-iCR/NON-iUPD,,,INVESTIGATOR,,,9,WEEK 12,2013-08-21,84
282,CDISCPILOT01,RS,01-701-1363,18,,TRGRESP,Target Response,iRECIST,iSD,iSD,,,INVESTIGATOR,,,9,WEEK 12,2013-08-21,84
283,CDISCPILOT01,RS,01-701-1363,19,,IRECLIND,Last iRECIST Assessment Indicator,iRECIST,N,N,,,INVESTIGATOR,,,9,WEEK 12,2013-08-21,84
284,CDISCPILOT01,RS,01-701-1363,20,,NEWLIND,New Lesion Indicator,iRECIST,Y,Y,,,INVESTIGATOR,,,9,WEEK 12,2013-08-21,84
285,CDISCPILOT01,RS,01-701-1363,25,,NTRGRESP,Non-target Response,iRECIST,NON-iCR/NON-iUPD,NON-iCR/NON-iUPD,,,INVESTIGATOR,,,10.1,WEEK 18 (T),2013-10-02,126
286,CDISCPILOT01,RS,01-701-1363,26,,OVRLRESP,Overall Response,iRECIST,iPR,iPR,,,INVESTIGATOR,,,10.1,WEEK 18 (T),2013-10-02,126
287,CDISCPILOT01,RS,01-701-1363,27,,TRGRESP,Target Response,iRECIST,iPR,iPR,,,INVESTIGATOR,,,10.1,WEEK 18 (T),2013-10-02,126
288,CDISCPILOT01,RS,01-701-1363,28,,IRECLIND,Last iRECIST Assessment Indicator,iRECIST,N,N,,,INVESTIGATOR,,,10.1,WEEK 18 (T),2013-10-02,126
289,CDISCPILOT01,RS,01-701-1363,29,,NEWLIND,New Lesion Indicator,iRECIST,N,N,,,INVESTIGATOR,,,10.1,WEEK 18 (T),2013-10-02,126
290,CDISCPILOT01,RS,01-701-1363,34,A4,OVRLRESP,Overall Response,iRECIST,iUPD,iUPD,,,INVESTIGATOR,,,12,WEEK 24,2013-11-13,168
291,CDISCPILOT01,RS,01-701-1363,35,,NTRGRESP,Non-target Response,iRECIST,iUPD,iUPD,,,INVESTIGATOR,,,12,WEEK 24,2013-11-13,168
292,CDISCPILOT01,RS,01-701-1363,36,,TRGRESP,Target Response,iRECIST,iPR,iPR,,,INVESTIGATOR,,,12,WEEK 24,2013-11-13,168
293,CDISCPILOT01,RS,01-701-1363,37,,IRECLIND,Last iRECIST Assessment Indicator,iRECIST,N,N,,,INVESTIGATOR,,,12,WEEK 24,2013-11-13,168
294,CDISCPILOT01,RS,01-701-1363,38,,NEWLIND,New Lesion Indicator,iRECIST,N,N,,,INVESTIGATOR,,,12,WEEK 24,2013-11-13,168
295,CDISCPILOT01,RS,01-701-1383,7,A2,OVRLRESP,Overall Response,iRECIST,iPR,iPR,,,INVESTIGATOR,,,7,WEEK 6,2013-03-19,42
296,CDISCPILOT01,RS,01-701-1383,8,,NTRGRESP,Non-target Response,iRECIST,NON-iCR/NON-iUPD,NON-iCR/NON-iUPD,,,INVESTIGATOR,,,7,WEEK 6,2013-03-19,42
297,CDISCPILOT01,RS,01-701-1383,9,,TRGRESP,Target Response,iRECIST,iPR,iPR,,,INVESTIGATOR,,,7,WEEK 6,2013-03-19,42
298,CDISCPILOT01,RS,01-701-1383,10,,IRECLIND,Last iRECIST Assessment Indicator,iRECIST,N,N,,,INVESTIGATOR,,,7,WEEK 6,2013-03-19,42
299,CDISCPILOT01,RS,01-701-1383,11,,NEWLIND,New Lesion Indicator,iRECIST,N,N,,,INVESTIGATOR,,,7,WEEK 6,2013-03-19,42
300,CDISCPILOT01,RS,01-701-1383,16,A3,OVRLRESP,Overall Response,iRECIST,NE,NE,,,INVESTIGATOR,,,9,WEEK 12,2013-04-30,84
301,CDISCPILOT01,RS,01-701-1383,17,,NTRGRESP,Non-target Response,iRECIST,NE,NE,NOT DONE,NOT ASSESSABLE: Image obscured,INVESTIGATOR,,,9,WEEK 12,2013-04-30,84
302,CDISCPILOT01,RS,01-701-1383,18,,TRGRESP,Target Response,iRECIST,NE,NE,,,INVESTIGATOR,,,9,WEEK 12,2013-04-30,84
303,CDISCPILOT01,RS,01-701-1383,19,,IRECLIND,Last iRECIST Assessment Indicator,iRECIST,N,N,,,INVESTIGATOR,,,9,WEEK 12,2013-04-30,84
304,CDISCPILOT01,RS,01-701-1383,20,,NEWLIND,New Lesion Indicator,iRECIST,N,N,,,INVESTIGATOR,,,9,WEEK 12,2013-04-30,84
305,CDISCPILOT01,RS,01-701-1383,25,,NTRGRESP,Non-target Response,iRECIST,NE,NE,NOT DONE,NOT ASSESSABLE: Image obscured,INVESTIGATOR,,,10.1,WEEK 18 (T),2013-06-13,126
306,CDISCPILOT01,RS,01-701-1383,26,,OVRLRESP,Overall Response,iRECIST,NE,NE,,,INVESTIGATOR,,,10.1,WEEK 18 (T),2013-06-13,126
307,CDISCPILOT01,RS,01-701-1383,27,,TRGRESP,Target Response,iRECIST,NE,NE,,,INVESTIGATOR,,,10.1,WEEK 18 (T),2013-06-13,126
308,CDISCPILOT01,RS,01-701-1383,28,,IRECLIND,Last iRECIST Assessment Indicator,iRECIST,N,N,,,INVESTIGATOR,,,10.1,WEEK 18 (T),2013-06-13,126
309,CDISCPILOT01,RS,01-701-1383,29,,NEWLIND,New Lesion Indicator,iRECIST,N,N,,,INVESTIGATOR,,,10.1,WEEK 18 (T),2013-06-13,126
310,CDISCPILOT01,RS,01-701-1383,34,A4,OVRLRESP,Overall Response,iRECIST,iUPD,iUPD,,,INVESTIGATOR,,,12,WEEK 24,2013-07-30,168
311,CDISCPILOT01,RS,01-701-1383,35,,NTRGRESP,Non-target Response,iRECIST,iUPD,iUPD,,,INVESTIGATOR,,,12,WEEK 24,2013-07-30,168
312,CDISCPILOT01,RS,01-701-1383,37,,IRECLIND,Last iRECIST Assessment Indicator,iRECIST,N,N,,,INVESTIGATOR,,,12,WEEK 24,2013-07-30,168
313,CDISCPILOT01,RS,01-701-1383,38,,NEWLIND,New Lesion Indicator,iRECIST,N,N,,,INVESTIGATOR,,,12,WEEK 24,2013-07-30,168
314,CDISCPILOT01,RS,01-701-1383,36,,TRGRESP,Target Response,iRECIST,iPR,iPR,,,INVESTIGATOR,,,12,WEEK 24,2013-07-30,168
315,CDISCPILOT01,RS,01-701-1415,7,A2,OVRLRESP,Overall Response,iRECIST,iUPD,iUPD,,,INVESTIGATOR,,,7,WEEK 6,2013-11-04,42
316,CDISCPILOT01,RS,01-701-1415,8,,NTRGRESP,Non-target Response,iRECIST,iUPD,iUPD,,,INVESTIGATOR,,,7,WEEK 6,2013-11-04,42
317,CDISCPILOT01,RS,01-701-1415,9,,TRGRESP,Target Response,iRECIST,iSD,iSD,,,INVESTIGATOR,,,7,WEEK 6,2013-11-04,42
318,CDISCPILOT01,RS,01-701-1415,10,,IRECLIND,Last iRECIST Assessment Indicator,iRECIST,N,N,,,INVESTIGATOR,,,7,WEEK 6,2013-11-04,42
319,CDISCPILOT01,RS,01-701-1415,11,,NEWLIND,New Lesion Indicator,iRECIST,N,N,,,INVESTIGATOR,,,7,WEEK 6,2013-11-04,42
320,CDISCPILOT01,RS,01-701-1415,16,A3,OVRLRESP,Overall Response,iRECIST,iCR,iCR,,,INVESTIGATOR,,,9,WEEK 12,2013-12-21,84
321,CDISCPILOT01,RS,01-701-1415,17,,NTRGRESP,Non-target Response,iRECIST,iCR,iCR,,,INVESTIGATOR,,,9,WEEK 12,2013-12-21,84
322,CDISCPILOT01,RS,01-701-1415,18,,TRGRESP,Target Response,iRECIST,iCR,iCR,,,INVESTIGATOR,,,9,WEEK 12,2013-12-21,84
323,CDISCPILOT01,RS,01-701-1415,19,,IRECLIND,Last iRECIST Assessment Indicator,iRECIST,N,N,,,INVESTIGATOR,,,9,WEEK 12,2013-12-21,84
324,CDISCPILOT01,RS,01-701-1415,20,,NEWLIND,New Lesion Indicator,iRECIST,N,N,,,INVESTIGATOR,,,9,WEEK 12,2013-12-21,84
325,CDISCPILOT01,RS,01-701-1415,25,,NTRGRESP,Non-target Response,iRECIST,NE,NE,,,INVESTIGATOR,,,10.1,WEEK 18 (T),2014-01-27,126
326,CDISCPILOT01,RS,01-701-1415,26,,OVRLRESP,Overall Response,iRECIST,NE,NE,,,INVESTIGATOR,,,10.1,WEEK 18 (T),2014-01-27,126
327,CDISCPILOT01,RS,01-701-1415,27,,TRGRESP,Target Response,iRECIST,NE,NE,,,INVESTIGATOR,,,10.1,WEEK 18 (T),2014-01-27,126
328,CDISCPILOT01,RS,01-701-1415,28,,IRECLIND,Last iRECIST Assessment Indicator,iRECIST,N,N,,,INVESTIGATOR,,,10.1,WEEK 18 (T),2014-01-27,126
329,CDISCPILOT01,RS,01-701-1415,29,,NEWLIND,New Lesion Indicator,iRECIST,N,N,,,INVESTIGATOR,,,10.1,WEEK 18 (T),2014-01-27,126
330,CDISCPILOT01,RS,01-701-1415,34,A4,OVRLRESP,Overall Response,iRECIST,NE,NE,,,INVESTIGATOR,,,12,WEEK 24,2014-03-10,168
331,CDISCPILOT01,RS,01-701-1415,35,,NTRGRESP,Non-target Response,iRECIST,NE,NE,,,INVESTIGATOR,,,12,WEEK 24,2014-03-10,168
332,CDISCPILOT01,RS,01-701-1415,37,,IRECLIND,Last iRECIST Assessment Indicator,iRECIST,N,N,,,INVESTIGATOR,,,12,WEEK 24,2014-03-10,168
333,CDISCPILOT01,RS,01-701-1415,38,,NEWLIND,New Lesion Indicator,iRECIST,N,N,,,INVESTIGATOR,,,12,WEEK 24,2014-03-10,168
334,CDISCPILOT01,RS,01-701-1415,36,,TRGRESP,Target Response,iRECIST,iSD,iSD,,,INVESTIGATOR,,,12,WEEK 24,2014-03-10,168
335,CDISCPILOT01,RS,01-702-1082,7,A2,OVRLRESP,Overall Response,iRECIST,iUPD,iUPD,,,INVESTIGATOR,,,7,WEEK 6,2013-09-06,42
336,CDISCPILOT01,RS,01-702-1082,8,,NTRGRESP,Non-target Response,iRECIST,NE,NE,NOT DONE,NOT ASSESSABLE: Image obscured,INVESTIGATOR,,,7,WEEK 6,2013-09-06,42
337,CDISCPILOT01,RS,01-702-1082,9,,TRGRESP,Target Response,iRECIST,iUPD,iUPD,,,INVESTIGATOR,,,7,WEEK 6,2013-09-06,42
338,CDISCPILOT01,RS,01-702-1082,10,,IRECLIND,Last iRECIST Assessment Indicator,iRECIST,N,N,,,INVESTIGATOR,,,7,WEEK 6,2013-09-06,42
339,CDISCPILOT01,RS,01-702-1082,11,,NEWLIND,New Lesion Indicator,iRECIST,N,N,,,INVESTIGATOR,,,7,WEEK 6,2013-09-06,42
340,CDISCPILOT01,RS,01-702-1082,16,A3,OVRLRESP,Overall Response,iRECIST,iCPD,iCPD,,,INVESTIGATOR,,,9,WEEK 12,2013-11-17,84
341,CDISCPILOT01,RS,01-702-1082,17,,NTRGRESP,Non-target Response,iRECIST,iUPD,iUPD,,,INVESTIGATOR,,,9,WEEK 12,2013-11-17,84
342,CDISCPILOT01,RS,01-702-1082,19,,IRECLIND,Last iRECIST Assessment Indicator,iRECIST,Y,Y,,,INVESTIGATOR,,,9,WEEK 12,2013-11-17,84
343,CDISCPILOT01,RS,01-702-1082,20,,NEWLIND,New Lesion Indicator,iRECIST,N,N,,,INVESTIGATOR,,,9,WEEK 12,2013-11-17,84
344,CDISCPILOT01,RS,01-702-1082,18,,TRGRESP,Target Response,iRECIST,iCPD,iCPD,,,INVESTIGATOR,,,9,WEEK 12,2013-11-17,84
345,CDISCPILOT01,RS,01-703-1076,7,A2,OVRLRESP,Overall Response,iRECIST,iUPD,iUPD,,,INVESTIGATOR,,,7,WEEK 6,2013-12-04,42
346,CDISCPILOT01,RS,01-703-1076,8,,NTRGRESP,Non-target Response,iRECIST,NON-iCR/NON-iUPD,NON-iCR/NON-iUPD,,,INVESTIGATOR,,,7,WEEK 6,2013-12-04,42
347,CDISCPILOT01,RS,01-703-1076,9,,TRGRESP,Target Response,iRECIST,iUPD,iUPD,,,INVESTIGATOR,,,7,WEEK 6,2013-12-04,42
348,CDISCPILOT01,RS,01-703-1076,10,,IRECLIND,Last iRECIST Assessment Indicator,iRECIST,N,N,,,INVESTIGATOR,,,7,WEEK 6,2013-12-04,42
349,CDISCPILOT01,RS,01-703-1076,11,,NEWLIND,New Lesion Indicator,iRECIST,N,N,,,INVESTIGATOR,,,7,WEEK 6,2013-12-04,42
350,CDISCPILOT01,RS,01-703-1076,16,A3,OVRLRESP,Overall Response,iRECIST,iSD,iSD,,,INVESTIGATOR,,,9,WEEK 12,2013-12-24,84
351,CDISCPILOT01,RS,01-703-1076,17,,NTRGRESP,Non-target Response,iRECIST,iCR,iCR,,,INVESTIGATOR,,,9,WEEK 12,2013-12-24,84
352,CDISCPILOT01,RS,01-703-1076,18,,TRGRESP,Target Response,iRECIST,iSD,iSD,,,INVESTIGATOR,,,9,WEEK 12,2013-12-24,84
353,CDISCPILOT01,RS,01-703-1076,19,,IRECLIND,Last iRECIST Assessment Indicator,iRECIST,N,N,,,INVESTIGATOR,,,9,WEEK 12,2013-12-24,84
354,CDISCPILOT01,RS,01-703-1076,20,,NEWLIND,New Lesion Indicator,iRECIST,N,N,,,INVESTIGATOR,,,9,WEEK 12,2013-12-24,84
355,CDISCPILOT01,RS,01-703-1086,7,A2,OVRLRESP,Overall Response,iRECIST,iPR,iPR,,,INVESTIGATOR,,,7,WEEK 6,2012-10-13,42
356,CDISCPILOT01,RS,01-703-1086,8,,NTRGRESP,Non-target Response,iRECIST,CR,NON-iCR/NON-iUPD,,,INVESTIGATOR,,,7,WEEK 6,2012-10-13,42
357,CDISCPILOT01,RS,01-703-1086,9,,TRGRESP,Target Response,iRECIST,iPR,iPR,,,INVESTIGATOR,,,7,WEEK 6,2012-10-13,42
358,CDISCPILOT01,RS,01-703-1086,10,,IRECLIND,Last iRECIST Assessment Indicator,iRECIST,N,N,,,INVESTIGATOR,,,7,WEEK 6,2012-10-13,42
359,CDISCPILOT01,RS,01-703-1086,11,,NEWLIND,New Lesion Indicator,iRECIST,N,N,,,INVESTIGATOR,,,7,WEEK 6,2012-10-13,42
360,CDISCPILOT01,RS,01-703-1086,16,A3,OVRLRESP,Overall Response,iRECIST,NE,NE,NOT DONE,NOT ASSESSABLE: Image obscured,INVESTIGATOR,,,9,WEEK 12,2012-11-27,84
361,CDISCPILOT01,RS,01-703-1086,17,,NTRGRESP,Non-target Response,iRECIST,NON-iCR/NON-iUPD,NON-iCR/NON-iUPD,,,INVESTIGATOR,,,9,WEEK 12,2012-11-27,84
362,CDISCPILOT01,RS,01-703-1086,19,,IRECLIND,Last iRECIST Assessment Indicator,iRECIST,N,N,,,INVESTIGATOR,,,9,WEEK 12,2012-11-27,84
363,CDISCPILOT01,RS,01-703-1086,20,,NEWLIND,New Lesion Indicator,iRECIST,N,N,,,INVESTIGATOR,,,9,WEEK 12,2012-11-27,84
364,CDISCPILOT01,RS,01-703-1086,18,,TRGRESP,Target Response,iRECIST,NE,NE,,,INVESTIGATOR,,,9,WEEK 12,2012-11-27,84
365,CDISCPILOT01,RS,01-703-1119,7,A2,OVRLRESP,Overall Response,iRECIST,iCR,iCR,,,INVESTIGATOR,,,7,WEEK 6,2013-04-04,42
366,CDISCPILOT01,RS,01-703-1119,8,,NTRGRESP,Non-target Response,iRECIST,iCR,iCR,,,INVESTIGATOR,,,7,WEEK 6,2013-04-04,42
367,CDISCPILOT01,RS,01-703-1119,9,,TRGRESP,Target Response,iRECIST,iCR,iCR,,,INVESTIGATOR,,,7,WEEK 6,2013-04-04,42
368,CDISCPILOT01,RS,01-703-1119,10,,IRECLIND,Last iRECIST Assessment Indicator,iRECIST,N,N,,,INVESTIGATOR,,,7,WEEK 6,2013-04-04,42
369,CDISCPILOT01,RS,01-703-1119,11,,NEWLIND,New Lesion Indicator,iRECIST,N,N,,,INVESTIGATOR,,,7,WEEK 6,2013-04-04,42
370,CDISCPILOT01,RS,01-703-1119,16,A3,OVRLRESP,Overall Response,iRECIST,NE,NE,NOT DONE,NOT ASSESSABLE: Image obscured,INVESTIGATOR,,,9,WEEK 12,2013-05-17,84
371,CDISCPILOT01,RS,01-703-1119,17,,NTRGRESP,Non-target Response,iRECIST,NON-iCR/NON-iUPD,NON-iCR/NON-iUPD,,,INVESTIGATOR,,,9,WEEK 12,2013-05-17,84
372,CDISCPILOT01,RS,01-703-1119,19,,IRECLIND,Last iRECIST Assessment Indicator,iRECIST,N,N,,,INVESTIGATOR,,,9,WEEK 12,2013-05-17,84
373,CDISCPILOT01,RS,01-703-1119,20,,NEWLIND,New Lesion Indicator,iRECIST,N,N,,,INVESTIGATOR,,,9,WEEK 12,2013-05-17,84
374,CDISCPILOT01,RS,01-703-1119,18,,TRGRESP,Target Response,iRECIST,NE,NE,,,INVESTIGATOR,,,9,WEEK 12,2013-05-17,84
375,CDISCPILOT01,RS,01-701-1130,37,,IRECLIND,Last iRECIST Assessment Indicator,iRECIST,N,N,,,INVESTIGATOR,,,12,WEEK 24,2014-08-02,168
376,CDISCPILOT01,RS,01-701-1130,38,,NEWLIND,New Lesion Indicator,iRECIST,Y,Y,,,INVESTIGATOR,,,12,WEEK 24,2014-08-02,168
