rownames,STUDYID,DOMAIN,USUBJID,RSSEQ,RSTESTCD,RSTEST,RSCAT,RSORRES,RSSTRESC,RSEVAL,VISITNUM,VISIT,RSDTC,RSDY
1,CDISCPILOT01,RS,01-701-1015,1,SFTSRESP,Soft Tissue Response,RECIST 1.1,SD,SD,INVESTIGATOR,8,WEEK 8,2014-03-05,63
2,CDISCPILOT01,RS,01-701-1015,2,BONERESP,Bone Response,PCWG SCHER PROSTATE CANCER 2016,NON-PD,NON-PD,INVESTIGATOR,8,WEEK 8,2014-03-05,63
3,CDISCPILOT01,RS,01-701-1015,3,OVRLRESP,Overall Response,PCWG SCHER PROSTATE CANCER 2016,SD,SD,INVESTIGATOR,8,WEEK 8,2014-03-05,63
4,CDISCPILOT01,RS,01-701-1015,4,SFTSRESP,Soft Tissue Response,RECIST 1.1,PR,PR,INVESTIGATOR,10,WEEK 16,2014-05-07,126
5,CDISCPILOT01,RS,01-701-1015,5,BONERESP,Bone Response,PCWG SCHER PROSTATE CANCER 2016,NON-PD,NON-PD,INVESTIGATOR,10,WEEK 16,2014-05-07,126
6,CDISCPILOT01,RS,01-701-1015,6,OVRLRESP,Overall Response,PCWG SCHER PROSTATE CANCER 2016,PR,PR,INVESTIGATOR,10,WEEK 16,2014-05-07,126
7,CDISCPILOT01,RS,01-701-1015,7,SFTSRESP,Soft Tissue Response,RECIST 1.1,PR,PR,INVESTIGATOR,12,WEEK 24,2014-06-18,168
8,CDISCPILOT01,RS,01-701-1015,8,BONERESP,Bone Response,PCWG SCHER PROSTATE CANCER 2016,NON-PD,NON-PD,INVESTIGATOR,12,WEEK 24,2014-06-18,168
9,CDISCPILOT01,RS,01-701-1015,9,OVRLRESP,Overall Response,PCWG SCHER PROSTATE CANCER 2016,PR,PR,INVESTIGATOR,12,WEEK 24,2014-06-18,168
10,CDISCPILOT01,RS,01-701-1028,1,SFTSRESP,Soft Tissue Response,RECIST 1.1,PR,PR,INVESTIGATOR,8,WEEK 8,2013-09-10,54
11,CDISCPILOT01,RS,01-701-1028,2,BONERESP,Bone Response,PCWG SCHER PROSTATE CANCER 2016,NON-PD,NON-PD,INVESTIGATOR,8,WEEK 8,2013-09-10,54
12,CDISCPILOT01,RS,01-701-1028,3,OVRLRESP,Overall Response,PCWG SCHER PROSTATE CANCER 2016,PR,PR,INVESTIGATOR,8,WEEK 8,2013-09-10,54
13,CDISCPILOT01,RS,01-701-1028,4,SFTSRESP,Soft Tissue Response,RECIST 1.1,PR,PR,INVESTIGATOR,10,WEEK 16,2013-11-06,111
14,CDISCPILOT01,RS,01-701-1028,5,BONERESP,Bone Response,PCWG SCHER PROSTATE CANCER 2016,NON-PD,NON-PD,INVESTIGATOR,10,WEEK 16,2013-11-06,111
15,CDISCPILOT01,RS,01-701-1028,6,OVRLRESP,Overall Response,PCWG SCHER PROSTATE CANCER 2016,PR,PR,INVESTIGATOR,10,WEEK 16,2013-11-06,111
16,CDISCPILOT01,RS,01-701-1028,7,SFTSRESP,Soft Tissue Response,RECIST 1.1,PD,PD,INVESTIGATOR,12,WEEK 24,2014-01-06,172
17,CDISCPILOT01,RS,01-701-1028,8,BONERESP,Bone Response,PCWG SCHER PROSTATE CANCER 2016,NON-PD,NON-PD,INVESTIGATOR,12,WEEK 24,2014-01-06,172
18,CDISCPILOT01,RS,01-701-1028,9,OVRLRESP,Overall Response,PCWG SCHER PROSTATE CANCER 2016,PD,PD,INVESTIGATOR,12,WEEK 24,2014-01-06,172
19,CDISCPILOT01,RS,01-701-1034,1,SFTSRESP,Soft Tissue Response,RECIST 1.1,SD,SD,INVESTIGATOR,8,WEEK 8,2014-08-26,57
20,CDISCPILOT01,RS,01-701-1034,2,BONERESP,Bone Response,PCWG SCHER PROSTATE CANCER 2016,NON-PD,NON-PD,INVESTIGATOR,8,WEEK 8,2014-08-26,57
21,CDISCPILOT01,RS,01-701-1034,3,OVRLRESP,Overall Response,PCWG SCHER PROSTATE CANCER 2016,SD,SD,INVESTIGATOR,8,WEEK 8,2014-08-26,57
22,CDISCPILOT01,RS,01-701-1034,4,SFTSRESP,Soft Tissue Response,RECIST 1.1,SD,SD,INVESTIGATOR,10,WEEK 16,2014-10-21,113
23,CDISCPILOT01,RS,01-701-1034,5,BONERESP,Bone Response,PCWG SCHER PROSTATE CANCER 2016,NON-PD,NON-PD,INVESTIGATOR,10,WEEK 16,2014-10-21,113
24,CDISCPILOT01,RS,01-701-1034,6,OVRLRESP,Overall Response,PCWG SCHER PROSTATE CANCER 2016,SD,SD,INVESTIGATOR,10,WEEK 16,2014-10-21,113
25,CDISCPILOT01,RS,01-701-1034,7,SFTSRESP,Soft Tissue Response,RECIST 1.1,SD,SD,INVESTIGATOR,12,WEEK 24,2014-12-17,170
26,CDISCPILOT01,RS,01-701-1034,8,BONERESP,Bone Response,PCWG SCHER PROSTATE CANCER 2016,NON-PD,NON-PD,INVESTIGATOR,12,WEEK 24,2014-12-17,170
27,CDISCPILOT01,RS,01-701-1034,9,OVRLRESP,Overall Response,PCWG SCHER PROSTATE CANCER 2016,SD,SD,INVESTIGATOR,12,WEEK 24,2014-12-17,170
28,CDISCPILOT01,RS,01-701-1097,1,SFTSRESP,Soft Tissue Response,RECIST 1.1,SD,SD,INVESTIGATOR,8,WEEK 8,2014-02-26,57
29,CDISCPILOT01,RS,01-701-1097,2,BONERESP,Bone Response,PCWG SCHER PROSTATE CANCER 2016,NON-PD,NON-PD,INVESTIGATOR,8,WEEK 8,2014-02-26,57
30,CDISCPILOT01,RS,01-701-1097,3,OVRLRESP,Overall Response,PCWG SCHER PROSTATE CANCER 2016,SD,SD,INVESTIGATOR,8,WEEK 8,2014-02-26,57
31,CDISCPILOT01,RS,01-701-1097,4,SFTSRESP,Soft Tissue Response,RECIST 1.1,PR,PR,INVESTIGATOR,10,WEEK 16,2014-04-23,113
32,CDISCPILOT01,RS,01-701-1097,5,BONERESP,Bone Response,PCWG SCHER PROSTATE CANCER 2016,PD,PD,INVESTIGATOR,10,WEEK 16,2014-04-23,113
33,CDISCPILOT01,RS,01-701-1097,6,OVRLRESP,Overall Response,PCWG SCHER PROSTATE CANCER 2016,PD,PD,INVESTIGATOR,10,WEEK 16,2014-04-23,113
34,CDISCPILOT01,RS,01-701-1097,7,SFTSRESP,Soft Tissue Response,RECIST 1.1,PR,PR,INVESTIGATOR,12,WEEK 24,2014-06-18,169
35,CDISCPILOT01,RS,01-701-1097,8,BONERESP,Bone Response,PCWG SCHER PROSTATE CANCER 2016,PD,PD,INVESTIGATOR,12,WEEK 24,2014-06-18,169
36,CDISCPILOT01,RS,01-701-1097,9,OVRLRESP,Overall Response,PCWG SCHER PROSTATE CANCER 2016,PD,PD,INVESTIGATOR,12,WEEK 24,2014-06-18,169
37,CDISCPILOT01,RS,01-701-1115,1,SFTSRESP,Soft Tissue Response,RECIST 1.1,NED,NED,INVESTIGATOR,8,WEEK 8,2013-01-23,55
38,CDISCPILOT01,RS,01-701-1115,2,BONERESP,Bone Response,PCWG SCHER PROSTATE CANCER 2016,PDu,PDu,INVESTIGATOR,8,WEEK 8,2013-01-23,55
39,CDISCPILOT01,RS,01-701-1115,3,OVRLRESP,Overall Response,PCWG SCHER PROSTATE CANCER 2016,PDu,PDu,INVESTIGATOR,8,WEEK 8,2013-01-23,55
40,CDISCPILOT01,RS,01-701-1118,1,SFTSRESP,Soft Tissue Response,RECIST 1.1,CR,CR,INVESTIGATOR,8,WEEK 8,2014-05-08,58
41,CDISCPILOT01,RS,01-701-1118,2,BONERESP,Bone Response,PCWG SCHER PROSTATE CANCER 2016,NED,NED,INVESTIGATOR,8,WEEK 8,2014-05-08,58
42,CDISCPILOT01,RS,01-701-1118,3,OVRLRESP,Overall Response,PCWG SCHER PROSTATE CANCER 2016,CR,CR,INVESTIGATOR,8,WEEK 8,2014-05-08,58
43,CDISCPILOT01,RS,01-701-1118,4,SFTSRESP,Soft Tissue Response,RECIST 1.1,CR,CR,INVESTIGATOR,10,WEEK 16,2014-07-02,113
44,CDISCPILOT01,RS,01-701-1118,5,BONERESP,Bone Response,PCWG SCHER PROSTATE CANCER 2016,NED,NED,INVESTIGATOR,10,WEEK 16,2014-07-02,113
45,CDISCPILOT01,RS,01-701-1118,6,OVRLRESP,Overall Response,PCWG SCHER PROSTATE CANCER 2016,CR,CR,INVESTIGATOR,10,WEEK 16,2014-07-02,113
46,CDISCPILOT01,RS,01-701-1118,7,SFTSRESP,Soft Tissue Response,RECIST 1.1,CR,CR,INVESTIGATOR,12,WEEK 24,2014-08-27,169
47,CDISCPILOT01,RS,01-701-1118,8,BONERESP,Bone Response,PCWG SCHER PROSTATE CANCER 2016,NED,NED,INVESTIGATOR,12,WEEK 24,2014-08-27,169
48,CDISCPILOT01,RS,01-701-1118,9,OVRLRESP,Overall Response,PCWG SCHER PROSTATE CANCER 2016,CR,CR,INVESTIGATOR,12,WEEK 24,2014-08-27,169
49,CDISCPILOT01,RS,01-701-1130,1,SFTSRESP,Soft Tissue Response,RECIST 1.1,PR,PR,INVESTIGATOR,8,WEEK 8,2014-04-12,57
50,CDISCPILOT01,RS,01-701-1130,2,BONERESP,Bone Response,PCWG SCHER PROSTATE CANCER 2016,NON-PD,NON-PD,INVESTIGATOR,8,WEEK 8,2014-04-12,57
51,CDISCPILOT01,RS,01-701-1130,3,OVRLRESP,Overall Response,PCWG SCHER PROSTATE CANCER 2016,PR,PR,INVESTIGATOR,8,WEEK 8,2014-04-12,57
52,CDISCPILOT01,RS,01-701-1130,4,SFTSRESP,Soft Tissue Response,RECIST 1.1,PR,PR,INVESTIGATOR,10,WEEK 16,2014-06-07,113
53,CDISCPILOT01,RS,01-701-1130,5,BONERESP,Bone Response,PCWG SCHER PROSTATE CANCER 2016,NON-PD,NON-PD,INVESTIGATOR,10,WEEK 16,2014-06-07,113
54,CDISCPILOT01,RS,01-701-1130,6,OVRLRESP,Overall Response,PCWG SCHER PROSTATE CANCER 2016,PR,PR,INVESTIGATOR,10,WEEK 16,2014-06-07,113
55,CDISCPILOT01,RS,01-701-1130,7,SFTSRESP,Soft Tissue Response,RECIST 1.1,PD,PD,INVESTIGATOR,12,WEEK 24,2014-08-02,169
56,CDISCPILOT01,RS,01-701-1130,8,BONERESP,Bone Response,PCWG SCHER PROSTATE CANCER 2016,NON-PD,NON-PD,INVESTIGATOR,12,WEEK 24,2014-08-02,169
57,CDISCPILOT01,RS,01-701-1130,9,OVRLRESP,Overall Response,PCWG SCHER PROSTATE CANCER 2016,PD,PD,INVESTIGATOR,12,WEEK 24,2014-08-02,169
58,CDISCPILOT01,RS,01-701-1133,1,SFTSRESP,Soft Tissue Response,RECIST 1.1,NE,NE,INVESTIGATOR,8,WEEK 8,2012-12-24,58
59,CDISCPILOT01,RS,01-701-1133,2,BONERESP,Bone Response,PCWG SCHER PROSTATE CANCER 2016,NE,NE,INVESTIGATOR,8,WEEK 8,2012-12-24,58
60,CDISCPILOT01,RS,01-701-1133,3,OVRLRESP,Overall Response,PCWG SCHER PROSTATE CANCER 2016,NE,NE,INVESTIGATOR,8,WEEK 8,2012-12-24,58
61,CDISCPILOT01,RS,01-701-1133,4,SFTSRESP,Soft Tissue Response,RECIST 1.1,SD,SD,INVESTIGATOR,10,WEEK 16,2013-02-18,114
62,CDISCPILOT01,RS,01-701-1133,5,BONERESP,Bone Response,PCWG SCHER PROSTATE CANCER 2016,NON-PD,NON-PD,INVESTIGATOR,10,WEEK 16,2013-02-18,114
63,CDISCPILOT01,RS,01-701-1133,6,OVRLRESP,Overall Response,PCWG SCHER PROSTATE CANCER 2016,SD,SD,INVESTIGATOR,10,WEEK 16,2013-02-18,114
64,CDISCPILOT01,RS,01-701-1133,7,SFTSRESP,Soft Tissue Response,RECIST 1.1,SD,SD,INVESTIGATOR,12,WEEK 24,2013-04-18,173
65,CDISCPILOT01,RS,01-701-1133,8,BONERESP,Bone Response,PCWG SCHER PROSTATE CANCER 2016,NON-PD,NON-PD,INVESTIGATOR,12,WEEK 24,2013-04-18,173
66,CDISCPILOT01,RS,01-701-1133,9,OVRLRESP,Overall Response,PCWG SCHER PROSTATE CANCER 2016,SD,SD,INVESTIGATOR,12,WEEK 24,2013-04-18,173
67,CDISCPILOT01,RS,01-701-1148,1,SFTSRESP,Soft Tissue Response,RECIST 1.1,PR,PR,INVESTIGATOR,8,WEEK 8,2013-10-18,57
68,CDISCPILOT01,RS,01-701-1148,2,BONERESP,Bone Response,PCWG SCHER PROSTATE CANCER 2016,NE,NE,INVESTIGATOR,8,WEEK 8,2013-10-18,57
69,CDISCPILOT01,RS,01-701-1148,3,OVRLRESP,Overall Response,PCWG SCHER PROSTATE CANCER 2016,PR,PR,INVESTIGATOR,8,WEEK 8,2013-10-18,57
70,CDISCPILOT01,RS,01-701-1148,4,SFTSRESP,Soft Tissue Response,RECIST 1.1,PR,PR,INVESTIGATOR,10,WEEK 16,2013-12-13,113
71,CDISCPILOT01,RS,01-701-1148,5,BONERESP,Bone Response,PCWG SCHER PROSTATE CANCER 2016,NE,NE,INVESTIGATOR,10,WEEK 16,2013-12-13,113
72,CDISCPILOT01,RS,01-701-1148,6,OVRLRESP,Overall Response,PCWG SCHER PROSTATE CANCER 2016,PR,PR,INVESTIGATOR,10,WEEK 16,2013-12-13,113
73,CDISCPILOT01,RS,01-701-1148,7,SFTSRESP,Soft Tissue Response,RECIST 1.1,PR,PR,INVESTIGATOR,12,WEEK 24,2014-02-08,170
74,CDISCPILOT01,RS,01-701-1148,8,BONERESP,Bone Response,PCWG SCHER PROSTATE CANCER 2016,NE,NE,INVESTIGATOR,12,WEEK 24,2014-02-08,170
75,CDISCPILOT01,RS,01-701-1148,9,OVRLRESP,Overall Response,PCWG SCHER PROSTATE CANCER 2016,PR,PR,INVESTIGATOR,12,WEEK 24,2014-02-08,170
76,CDISCPILOT01,RS,01-701-1153,1,SFTSRESP,Soft Tissue Response,RECIST 1.1,SD,SD,INVESTIGATOR,8,WEEK 8,2013-11-18,57
77,CDISCPILOT01,RS,01-701-1153,2,BONERESP,Bone Response,PCWG SCHER PROSTATE CANCER 2016,NED,NED,INVESTIGATOR,8,WEEK 8,2013-11-18,57
78,CDISCPILOT01,RS,01-701-1153,3,OVRLRESP,Overall Response,PCWG SCHER PROSTATE CANCER 2016,SD,SD,INVESTIGATOR,8,WEEK 8,2013-11-18,57
79,CDISCPILOT01,RS,01-701-1153,4,SFTSRESP,Soft Tissue Response,RECIST 1.1,SD,SD,INVESTIGATOR,10,WEEK 16,2014-01-08,108
80,CDISCPILOT01,RS,01-701-1153,5,BONERESP,Bone Response,PCWG SCHER PROSTATE CANCER 2016,NED,NED,INVESTIGATOR,10,WEEK 16,2014-01-08,108
81,CDISCPILOT01,RS,01-701-1153,6,OVRLRESP,Overall Response,PCWG SCHER PROSTATE CANCER 2016,SD,SD,INVESTIGATOR,10,WEEK 16,2014-01-08,108
82,CDISCPILOT01,RS,01-701-1153,7,SFTSRESP,Soft Tissue Response,RECIST 1.1,SD,SD,INVESTIGATOR,12,WEEK 24,2014-03-11,170
83,CDISCPILOT01,RS,01-701-1153,8,BONERESP,Bone Response,PCWG SCHER PROSTATE CANCER 2016,NED,NED,INVESTIGATOR,12,WEEK 24,2014-03-11,170
84,CDISCPILOT01,RS,01-701-1153,9,OVRLRESP,Overall Response,PCWG SCHER PROSTATE CANCER 2016,SD,SD,INVESTIGATOR,12,WEEK 24,2014-03-11,170
85,CDISCPILOT01,RS,01-701-1275,1,SFTSRESP,Soft Tissue Response,RECIST 1.1,SD,SD,INVESTIGATOR,8,WEEK 8,2014-04-05,58
86,CDISCPILOT01,RS,01-701-1275,2,BONERESP,Bone Response,PCWG SCHER PROSTATE CANCER 2016,PD,PD,INVESTIGATOR,8,WEEK 8,2014-04-05,58
87,CDISCPILOT01,RS,01-701-1275,3,OVRLRESP,Overall Response,PCWG SCHER PROSTATE CANCER 2016,PD,PD,INVESTIGATOR,8,WEEK 8,2014-04-05,58
88,CDISCPILOT01,RS,01-701-1275,4,SFTSRESP,Soft Tissue Response,RECIST 1.1,SD,SD,INVESTIGATOR,10,WEEK 16,2014-06-14,128
89,CDISCPILOT01,RS,01-701-1275,5,BONERESP,Bone Response,PCWG SCHER PROSTATE CANCER 2016,PD,PD,INVESTIGATOR,10,WEEK 16,2014-06-14,128
90,CDISCPILOT01,RS,01-701-1275,6,OVRLRESP,Overall Response,PCWG SCHER PROSTATE CANCER 2016,PD,PD,INVESTIGATOR,10,WEEK 16,2014-06-14,128
