rownames,STUDYID,USUBJID,RDOMAIN,IDVAR,IDVARVAL,QNAM,QVAL,QLABEL,QORIG
1,ABC,ABC-1001,CE,CESEQ,1,CEEVAL,STUDY SUBJECT,Evaluator,ASSIGNED
2,ABC,ABC-1001,CE,CESEQ,2,CEEVAL,STUDY SUBJECT,Evaluator,ASSIGNED
3,ABC,ABC-1002,CE,CESEQ,1,CEEVAL,STUDY SUBJECT,Evaluator,ASSIGNED
4,ABC,ABC-1002,CE,CESEQ,2,CEEVAL,STUDY SUBJECT,Evaluator,ASSIGNED
