rownames,STUDYID,USUBJID,RDOMAIN,IDVAR,IDVARVAL,QNAM,QVAL,QLABEL,QORIG
1,ABC,ABC-1001,EX,EXSEQ,1,EXTDV,N,Temporary Delay of Vaccination,ASSIGNED
2,ABC,ABC-1001,EX,EXSEQ,2,EXTDV,Y,Temporary Delay of Vaccination,ASSIGNED
3,ABC,ABC-1002,EX,EXSEQ,1,EXTDV,N,Temporary Delay of Vaccination,ASSIGNED
4,ABC,ABC-1002,EX,EXSEQ,2,EXTDV,Y,Temporary Delay of Vaccination,ASSIGNED
