rownames,STUDYID,RDOMAIN,USUBJID,IDVAR,IDVARVAL,QNAM,QLABEL,QVAL,QORIG,QEVAL
1,ABC,IS,ABC-1001,ISSEQ,1,LOD,Limit of Detection,4,CRF,
2,ABC,IS,ABC-1001,ISSEQ,2,LOD,Limit of Detection,5,CRF,
3,ABC,IS,ABC-1001,ISSEQ,3,LOD,Limit of Detection,4,CRF,
4,ABC,IS,ABC-1001,ISSEQ,4,LOD,Limit of Detection,8,CRF,
5,ABC,IS,ABC-1001,ISSEQ,5,LOD,Limit of Detection,4,CRF,
6,ABC,IS,ABC-1001,ISSEQ,6,LOD,Limit of Detection,5,CRF,
7,ABC,IS,ABC-1001,ISSEQ,7,LOD,Limit of Detection,4,CRF,
8,ABC,IS,ABC-1001,ISSEQ,8,LOD,Limit of Detection,8,CRF,
9,ABC,IS,ABC-1002,ISSEQ,1,LOD,Limit of Detection,4,CRF,
10,ABC,IS,ABC-1002,ISSEQ,2,LOD,Limit of Detection,5,CRF,
11,ABC,IS,ABC-1002,ISSEQ,3,LOD,Limit of Detection,4,CRF,
12,ABC,IS,ABC-1002,ISSEQ,4,LOD,Limit of Detection,8,CRF,
13,ABC,IS,ABC-1002,ISSEQ,5,LOD,Limit of Detection,4,CRF,
14,ABC,IS,ABC-1002,ISSEQ,6,LOD,Limit of Detection,5,CRF,
15,ABC,IS,ABC-1002,ISSEQ,7,LOD,Limit of Detection,4,CRF,
16,ABC,IS,ABC-1002,ISSEQ,8,LOD,Limit of Detection,8,CRF,
