rownames,STUDYID,USUBJID,RDOMAIN,IDVAR,IDVARVAL,QNAM,QVAL,QLABEL,QORIG
1,ABC,ABC-1001,FACE,FASEQ,1,CLTYP,DAIRY,Collection Type,Predecessor
2,ABC,ABC-1001,FACE,FASEQ,2,CLTYP,DAIRY,Collection Type,Predecessor
3,ABC,ABC-1002,FACE,FASEQ,1,CLTYP,DAIRY,Collection Type,Predecessor
4,ABC,ABC-1002,FACE,FASEQ,2,CLTYP,DAIRY,Collection Type,Predecessor
