rownames,STUDYID,RDOMAIN,USUBJID,IDVAR,IDVARVAL,QNAM,QLABEL,QVAL,QORIG
1,CDISCPILOT01,RS,01-701-1133,RSSEQ,3,CA125EFL,CA-125 response evaluable,Y,CRF
2,CDISCPILOT01,RS,01-701-1133,RSSEQ,6,CA125EFL,CA-125 response evaluable,Y,CRF
3,CDISCPILOT01,RS,01-701-1133,RSSEQ,9,CA125EFL,CA-125 response evaluable,Y,CRF
4,CDISCPILOT01,RS,01-701-1133,RSSEQ,3,CAELEPRE,Elevated pre-treatment CA-125,Y,CRF
5,CDISCPILOT01,RS,01-701-1133,RSSEQ,6,CAELEPRE,Elevated pre-treatment CA-125,Y,CRF
6,CDISCPILOT01,RS,01-701-1133,RSSEQ,9,CAELEPRE,Elevated pre-treatment CA-125,Y,CRF
7,CDISCPILOT01,RS,01-701-1133,RSSEQ,3,CA50RED,>=50% reduction from baseline,Y,CRF
8,CDISCPILOT01,RS,01-701-1133,RSSEQ,6,CANORM2X,"CA125 normal, lab increased >=2x ULRR",Y,CRF
9,CDISCPILOT01,RS,01-701-1133,RSSEQ,9,CANORM2X,"CA125 normal, lab increased >=2x ULRR",Y,CRF
10,CDISCPILOT01,RS,01-701-1130,RSSEQ,3,CA125EFL,CA-125 response evaluable,Y,CRF
11,CDISCPILOT01,RS,01-701-1130,RSSEQ,6,CA125EFL,CA-125 response evaluable,Y,CRF
12,CDISCPILOT01,RS,01-701-1130,RSSEQ,9,CA125EFL,CA-125 response evaluable,Y,CRF
13,CDISCPILOT01,RS,01-701-1130,RSSEQ,3,CAELEPRE,Elevated pre-treatment CA-125,Y,CRF
14,CDISCPILOT01,RS,01-701-1130,RSSEQ,6,CAELEPRE,Elevated pre-treatment CA-125,Y,CRF
15,CDISCPILOT01,RS,01-701-1130,RSSEQ,9,CAELEPRE,Elevated pre-treatment CA-125,Y,CRF
16,CDISCPILOT01,RS,01-701-1130,RSSEQ,6,CNOTNORM,"CA125 not norm, lab increased >=2x nadir",Y,CRF
17,CDISCPILOT01,RS,01-701-1130,RSSEQ,9,CNOTNORM,"CA125 not norm, lab increased >=2x nadir",Y,CRF
18,CDISCPILOT01,RS,01-701-1028,RSSEQ,3,CA125EFL,CA-125 response evaluable,N,CRF
19,CDISCPILOT01,RS,01-701-1028,RSSEQ,6,CA125EFL,CA-125 response evaluable,N,CRF
20,CDISCPILOT01,RS,01-701-1028,RSSEQ,9,CA125EFL,CA-125 response evaluable,N,CRF
21,CDISCPILOT01,RS,01-701-1028,RSSEQ,3,CAELEPRE,Elevated pre-treatment CA-125,N,CRF
22,CDISCPILOT01,RS,01-701-1028,RSSEQ,6,CAELEPRE,Elevated pre-treatment CA-125,N,CRF
23,CDISCPILOT01,RS,01-701-1028,RSSEQ,9,CAELEPRE,Elevated pre-treatment CA-125,N,CRF
24,CDISCPILOT01,RS,01-701-1028,RSSEQ,3,CANORM2X,"CA125 normal, lab increased >=2x ULRR",Y,CRF
25,CDISCPILOT01,RS,01-701-1028,RSSEQ,6,CANORM2X,"CA125 normal, lab increased >=2x ULRR",Y,CRF
26,CDISCPILOT01,RS,01-701-1028,RSSEQ,9,CANORM2X,"CA125 normal, lab increased >=2x ULRR",Y,CRF
27,CDISCPILOT01,RS,01-701-1034,RSSEQ,3,CA125EFL,CA-125 response evaluable,Y,CRF
28,CDISCPILOT01,RS,01-701-1034,RSSEQ,6,CA125EFL,CA-125 response evaluable,Y,CRF
29,CDISCPILOT01,RS,01-701-1034,RSSEQ,3,CA50RED,>=50% reduction from baseline,Y,CRF
30,CDISCPILOT01,RS,01-701-1034,RSSEQ,6,CA50RED,>=50% reduction from baseline,Y,CRF
31,CDISCPILOT01,RS,01-701-1097,RSSEQ,3,CA125EFL,CA-125 response evaluable,Y,CRF
32,CDISCPILOT01,RS,01-701-1015,RSSEQ,3,CA125EFL,CA-125 response evaluable,Y,CRF
33,CDISCPILOT01,RS,01-701-1015,RSSEQ,6,CA125EFL,CA-125 response evaluable,Y,CRF
34,CDISCPILOT01,RS,01-701-1015,RSSEQ,9,CA125EFL,CA-125 response evaluable,Y,CRF
35,CDISCPILOT01,RS,01-701-1015,RSSEQ,9,CA50RED,>=50% reduction from baseline,Y,CRF
36,CDISCPILOT01,RS,01-701-1015,RSSEQ,6,MOUSEANT,Received mouse antibodies,Y,CRF
37,CDISCPILOT01,RS,01-701-1015,RSSEQ,24,MOUSEANT,Received mouse antibodies,Y,CRF
38,CDISCPILOT01,RS,01-701-1115,RSSEQ,3,CA125EFL,CA-125 response evaluable,Y,CRF
39,CDISCPILOT01,RS,01-701-1115,RSSEQ,6,CA125EFL,CA-125 response evaluable,Y,CRF
40,CDISCPILOT01,RS,01-701-1115,RSSEQ,9,CA125EFL,CA-125 response evaluable,Y,CRF
41,CDISCPILOT01,RS,01-701-1115,RSSEQ,3,CA50RED,>=50% reduction from baseline,Y,CRF
42,CDISCPILOT01,RS,01-701-1115,RSSEQ,6,CA50RED,>=50% reduction from baseline,Y,CRF
43,CDISCPILOT01,RS,01-701-1115,RSSEQ,9,CA50RED,>=50% reduction from baseline,Y,CRF
44,CDISCPILOT01,RS,01-701-1118,RSSEQ,3,CA125EFL,CA-125 response evaluable,Y,CRF
45,CDISCPILOT01,RS,01-701-1118,RSSEQ,6,CA125EFL,CA-125 response evaluable,Y,CRF
46,CDISCPILOT01,RS,01-701-1118,RSSEQ,9,CA125EFL,CA-125 response evaluable,Y,CRF
47,CDISCPILOT01,RS,01-701-1118,RSSEQ,12,CA125EFL,CA-125 response evaluable,Y,CRF
48,CDISCPILOT01,RS,01-701-1118,RSSEQ,6,CA50RED,>=50% reduction from baseline,Y,CRF
49,CDISCPILOT01,RS,01-701-1118,RSSEQ,12,CA50RED,>=50% reduction from baseline,Y,CRF
