rownames,STUDYID,RDOMAIN,USUBJID,IDVAR,IDVARVAL,QNAM,QLABEL,QVAL,QORIG,QEVAL
1,CDISCPILOT01,DM,01-701-1015,,,COMPLT16,Completers of Week 16 Population Flag,Y,DERIVED,CLINICAL STUDY SPONSOR
2,CDISCPILOT01,DM,01-701-1015,,,COMPLT24,Completers of Week 24 Population Flag,Y,DERIVED,CLINICAL STUDY SPONSOR
3,CDISCPILOT01,DM,01-701-1015,,,COMPLT8,Completers of Week 8 Population Flag,Y,DERIVED,CLINICAL STUDY SPONSOR
4,CDISCPILOT01,DM,01-701-1015,,,EFFICACY,Efficacy Population Flag,Y,DERIVED,CLINICAL STUDY SPONSOR
5,CDISCPILOT01,DM,01-701-1015,,,ITT,Intent to Treat Population Flag,Y,DERIVED,CLINICAL STUDY SPONSOR
6,CDISCPILOT01,DM,01-701-1015,,,SAFETY,Safety Population Flag,Y,DERIVED,CLINICAL STUDY SPONSOR
7,CDISCPILOT01,DM,01-701-1023,,,EFFICACY,Efficacy Population Flag,Y,DERIVED,CLINICAL STUDY SPONSOR
8,CDISCPILOT01,DM,01-701-1023,,,ITT,Intent to Treat Population Flag,Y,DERIVED,CLINICAL STUDY SPONSOR
9,CDISCPILOT01,DM,01-701-1023,,,SAFETY,Safety Population Flag,Y,DERIVED,CLINICAL STUDY SPONSOR
10,CDISCPILOT01,DM,01-701-1028,,,COMPLT16,Completers of Week 16 Population Flag,Y,DERIVED,CLINICAL STUDY SPONSOR
11,CDISCPILOT01,DM,01-701-1028,,,COMPLT24,Completers of Week 24 Population Flag,Y,DERIVED,CLINICAL STUDY SPONSOR
12,CDISCPILOT01,DM,01-701-1028,,,COMPLT8,Completers of Week 8 Population Flag,Y,DERIVED,CLINICAL STUDY SPONSOR
13,CDISCPILOT01,DM,01-701-1028,,,EFFICACY,Efficacy Population Flag,Y,DERIVED,CLINICAL STUDY SPONSOR
14,CDISCPILOT01,DM,01-701-1028,,,ITT,Intent to Treat Population Flag,Y,DERIVED,CLINICAL STUDY SPONSOR
15,CDISCPILOT01,DM,01-701-1028,,,SAFETY,Safety Population Flag,Y,DERIVED,CLINICAL STUDY SPONSOR
16,CDISCPILOT01,DM,01-701-1033,,,EFFICACY,Efficacy Population Flag,Y,DERIVED,CLINICAL STUDY SPONSOR
17,CDISCPILOT01,DM,01-701-1033,,,ITT,Intent to Treat Population Flag,Y,DERIVED,CLINICAL STUDY SPONSOR
18,CDISCPILOT01,DM,01-701-1033,,,SAFETY,Safety Population Flag,Y,DERIVED,CLINICAL STUDY SPONSOR
19,CDISCPILOT01,DM,01-701-1034,,,COMPLT16,Completers of Week 16 Population Flag,Y,DERIVED,CLINICAL STUDY SPONSOR
20,CDISCPILOT01,DM,01-701-1034,,,COMPLT24,Completers of Week 24 Population Flag,Y,DERIVED,CLINICAL STUDY SPONSOR
21,CDISCPILOT01,DM,01-701-1034,,,COMPLT8,Completers of Week 8 Population Flag,Y,DERIVED,CLINICAL STUDY SPONSOR
22,CDISCPILOT01,DM,01-701-1034,,,EFFICACY,Efficacy Population Flag,Y,DERIVED,CLINICAL STUDY SPONSOR
23,CDISCPILOT01,DM,01-701-1034,,,ITT,Intent to Treat Population Flag,Y,DERIVED,CLINICAL STUDY SPONSOR
24,CDISCPILOT01,DM,01-701-1034,,,SAFETY,Safety Population Flag,Y,DERIVED,CLINICAL STUDY SPONSOR
25,CDISCPILOT01,DM,01-701-1047,,,EFFICACY,Efficacy Population Flag,Y,DERIVED,CLINICAL STUDY SPONSOR
26,CDISCPILOT01,DM,01-701-1047,,,ITT,Intent to Treat Population Flag,Y,DERIVED,CLINICAL STUDY SPONSOR
27,CDISCPILOT01,DM,01-701-1047,,,SAFETY,Safety Population Flag,Y,DERIVED,CLINICAL STUDY SPONSOR
28,CDISCPILOT01,DM,01-701-1097,,,COMPLT16,Completers of Week 16 Population Flag,Y,DERIVED,CLINICAL STUDY SPONSOR
29,CDISCPILOT01,DM,01-701-1097,,,COMPLT24,Completers of Week 24 Population Flag,Y,DERIVED,CLINICAL STUDY SPONSOR
30,CDISCPILOT01,DM,01-701-1097,,,COMPLT8,Completers of Week 8 Population Flag,Y,DERIVED,CLINICAL STUDY SPONSOR
31,CDISCPILOT01,DM,01-701-1097,,,EFFICACY,Efficacy Population Flag,Y,DERIVED,CLINICAL STUDY SPONSOR
32,CDISCPILOT01,DM,01-701-1097,,,ITT,Intent to Treat Population Flag,Y,DERIVED,CLINICAL STUDY SPONSOR
33,CDISCPILOT01,DM,01-701-1097,,,SAFETY,Safety Population Flag,Y,DERIVED,CLINICAL STUDY SPONSOR
34,CDISCPILOT01,DM,01-701-1111,,,EFFICACY,Efficacy Population Flag,Y,DERIVED,CLINICAL STUDY SPONSOR
35,CDISCPILOT01,DM,01-701-1111,,,ITT,Intent to Treat Population Flag,Y,DERIVED,CLINICAL STUDY SPONSOR
36,CDISCPILOT01,DM,01-701-1111,,,SAFETY,Safety Population Flag,Y,DERIVED,CLINICAL STUDY SPONSOR
37,CDISCPILOT01,DM,01-701-1115,,,COMPLT8,Completers of Week 8 Population Flag,Y,DERIVED,CLINICAL STUDY SPONSOR
38,CDISCPILOT01,DM,01-701-1115,,,EFFICACY,Efficacy Population Flag,Y,DERIVED,CLINICAL STUDY SPONSOR
39,CDISCPILOT01,DM,01-701-1115,,,ITT,Intent to Treat Population Flag,Y,DERIVED,CLINICAL STUDY SPONSOR
40,CDISCPILOT01,DM,01-701-1115,,,SAFETY,Safety Population Flag,Y,DERIVED,CLINICAL STUDY SPONSOR
41,CDISCPILOT01,DM,01-701-1118,,,COMPLT16,Completers of Week 16 Population Flag,Y,DERIVED,CLINICAL STUDY SPONSOR
42,CDISCPILOT01,DM,01-701-1118,,,COMPLT24,Completers of Week 24 Population Flag,Y,DERIVED,CLINICAL STUDY SPONSOR
43,CDISCPILOT01,DM,01-701-1118,,,COMPLT8,Completers of Week 8 Population Flag,Y,DERIVED,CLINICAL STUDY SPONSOR
44,CDISCPILOT01,DM,01-701-1118,,,EFFICACY,Efficacy Population Flag,Y,DERIVED,CLINICAL STUDY SPONSOR
45,CDISCPILOT01,DM,01-701-1118,,,ITT,Intent to Treat Population Flag,Y,DERIVED,CLINICAL STUDY SPONSOR
46,CDISCPILOT01,DM,01-701-1118,,,SAFETY,Safety Population Flag,Y,DERIVED,CLINICAL STUDY SPONSOR
47,CDISCPILOT01,DM,01-701-1130,,,COMPLT16,Completers of Week 16 Population Flag,Y,DERIVED,CLINICAL STUDY SPONSOR
48,CDISCPILOT01,DM,01-701-1130,,,COMPLT24,Completers of Week 24 Population Flag,Y,DERIVED,CLINICAL STUDY SPONSOR
49,CDISCPILOT01,DM,01-701-1130,,,COMPLT8,Completers of Week 8 Population Flag,Y,DERIVED,CLINICAL STUDY SPONSOR
50,CDISCPILOT01,DM,01-701-1130,,,EFFICACY,Efficacy Population Flag,Y,DERIVED,CLINICAL STUDY SPONSOR
51,CDISCPILOT01,DM,01-701-1130,,,ITT,Intent to Treat Population Flag,Y,DERIVED,CLINICAL STUDY SPONSOR
52,CDISCPILOT01,DM,01-701-1130,,,SAFETY,Safety Population Flag,Y,DERIVED,CLINICAL STUDY SPONSOR
53,CDISCPILOT01,DM,01-701-1133,,,COMPLT16,Completers of Week 16 Population Flag,Y,DERIVED,CLINICAL STUDY SPONSOR
54,CDISCPILOT01,DM,01-701-1133,,,COMPLT24,Completers of Week 24 Population Flag,Y,DERIVED,CLINICAL STUDY SPONSOR
55,CDISCPILOT01,DM,01-701-1133,,,COMPLT8,Completers of Week 8 Population Flag,Y,DERIVED,CLINICAL STUDY SPONSOR
56,CDISCPILOT01,DM,01-701-1133,,,EFFICACY,Efficacy Population Flag,Y,DERIVED,CLINICAL STUDY SPONSOR
57,CDISCPILOT01,DM,01-701-1133,,,ITT,Intent to Treat Population Flag,Y,DERIVED,CLINICAL STUDY SPONSOR
58,CDISCPILOT01,DM,01-701-1133,,,SAFETY,Safety Population Flag,Y,DERIVED,CLINICAL STUDY SPONSOR
59,CDISCPILOT01,DM,01-701-1146,,,EFFICACY,Efficacy Population Flag,Y,DERIVED,CLINICAL STUDY SPONSOR
60,CDISCPILOT01,DM,01-701-1146,,,ITT,Intent to Treat Population Flag,Y,DERIVED,CLINICAL STUDY SPONSOR
61,CDISCPILOT01,DM,01-701-1146,,,SAFETY,Safety Population Flag,Y,DERIVED,CLINICAL STUDY SPONSOR
62,CDISCPILOT01,DM,01-701-1148,,,COMPLT16,Completers of Week 16 Population Flag,Y,DERIVED,CLINICAL STUDY SPONSOR
63,CDISCPILOT01,DM,01-701-1148,,,COMPLT24,Completers of Week 24 Population Flag,Y,DERIVED,CLINICAL STUDY SPONSOR
64,CDISCPILOT01,DM,01-701-1148,,,COMPLT8,Completers of Week 8 Population Flag,Y,DERIVED,CLINICAL STUDY SPONSOR
65,CDISCPILOT01,DM,01-701-1148,,,EFFICACY,Efficacy Population Flag,Y,DERIVED,CLINICAL STUDY SPONSOR
66,CDISCPILOT01,DM,01-701-1148,,,ITT,Intent to Treat Population Flag,Y,DERIVED,CLINICAL STUDY SPONSOR
67,CDISCPILOT01,DM,01-701-1148,,,SAFETY,Safety Population Flag,Y,DERIVED,CLINICAL STUDY SPONSOR
68,CDISCPILOT01,DM,01-701-1153,,,COMPLT16,Completers of Week 16 Population Flag,Y,DERIVED,CLINICAL STUDY SPONSOR
69,CDISCPILOT01,DM,01-701-1153,,,COMPLT24,Completers of Week 24 Population Flag,Y,DERIVED,CLINICAL STUDY SPONSOR
70,CDISCPILOT01,DM,01-701-1153,,,COMPLT8,Completers of Week 8 Population Flag,Y,DERIVED,CLINICAL STUDY SPONSOR
71,CDISCPILOT01,DM,01-701-1153,,,EFFICACY,Efficacy Population Flag,Y,DERIVED,CLINICAL STUDY SPONSOR
72,CDISCPILOT01,DM,01-701-1153,,,ITT,Intent to Treat Population Flag,Y,DERIVED,CLINICAL STUDY SPONSOR
73,CDISCPILOT01,DM,01-701-1153,,,SAFETY,Safety Population Flag,Y,DERIVED,CLINICAL STUDY SPONSOR
74,CDISCPILOT01,DM,01-701-1180,,,EFFICACY,Efficacy Population Flag,Y,DERIVED,CLINICAL STUDY SPONSOR
75,CDISCPILOT01,DM,01-701-1180,,,ITT,Intent to Treat Population Flag,Y,DERIVED,CLINICAL STUDY SPONSOR
76,CDISCPILOT01,DM,01-701-1180,,,SAFETY,Safety Population Flag,Y,DERIVED,CLINICAL STUDY SPONSOR
77,CDISCPILOT01,DM,01-701-1181,,,EFFICACY,Efficacy Population Flag,Y,DERIVED,CLINICAL STUDY SPONSOR
78,CDISCPILOT01,DM,01-701-1181,,,ITT,Intent to Treat Population Flag,Y,DERIVED,CLINICAL STUDY SPONSOR
79,CDISCPILOT01,DM,01-701-1181,,,SAFETY,Safety Population Flag,Y,DERIVED,CLINICAL STUDY SPONSOR
80,CDISCPILOT01,DM,01-701-1188,,,EFFICACY,Efficacy Population Flag,Y,DERIVED,CLINICAL STUDY SPONSOR
81,CDISCPILOT01,DM,01-701-1188,,,ITT,Intent to Treat Population Flag,Y,DERIVED,CLINICAL STUDY SPONSOR
82,CDISCPILOT01,DM,01-701-1188,,,SAFETY,Safety Population Flag,Y,DERIVED,CLINICAL STUDY SPONSOR
83,CDISCPILOT01,DM,01-701-1192,,,COMPLT16,Completers of Week 16 Population Flag,Y,DERIVED,CLINICAL STUDY SPONSOR
84,CDISCPILOT01,DM,01-701-1192,,,COMPLT24,Completers of Week 24 Population Flag,Y,DERIVED,CLINICAL STUDY SPONSOR
85,CDISCPILOT01,DM,01-701-1192,,,COMPLT8,Completers of Week 8 Population Flag,Y,DERIVED,CLINICAL STUDY SPONSOR
86,CDISCPILOT01,DM,01-701-1192,,,EFFICACY,Efficacy Population Flag,Y,DERIVED,CLINICAL STUDY SPONSOR
87,CDISCPILOT01,DM,01-701-1192,,,ITT,Intent to Treat Population Flag,Y,DERIVED,CLINICAL STUDY SPONSOR
88,CDISCPILOT01,DM,01-701-1192,,,SAFETY,Safety Population Flag,Y,DERIVED,CLINICAL STUDY SPONSOR
89,CDISCPILOT01,DM,01-701-1203,,,COMPLT16,Completers of Week 16 Population Flag,Y,DERIVED,CLINICAL STUDY SPONSOR
90,CDISCPILOT01,DM,01-701-1203,,,COMPLT24,Completers of Week 24 Population Flag,Y,DERIVED,CLINICAL STUDY SPONSOR
91,CDISCPILOT01,DM,01-701-1203,,,COMPLT8,Completers of Week 8 Population Flag,Y,DERIVED,CLINICAL STUDY SPONSOR
92,CDISCPILOT01,DM,01-701-1203,,,EFFICACY,Efficacy Population Flag,Y,DERIVED,CLINICAL STUDY SPONSOR
93,CDISCPILOT01,DM,01-701-1203,,,ITT,Intent to Treat Population Flag,Y,DERIVED,CLINICAL STUDY SPONSOR
94,CDISCPILOT01,DM,01-701-1203,,,SAFETY,Safety Population Flag,Y,DERIVED,CLINICAL STUDY SPONSOR
95,CDISCPILOT01,DM,01-701-1211,,,COMPLT8,Completers of Week 8 Population Flag,Y,DERIVED,CLINICAL STUDY SPONSOR
96,CDISCPILOT01,DM,01-701-1211,,,EFFICACY,Efficacy Population Flag,Y,DERIVED,CLINICAL STUDY SPONSOR
97,CDISCPILOT01,DM,01-701-1211,,,ITT,Intent to Treat Population Flag,Y,DERIVED,CLINICAL STUDY SPONSOR
98,CDISCPILOT01,DM,01-701-1211,,,SAFETY,Safety Population Flag,Y,DERIVED,CLINICAL STUDY SPONSOR
99,CDISCPILOT01,DM,01-701-1234,,,COMPLT16,Completers of Week 16 Population Flag,Y,DERIVED,CLINICAL STUDY SPONSOR
100,CDISCPILOT01,DM,01-701-1234,,,COMPLT24,Completers of Week 24 Population Flag,Y,DERIVED,CLINICAL STUDY SPONSOR
101,CDISCPILOT01,DM,01-701-1234,,,COMPLT8,Completers of Week 8 Population Flag,Y,DERIVED,CLINICAL STUDY SPONSOR
102,CDISCPILOT01,DM,01-701-1234,,,EFFICACY,Efficacy Population Flag,Y,DERIVED,CLINICAL STUDY SPONSOR
103,CDISCPILOT01,DM,01-701-1234,,,ITT,Intent to Treat Population Flag,Y,DERIVED,CLINICAL STUDY SPONSOR
104,CDISCPILOT01,DM,01-701-1234,,,SAFETY,Safety Population Flag,Y,DERIVED,CLINICAL STUDY SPONSOR
105,CDISCPILOT01,DM,01-701-1239,,,COMPLT16,Completers of Week 16 Population Flag,Y,DERIVED,CLINICAL STUDY SPONSOR
106,CDISCPILOT01,DM,01-701-1239,,,COMPLT24,Completers of Week 24 Population Flag,Y,DERIVED,CLINICAL STUDY SPONSOR
107,CDISCPILOT01,DM,01-701-1239,,,COMPLT8,Completers of Week 8 Population Flag,Y,DERIVED,CLINICAL STUDY SPONSOR
108,CDISCPILOT01,DM,01-701-1239,,,EFFICACY,Efficacy Population Flag,Y,DERIVED,CLINICAL STUDY SPONSOR
109,CDISCPILOT01,DM,01-701-1239,,,ITT,Intent to Treat Population Flag,Y,DERIVED,CLINICAL STUDY SPONSOR
110,CDISCPILOT01,DM,01-701-1239,,,SAFETY,Safety Population Flag,Y,DERIVED,CLINICAL STUDY SPONSOR
111,CDISCPILOT01,DM,01-701-1275,,,COMPLT16,Completers of Week 16 Population Flag,Y,DERIVED,CLINICAL STUDY SPONSOR
112,CDISCPILOT01,DM,01-701-1275,,,COMPLT8,Completers of Week 8 Population Flag,Y,DERIVED,CLINICAL STUDY SPONSOR
113,CDISCPILOT01,DM,01-701-1275,,,EFFICACY,Efficacy Population Flag,Y,DERIVED,CLINICAL STUDY SPONSOR
114,CDISCPILOT01,DM,01-701-1275,,,ITT,Intent to Treat Population Flag,Y,DERIVED,CLINICAL STUDY SPONSOR
115,CDISCPILOT01,DM,01-701-1275,,,SAFETY,Safety Population Flag,Y,DERIVED,CLINICAL STUDY SPONSOR
116,CDISCPILOT01,DM,01-701-1287,,,COMPLT16,Completers of Week 16 Population Flag,Y,DERIVED,CLINICAL STUDY SPONSOR
117,CDISCPILOT01,DM,01-701-1287,,,COMPLT24,Completers of Week 24 Population Flag,Y,DERIVED,CLINICAL STUDY SPONSOR
118,CDISCPILOT01,DM,01-701-1287,,,COMPLT8,Completers of Week 8 Population Flag,Y,DERIVED,CLINICAL STUDY SPONSOR
119,CDISCPILOT01,DM,01-701-1287,,,EFFICACY,Efficacy Population Flag,Y,DERIVED,CLINICAL STUDY SPONSOR
120,CDISCPILOT01,DM,01-701-1287,,,ITT,Intent to Treat Population Flag,Y,DERIVED,CLINICAL STUDY SPONSOR
121,CDISCPILOT01,DM,01-701-1287,,,SAFETY,Safety Population Flag,Y,DERIVED,CLINICAL STUDY SPONSOR
122,CDISCPILOT01,DM,01-701-1294,,,COMPLT8,Completers of Week 8 Population Flag,Y,DERIVED,CLINICAL STUDY SPONSOR
123,CDISCPILOT01,DM,01-701-1294,,,EFFICACY,Efficacy Population Flag,Y,DERIVED,CLINICAL STUDY SPONSOR
124,CDISCPILOT01,DM,01-701-1294,,,ITT,Intent to Treat Population Flag,Y,DERIVED,CLINICAL STUDY SPONSOR
125,CDISCPILOT01,DM,01-701-1294,,,SAFETY,Safety Population Flag,Y,DERIVED,CLINICAL STUDY SPONSOR
126,CDISCPILOT01,DM,01-701-1302,,,COMPLT8,Completers of Week 8 Population Flag,Y,DERIVED,CLINICAL STUDY SPONSOR
127,CDISCPILOT01,DM,01-701-1302,,,EFFICACY,Efficacy Population Flag,Y,DERIVED,CLINICAL STUDY SPONSOR
128,CDISCPILOT01,DM,01-701-1302,,,ITT,Intent to Treat Population Flag,Y,DERIVED,CLINICAL STUDY SPONSOR
129,CDISCPILOT01,DM,01-701-1302,,,SAFETY,Safety Population Flag,Y,DERIVED,CLINICAL STUDY SPONSOR
130,CDISCPILOT01,DM,01-701-1317,,,COMPLT16,Completers of Week 16 Population Flag,Y,DERIVED,CLINICAL STUDY SPONSOR
131,CDISCPILOT01,DM,01-701-1317,,,COMPLT24,Completers of Week 24 Population Flag,Y,DERIVED,CLINICAL STUDY SPONSOR
132,CDISCPILOT01,DM,01-701-1317,,,COMPLT8,Completers of Week 8 Population Flag,Y,DERIVED,CLINICAL STUDY SPONSOR
133,CDISCPILOT01,DM,01-701-1317,,,EFFICACY,Efficacy Population Flag,Y,DERIVED,CLINICAL STUDY SPONSOR
134,CDISCPILOT01,DM,01-701-1317,,,ITT,Intent to Treat Population Flag,Y,DERIVED,CLINICAL STUDY SPONSOR
135,CDISCPILOT01,DM,01-701-1317,,,SAFETY,Safety Population Flag,Y,DERIVED,CLINICAL STUDY SPONSOR
136,CDISCPILOT01,DM,01-701-1324,,,COMPLT16,Completers of Week 16 Population Flag,Y,DERIVED,CLINICAL STUDY SPONSOR
137,CDISCPILOT01,DM,01-701-1324,,,COMPLT24,Completers of Week 24 Population Flag,Y,DERIVED,CLINICAL STUDY SPONSOR
138,CDISCPILOT01,DM,01-701-1324,,,COMPLT8,Completers of Week 8 Population Flag,Y,DERIVED,CLINICAL STUDY SPONSOR
139,CDISCPILOT01,DM,01-701-1324,,,EFFICACY,Efficacy Population Flag,Y,DERIVED,CLINICAL STUDY SPONSOR
140,CDISCPILOT01,DM,01-701-1324,,,ITT,Intent to Treat Population Flag,Y,DERIVED,CLINICAL STUDY SPONSOR
141,CDISCPILOT01,DM,01-701-1324,,,SAFETY,Safety Population Flag,Y,DERIVED,CLINICAL STUDY SPONSOR
142,CDISCPILOT01,DM,01-701-1341,,,EFFICACY,Efficacy Population Flag,Y,DERIVED,CLINICAL STUDY SPONSOR
143,CDISCPILOT01,DM,01-701-1341,,,ITT,Intent to Treat Population Flag,Y,DERIVED,CLINICAL STUDY SPONSOR
144,CDISCPILOT01,DM,01-701-1341,,,SAFETY,Safety Population Flag,Y,DERIVED,CLINICAL STUDY SPONSOR
145,CDISCPILOT01,DM,01-701-1345,,,COMPLT16,Completers of Week 16 Population Flag,Y,DERIVED,CLINICAL STUDY SPONSOR
146,CDISCPILOT01,DM,01-701-1345,,,COMPLT24,Completers of Week 24 Population Flag,Y,DERIVED,CLINICAL STUDY SPONSOR
147,CDISCPILOT01,DM,01-701-1345,,,COMPLT8,Completers of Week 8 Population Flag,Y,DERIVED,CLINICAL STUDY SPONSOR
148,CDISCPILOT01,DM,01-701-1345,,,EFFICACY,Efficacy Population Flag,Y,DERIVED,CLINICAL STUDY SPONSOR
149,CDISCPILOT01,DM,01-701-1345,,,ITT,Intent to Treat Population Flag,Y,DERIVED,CLINICAL STUDY SPONSOR
150,CDISCPILOT01,DM,01-701-1345,,,SAFETY,Safety Population Flag,Y,DERIVED,CLINICAL STUDY SPONSOR
151,CDISCPILOT01,DM,01-701-1360,,,EFFICACY,Efficacy Population Flag,Y,DERIVED,CLINICAL STUDY SPONSOR
152,CDISCPILOT01,DM,01-701-1360,,,ITT,Intent to Treat Population Flag,Y,DERIVED,CLINICAL STUDY SPONSOR
153,CDISCPILOT01,DM,01-701-1360,,,SAFETY,Safety Population Flag,Y,DERIVED,CLINICAL STUDY SPONSOR
154,CDISCPILOT01,DM,01-701-1363,,,COMPLT16,Completers of Week 16 Population Flag,Y,DERIVED,CLINICAL STUDY SPONSOR
155,CDISCPILOT01,DM,01-701-1363,,,COMPLT24,Completers of Week 24 Population Flag,Y,DERIVED,CLINICAL STUDY SPONSOR
156,CDISCPILOT01,DM,01-701-1363,,,COMPLT8,Completers of Week 8 Population Flag,Y,DERIVED,CLINICAL STUDY SPONSOR
157,CDISCPILOT01,DM,01-701-1363,,,EFFICACY,Efficacy Population Flag,Y,DERIVED,CLINICAL STUDY SPONSOR
158,CDISCPILOT01,DM,01-701-1363,,,ITT,Intent to Treat Population Flag,Y,DERIVED,CLINICAL STUDY SPONSOR
159,CDISCPILOT01,DM,01-701-1363,,,SAFETY,Safety Population Flag,Y,DERIVED,CLINICAL STUDY SPONSOR
160,CDISCPILOT01,DM,01-701-1383,,,COMPLT16,Completers of Week 16 Population Flag,Y,DERIVED,CLINICAL STUDY SPONSOR
161,CDISCPILOT01,DM,01-701-1383,,,COMPLT24,Completers of Week 24 Population Flag,Y,DERIVED,CLINICAL STUDY SPONSOR
162,CDISCPILOT01,DM,01-701-1383,,,COMPLT8,Completers of Week 8 Population Flag,Y,DERIVED,CLINICAL STUDY SPONSOR
163,CDISCPILOT01,DM,01-701-1383,,,EFFICACY,Efficacy Population Flag,Y,DERIVED,CLINICAL STUDY SPONSOR
164,CDISCPILOT01,DM,01-701-1383,,,ITT,Intent to Treat Population Flag,Y,DERIVED,CLINICAL STUDY SPONSOR
165,CDISCPILOT01,DM,01-701-1383,,,SAFETY,Safety Population Flag,Y,DERIVED,CLINICAL STUDY SPONSOR
166,CDISCPILOT01,DM,01-701-1387,,,EFFICACY,Efficacy Population Flag,Y,DERIVED,CLINICAL STUDY SPONSOR
167,CDISCPILOT01,DM,01-701-1387,,,ITT,Intent to Treat Population Flag,Y,DERIVED,CLINICAL STUDY SPONSOR
168,CDISCPILOT01,DM,01-701-1387,,,SAFETY,Safety Population Flag,Y,DERIVED,CLINICAL STUDY SPONSOR
169,CDISCPILOT01,DM,01-701-1392,,,COMPLT16,Completers of Week 16 Population Flag,Y,DERIVED,CLINICAL STUDY SPONSOR
170,CDISCPILOT01,DM,01-701-1392,,,COMPLT24,Completers of Week 24 Population Flag,Y,DERIVED,CLINICAL STUDY SPONSOR
171,CDISCPILOT01,DM,01-701-1392,,,COMPLT8,Completers of Week 8 Population Flag,Y,DERIVED,CLINICAL STUDY SPONSOR
172,CDISCPILOT01,DM,01-701-1392,,,EFFICACY,Efficacy Population Flag,Y,DERIVED,CLINICAL STUDY SPONSOR
173,CDISCPILOT01,DM,01-701-1392,,,ITT,Intent to Treat Population Flag,Y,DERIVED,CLINICAL STUDY SPONSOR
174,CDISCPILOT01,DM,01-701-1392,,,SAFETY,Safety Population Flag,Y,DERIVED,CLINICAL STUDY SPONSOR
175,CDISCPILOT01,DM,01-701-1415,,,COMPLT16,Completers of Week 16 Population Flag,Y,DERIVED,CLINICAL STUDY SPONSOR
176,CDISCPILOT01,DM,01-701-1415,,,COMPLT24,Completers of Week 24 Population Flag,Y,DERIVED,CLINICAL STUDY SPONSOR
177,CDISCPILOT01,DM,01-701-1415,,,COMPLT8,Completers of Week 8 Population Flag,Y,DERIVED,CLINICAL STUDY SPONSOR
178,CDISCPILOT01,DM,01-701-1415,,,EFFICACY,Efficacy Population Flag,Y,DERIVED,CLINICAL STUDY SPONSOR
179,CDISCPILOT01,DM,01-701-1415,,,ITT,Intent to Treat Population Flag,Y,DERIVED,CLINICAL STUDY SPONSOR
180,CDISCPILOT01,DM,01-701-1415,,,SAFETY,Safety Population Flag,Y,DERIVED,CLINICAL STUDY SPONSOR
181,CDISCPILOT01,DM,01-701-1429,,,EFFICACY,Efficacy Population Flag,Y,DERIVED,CLINICAL STUDY SPONSOR
182,CDISCPILOT01,DM,01-701-1429,,,ITT,Intent to Treat Population Flag,Y,DERIVED,CLINICAL STUDY SPONSOR
183,CDISCPILOT01,DM,01-701-1429,,,SAFETY,Safety Population Flag,Y,DERIVED,CLINICAL STUDY SPONSOR
184,CDISCPILOT01,DM,01-701-1440,,,COMPLT16,Completers of Week 16 Population Flag,Y,DERIVED,CLINICAL STUDY SPONSOR
185,CDISCPILOT01,DM,01-701-1440,,,COMPLT24,Completers of Week 24 Population Flag,Y,DERIVED,CLINICAL STUDY SPONSOR
186,CDISCPILOT01,DM,01-701-1440,,,COMPLT8,Completers of Week 8 Population Flag,Y,DERIVED,CLINICAL STUDY SPONSOR
187,CDISCPILOT01,DM,01-701-1440,,,EFFICACY,Efficacy Population Flag,Y,DERIVED,CLINICAL STUDY SPONSOR
188,CDISCPILOT01,DM,01-701-1440,,,ITT,Intent to Treat Population Flag,Y,DERIVED,CLINICAL STUDY SPONSOR
189,CDISCPILOT01,DM,01-701-1440,,,SAFETY,Safety Population Flag,Y,DERIVED,CLINICAL STUDY SPONSOR
190,CDISCPILOT01,DM,01-701-1442,,,COMPLT16,Completers of Week 16 Population Flag,Y,DERIVED,CLINICAL STUDY SPONSOR
191,CDISCPILOT01,DM,01-701-1442,,,COMPLT24,Completers of Week 24 Population Flag,Y,DERIVED,CLINICAL STUDY SPONSOR
192,CDISCPILOT01,DM,01-701-1442,,,COMPLT8,Completers of Week 8 Population Flag,Y,DERIVED,CLINICAL STUDY SPONSOR
193,CDISCPILOT01,DM,01-701-1442,,,EFFICACY,Efficacy Population Flag,Y,DERIVED,CLINICAL STUDY SPONSOR
194,CDISCPILOT01,DM,01-701-1442,,,ITT,Intent to Treat Population Flag,Y,DERIVED,CLINICAL STUDY SPONSOR
195,CDISCPILOT01,DM,01-701-1442,,,SAFETY,Safety Population Flag,Y,DERIVED,CLINICAL STUDY SPONSOR
196,CDISCPILOT01,DM,01-701-1444,,,EFFICACY,Efficacy Population Flag,Y,DERIVED,CLINICAL STUDY SPONSOR
197,CDISCPILOT01,DM,01-701-1444,,,ITT,Intent to Treat Population Flag,Y,DERIVED,CLINICAL STUDY SPONSOR
198,CDISCPILOT01,DM,01-701-1444,,,SAFETY,Safety Population Flag,Y,DERIVED,CLINICAL STUDY SPONSOR
199,CDISCPILOT01,DM,01-702-1082,,,COMPLT8,Completers of Week 8 Population Flag,Y,DERIVED,CLINICAL STUDY SPONSOR
200,CDISCPILOT01,DM,01-702-1082,,,EFFICACY,Efficacy Population Flag,Y,DERIVED,CLINICAL STUDY SPONSOR
201,CDISCPILOT01,DM,01-702-1082,,,ITT,Intent to Treat Population Flag,Y,DERIVED,CLINICAL STUDY SPONSOR
202,CDISCPILOT01,DM,01-702-1082,,,SAFETY,Safety Population Flag,Y,DERIVED,CLINICAL STUDY SPONSOR
203,CDISCPILOT01,DM,01-703-1042,,,COMPLT16,Completers of Week 16 Population Flag,Y,DERIVED,CLINICAL STUDY SPONSOR
204,CDISCPILOT01,DM,01-703-1042,,,COMPLT24,Completers of Week 24 Population Flag,Y,DERIVED,CLINICAL STUDY SPONSOR
205,CDISCPILOT01,DM,01-703-1042,,,COMPLT8,Completers of Week 8 Population Flag,Y,DERIVED,CLINICAL STUDY SPONSOR
206,CDISCPILOT01,DM,01-703-1042,,,EFFICACY,Efficacy Population Flag,Y,DERIVED,CLINICAL STUDY SPONSOR
207,CDISCPILOT01,DM,01-703-1042,,,ITT,Intent to Treat Population Flag,Y,DERIVED,CLINICAL STUDY SPONSOR
208,CDISCPILOT01,DM,01-703-1042,,,SAFETY,Safety Population Flag,Y,DERIVED,CLINICAL STUDY SPONSOR
209,CDISCPILOT01,DM,01-703-1076,,,COMPLT8,Completers of Week 8 Population Flag,Y,DERIVED,CLINICAL STUDY SPONSOR
210,CDISCPILOT01,DM,01-703-1076,,,EFFICACY,Efficacy Population Flag,Y,DERIVED,CLINICAL STUDY SPONSOR
211,CDISCPILOT01,DM,01-703-1076,,,ITT,Intent to Treat Population Flag,Y,DERIVED,CLINICAL STUDY SPONSOR
212,CDISCPILOT01,DM,01-703-1076,,,SAFETY,Safety Population Flag,Y,DERIVED,CLINICAL STUDY SPONSOR
213,CDISCPILOT01,DM,01-703-1086,,,COMPLT16,Completers of Week 16 Population Flag,Y,DERIVED,CLINICAL STUDY SPONSOR
214,CDISCPILOT01,DM,01-703-1086,,,COMPLT8,Completers of Week 8 Population Flag,Y,DERIVED,CLINICAL STUDY SPONSOR
215,CDISCPILOT01,DM,01-703-1086,,,EFFICACY,Efficacy Population Flag,Y,DERIVED,CLINICAL STUDY SPONSOR
216,CDISCPILOT01,DM,01-703-1086,,,ITT,Intent to Treat Population Flag,Y,DERIVED,CLINICAL STUDY SPONSOR
217,CDISCPILOT01,DM,01-703-1086,,,SAFETY,Safety Population Flag,Y,DERIVED,CLINICAL STUDY SPONSOR
218,CDISCPILOT01,DM,01-703-1096,,,ITT,Intent to Treat Population Flag,Y,DERIVED,CLINICAL STUDY SPONSOR
219,CDISCPILOT01,DM,01-703-1096,,,SAFETY,Safety Population Flag,Y,DERIVED,CLINICAL STUDY SPONSOR
220,CDISCPILOT01,DM,01-703-1100,,,COMPLT16,Completers of Week 16 Population Flag,Y,DERIVED,CLINICAL STUDY SPONSOR
221,CDISCPILOT01,DM,01-703-1100,,,COMPLT24,Completers of Week 24 Population Flag,Y,DERIVED,CLINICAL STUDY SPONSOR
222,CDISCPILOT01,DM,01-703-1100,,,COMPLT8,Completers of Week 8 Population Flag,Y,DERIVED,CLINICAL STUDY SPONSOR
223,CDISCPILOT01,DM,01-703-1100,,,EFFICACY,Efficacy Population Flag,Y,DERIVED,CLINICAL STUDY SPONSOR
224,CDISCPILOT01,DM,01-703-1100,,,ITT,Intent to Treat Population Flag,Y,DERIVED,CLINICAL STUDY SPONSOR
225,CDISCPILOT01,DM,01-703-1100,,,SAFETY,Safety Population Flag,Y,DERIVED,CLINICAL STUDY SPONSOR
226,CDISCPILOT01,DM,01-703-1119,,,COMPLT16,Completers of Week 16 Population Flag,Y,DERIVED,CLINICAL STUDY SPONSOR
227,CDISCPILOT01,DM,01-703-1119,,,COMPLT8,Completers of Week 8 Population Flag,Y,DERIVED,CLINICAL STUDY SPONSOR
228,CDISCPILOT01,DM,01-703-1119,,,EFFICACY,Efficacy Population Flag,Y,DERIVED,CLINICAL STUDY SPONSOR
229,CDISCPILOT01,DM,01-703-1119,,,ITT,Intent to Treat Population Flag,Y,DERIVED,CLINICAL STUDY SPONSOR
230,CDISCPILOT01,DM,01-703-1119,,,SAFETY,Safety Population Flag,Y,DERIVED,CLINICAL STUDY SPONSOR
231,CDISCPILOT01,DM,01-703-1175,,,EFFICACY,Efficacy Population Flag,Y,DERIVED,CLINICAL STUDY SPONSOR
232,CDISCPILOT01,DM,01-703-1175,,,ITT,Intent to Treat Population Flag,Y,DERIVED,CLINICAL STUDY SPONSOR
233,CDISCPILOT01,DM,01-703-1175,,,SAFETY,Safety Population Flag,Y,DERIVED,CLINICAL STUDY SPONSOR
234,CDISCPILOT01,DM,01-703-1182,,,COMPLT8,Completers of Week 8 Population Flag,Y,DERIVED,CLINICAL STUDY SPONSOR
235,CDISCPILOT01,DM,01-703-1182,,,EFFICACY,Efficacy Population Flag,Y,DERIVED,CLINICAL STUDY SPONSOR
236,CDISCPILOT01,DM,01-703-1182,,,ITT,Intent to Treat Population Flag,Y,DERIVED,CLINICAL STUDY SPONSOR
237,CDISCPILOT01,DM,01-703-1182,,,SAFETY,Safety Population Flag,Y,DERIVED,CLINICAL STUDY SPONSOR
238,CDISCPILOT01,DM,01-703-1197,,,EFFICACY,Efficacy Population Flag,Y,DERIVED,CLINICAL STUDY SPONSOR
239,CDISCPILOT01,DM,01-703-1197,,,ITT,Intent to Treat Population Flag,Y,DERIVED,CLINICAL STUDY SPONSOR
240,CDISCPILOT01,DM,01-703-1197,,,SAFETY,Safety Population Flag,Y,DERIVED,CLINICAL STUDY SPONSOR
241,CDISCPILOT01,DM,01-703-1210,,,COMPLT16,Completers of Week 16 Population Flag,Y,DERIVED,CLINICAL STUDY SPONSOR
242,CDISCPILOT01,DM,01-703-1210,,,COMPLT24,Completers of Week 24 Population Flag,Y,DERIVED,CLINICAL STUDY SPONSOR
243,CDISCPILOT01,DM,01-703-1210,,,COMPLT8,Completers of Week 8 Population Flag,Y,DERIVED,CLINICAL STUDY SPONSOR
244,CDISCPILOT01,DM,01-703-1210,,,EFFICACY,Efficacy Population Flag,Y,DERIVED,CLINICAL STUDY SPONSOR
245,CDISCPILOT01,DM,01-703-1210,,,ITT,Intent to Treat Population Flag,Y,DERIVED,CLINICAL STUDY SPONSOR
246,CDISCPILOT01,DM,01-703-1210,,,SAFETY,Safety Population Flag,Y,DERIVED,CLINICAL STUDY SPONSOR
247,CDISCPILOT01,DM,01-703-1258,,,COMPLT16,Completers of Week 16 Population Flag,Y,DERIVED,CLINICAL STUDY SPONSOR
248,CDISCPILOT01,DM,01-703-1258,,,COMPLT24,Completers of Week 24 Population Flag,Y,DERIVED,CLINICAL STUDY SPONSOR
249,CDISCPILOT01,DM,01-703-1258,,,COMPLT8,Completers of Week 8 Population Flag,Y,DERIVED,CLINICAL STUDY SPONSOR
250,CDISCPILOT01,DM,01-703-1258,,,EFFICACY,Efficacy Population Flag,Y,DERIVED,CLINICAL STUDY SPONSOR
251,CDISCPILOT01,DM,01-703-1258,,,ITT,Intent to Treat Population Flag,Y,DERIVED,CLINICAL STUDY SPONSOR
252,CDISCPILOT01,DM,01-703-1258,,,SAFETY,Safety Population Flag,Y,DERIVED,CLINICAL STUDY SPONSOR
253,CDISCPILOT01,DM,01-703-1279,,,ITT,Intent to Treat Population Flag,Y,DERIVED,CLINICAL STUDY SPONSOR
254,CDISCPILOT01,DM,01-703-1279,,,SAFETY,Safety Population Flag,Y,DERIVED,CLINICAL STUDY SPONSOR
255,CDISCPILOT01,DM,01-703-1295,,,COMPLT16,Completers of Week 16 Population Flag,Y,DERIVED,CLINICAL STUDY SPONSOR
256,CDISCPILOT01,DM,01-703-1295,,,COMPLT8,Completers of Week 8 Population Flag,Y,DERIVED,CLINICAL STUDY SPONSOR
257,CDISCPILOT01,DM,01-703-1295,,,EFFICACY,Efficacy Population Flag,Y,DERIVED,CLINICAL STUDY SPONSOR
258,CDISCPILOT01,DM,01-703-1295,,,ITT,Intent to Treat Population Flag,Y,DERIVED,CLINICAL STUDY SPONSOR
259,CDISCPILOT01,DM,01-703-1295,,,SAFETY,Safety Population Flag,Y,DERIVED,CLINICAL STUDY SPONSOR
260,CDISCPILOT01,DM,01-703-1299,,,COMPLT16,Completers of Week 16 Population Flag,Y,DERIVED,CLINICAL STUDY SPONSOR
261,CDISCPILOT01,DM,01-703-1299,,,COMPLT24,Completers of Week 24 Population Flag,Y,DERIVED,CLINICAL STUDY SPONSOR
262,CDISCPILOT01,DM,01-703-1299,,,COMPLT8,Completers of Week 8 Population Flag,Y,DERIVED,CLINICAL STUDY SPONSOR
263,CDISCPILOT01,DM,01-703-1299,,,EFFICACY,Efficacy Population Flag,Y,DERIVED,CLINICAL STUDY SPONSOR
264,CDISCPILOT01,DM,01-703-1299,,,ITT,Intent to Treat Population Flag,Y,DERIVED,CLINICAL STUDY SPONSOR
265,CDISCPILOT01,DM,01-703-1299,,,SAFETY,Safety Population Flag,Y,DERIVED,CLINICAL STUDY SPONSOR
266,CDISCPILOT01,DM,01-703-1335,,,EFFICACY,Efficacy Population Flag,Y,DERIVED,CLINICAL STUDY SPONSOR
267,CDISCPILOT01,DM,01-703-1335,,,ITT,Intent to Treat Population Flag,Y,DERIVED,CLINICAL STUDY SPONSOR
268,CDISCPILOT01,DM,01-703-1335,,,SAFETY,Safety Population Flag,Y,DERIVED,CLINICAL STUDY SPONSOR
269,CDISCPILOT01,DM,01-703-1379,,,COMPLT16,Completers of Week 16 Population Flag,Y,DERIVED,CLINICAL STUDY SPONSOR
270,CDISCPILOT01,DM,01-703-1379,,,COMPLT24,Completers of Week 24 Population Flag,Y,DERIVED,CLINICAL STUDY SPONSOR
271,CDISCPILOT01,DM,01-703-1379,,,COMPLT8,Completers of Week 8 Population Flag,Y,DERIVED,CLINICAL STUDY SPONSOR
272,CDISCPILOT01,DM,01-703-1379,,,EFFICACY,Efficacy Population Flag,Y,DERIVED,CLINICAL STUDY SPONSOR
273,CDISCPILOT01,DM,01-703-1379,,,ITT,Intent to Treat Population Flag,Y,DERIVED,CLINICAL STUDY SPONSOR
274,CDISCPILOT01,DM,01-703-1379,,,SAFETY,Safety Population Flag,Y,DERIVED,CLINICAL STUDY SPONSOR
275,CDISCPILOT01,DM,01-703-1403,,,ITT,Intent to Treat Population Flag,Y,DERIVED,CLINICAL STUDY SPONSOR
276,CDISCPILOT01,DM,01-703-1403,,,SAFETY,Safety Population Flag,Y,DERIVED,CLINICAL STUDY SPONSOR
277,CDISCPILOT01,DM,01-703-1439,,,COMPLT16,Completers of Week 16 Population Flag,Y,DERIVED,CLINICAL STUDY SPONSOR
278,CDISCPILOT01,DM,01-703-1439,,,COMPLT24,Completers of Week 24 Population Flag,Y,DERIVED,CLINICAL STUDY SPONSOR
279,CDISCPILOT01,DM,01-703-1439,,,COMPLT8,Completers of Week 8 Population Flag,Y,DERIVED,CLINICAL STUDY SPONSOR
280,CDISCPILOT01,DM,01-703-1439,,,EFFICACY,Efficacy Population Flag,Y,DERIVED,CLINICAL STUDY SPONSOR
281,CDISCPILOT01,DM,01-703-1439,,,ITT,Intent to Treat Population Flag,Y,DERIVED,CLINICAL STUDY SPONSOR
282,CDISCPILOT01,DM,01-703-1439,,,SAFETY,Safety Population Flag,Y,DERIVED,CLINICAL STUDY SPONSOR
283,CDISCPILOT01,DM,01-704-1008,,,EFFICACY,Efficacy Population Flag,Y,DERIVED,CLINICAL STUDY SPONSOR
284,CDISCPILOT01,DM,01-704-1008,,,ITT,Intent to Treat Population Flag,Y,DERIVED,CLINICAL STUDY SPONSOR
285,CDISCPILOT01,DM,01-704-1008,,,SAFETY,Safety Population Flag,Y,DERIVED,CLINICAL STUDY SPONSOR
286,CDISCPILOT01,DM,01-704-1009,,,EFFICACY,Efficacy Population Flag,Y,DERIVED,CLINICAL STUDY SPONSOR
287,CDISCPILOT01,DM,01-704-1009,,,ITT,Intent to Treat Population Flag,Y,DERIVED,CLINICAL STUDY SPONSOR
288,CDISCPILOT01,DM,01-704-1009,,,SAFETY,Safety Population Flag,Y,DERIVED,CLINICAL STUDY SPONSOR
289,CDISCPILOT01,DM,01-704-1010,,,COMPLT16,Completers of Week 16 Population Flag,Y,DERIVED,CLINICAL STUDY SPONSOR
290,CDISCPILOT01,DM,01-704-1010,,,COMPLT8,Completers of Week 8 Population Flag,Y,DERIVED,CLINICAL STUDY SPONSOR
291,CDISCPILOT01,DM,01-704-1010,,,EFFICACY,Efficacy Population Flag,Y,DERIVED,CLINICAL STUDY SPONSOR
292,CDISCPILOT01,DM,01-704-1010,,,ITT,Intent to Treat Population Flag,Y,DERIVED,CLINICAL STUDY SPONSOR
293,CDISCPILOT01,DM,01-704-1010,,,SAFETY,Safety Population Flag,Y,DERIVED,CLINICAL STUDY SPONSOR
294,CDISCPILOT01,DM,01-704-1017,,,EFFICACY,Efficacy Population Flag,Y,DERIVED,CLINICAL STUDY SPONSOR
295,CDISCPILOT01,DM,01-704-1017,,,ITT,Intent to Treat Population Flag,Y,DERIVED,CLINICAL STUDY SPONSOR
296,CDISCPILOT01,DM,01-704-1017,,,SAFETY,Safety Population Flag,Y,DERIVED,CLINICAL STUDY SPONSOR
297,CDISCPILOT01,DM,01-704-1025,,,EFFICACY,Efficacy Population Flag,Y,DERIVED,CLINICAL STUDY SPONSOR
298,CDISCPILOT01,DM,01-704-1025,,,ITT,Intent to Treat Population Flag,Y,DERIVED,CLINICAL STUDY SPONSOR
299,CDISCPILOT01,DM,01-704-1025,,,SAFETY,Safety Population Flag,Y,DERIVED,CLINICAL STUDY SPONSOR
300,CDISCPILOT01,DM,01-704-1065,,,COMPLT8,Completers of Week 8 Population Flag,Y,DERIVED,CLINICAL STUDY SPONSOR
301,CDISCPILOT01,DM,01-704-1065,,,EFFICACY,Efficacy Population Flag,Y,DERIVED,CLINICAL STUDY SPONSOR
302,CDISCPILOT01,DM,01-704-1065,,,ITT,Intent to Treat Population Flag,Y,DERIVED,CLINICAL STUDY SPONSOR
303,CDISCPILOT01,DM,01-704-1065,,,SAFETY,Safety Population Flag,Y,DERIVED,CLINICAL STUDY SPONSOR
304,CDISCPILOT01,DM,01-704-1074,,,COMPLT8,Completers of Week 8 Population Flag,Y,DERIVED,CLINICAL STUDY SPONSOR
305,CDISCPILOT01,DM,01-704-1074,,,EFFICACY,Efficacy Population Flag,Y,DERIVED,CLINICAL STUDY SPONSOR
306,CDISCPILOT01,DM,01-704-1074,,,ITT,Intent to Treat Population Flag,Y,DERIVED,CLINICAL STUDY SPONSOR
307,CDISCPILOT01,DM,01-704-1074,,,SAFETY,Safety Population Flag,Y,DERIVED,CLINICAL STUDY SPONSOR
308,CDISCPILOT01,DM,01-704-1093,,,COMPLT16,Completers of Week 16 Population Flag,Y,DERIVED,CLINICAL STUDY SPONSOR
309,CDISCPILOT01,DM,01-704-1093,,,COMPLT8,Completers of Week 8 Population Flag,Y,DERIVED,CLINICAL STUDY SPONSOR
310,CDISCPILOT01,DM,01-704-1093,,,EFFICACY,Efficacy Population Flag,Y,DERIVED,CLINICAL STUDY SPONSOR
311,CDISCPILOT01,DM,01-704-1093,,,ITT,Intent to Treat Population Flag,Y,DERIVED,CLINICAL STUDY SPONSOR
312,CDISCPILOT01,DM,01-704-1093,,,SAFETY,Safety Population Flag,Y,DERIVED,CLINICAL STUDY SPONSOR
313,CDISCPILOT01,DM,01-704-1114,,,COMPLT16,Completers of Week 16 Population Flag,Y,DERIVED,CLINICAL STUDY SPONSOR
314,CDISCPILOT01,DM,01-704-1114,,,COMPLT24,Completers of Week 24 Population Flag,Y,DERIVED,CLINICAL STUDY SPONSOR
315,CDISCPILOT01,DM,01-704-1114,,,COMPLT8,Completers of Week 8 Population Flag,Y,DERIVED,CLINICAL STUDY SPONSOR
316,CDISCPILOT01,DM,01-704-1114,,,EFFICACY,Efficacy Population Flag,Y,DERIVED,CLINICAL STUDY SPONSOR
317,CDISCPILOT01,DM,01-704-1114,,,ITT,Intent to Treat Population Flag,Y,DERIVED,CLINICAL STUDY SPONSOR
318,CDISCPILOT01,DM,01-704-1114,,,SAFETY,Safety Population Flag,Y,DERIVED,CLINICAL STUDY SPONSOR
319,CDISCPILOT01,DM,01-704-1120,,,COMPLT8,Completers of Week 8 Population Flag,Y,DERIVED,CLINICAL STUDY SPONSOR
320,CDISCPILOT01,DM,01-704-1120,,,EFFICACY,Efficacy Population Flag,Y,DERIVED,CLINICAL STUDY SPONSOR
321,CDISCPILOT01,DM,01-704-1120,,,ITT,Intent to Treat Population Flag,Y,DERIVED,CLINICAL STUDY SPONSOR
322,CDISCPILOT01,DM,01-704-1120,,,SAFETY,Safety Population Flag,Y,DERIVED,CLINICAL STUDY SPONSOR
323,CDISCPILOT01,DM,01-704-1127,,,COMPLT16,Completers of Week 16 Population Flag,Y,DERIVED,CLINICAL STUDY SPONSOR
324,CDISCPILOT01,DM,01-704-1127,,,COMPLT24,Completers of Week 24 Population Flag,Y,DERIVED,CLINICAL STUDY SPONSOR
325,CDISCPILOT01,DM,01-704-1127,,,COMPLT8,Completers of Week 8 Population Flag,Y,DERIVED,CLINICAL STUDY SPONSOR
326,CDISCPILOT01,DM,01-704-1127,,,EFFICACY,Efficacy Population Flag,Y,DERIVED,CLINICAL STUDY SPONSOR
327,CDISCPILOT01,DM,01-704-1127,,,ITT,Intent to Treat Population Flag,Y,DERIVED,CLINICAL STUDY SPONSOR
328,CDISCPILOT01,DM,01-704-1127,,,SAFETY,Safety Population Flag,Y,DERIVED,CLINICAL STUDY SPONSOR
329,CDISCPILOT01,DM,01-704-1135,,,COMPLT16,Completers of Week 16 Population Flag,Y,DERIVED,CLINICAL STUDY SPONSOR
330,CDISCPILOT01,DM,01-704-1135,,,COMPLT24,Completers of Week 24 Population Flag,Y,DERIVED,CLINICAL STUDY SPONSOR
331,CDISCPILOT01,DM,01-704-1135,,,COMPLT8,Completers of Week 8 Population Flag,Y,DERIVED,CLINICAL STUDY SPONSOR
332,CDISCPILOT01,DM,01-704-1135,,,EFFICACY,Efficacy Population Flag,Y,DERIVED,CLINICAL STUDY SPONSOR
333,CDISCPILOT01,DM,01-704-1135,,,ITT,Intent to Treat Population Flag,Y,DERIVED,CLINICAL STUDY SPONSOR
334,CDISCPILOT01,DM,01-704-1135,,,SAFETY,Safety Population Flag,Y,DERIVED,CLINICAL STUDY SPONSOR
335,CDISCPILOT01,DM,01-704-1164,,,COMPLT16,Completers of Week 16 Population Flag,Y,DERIVED,CLINICAL STUDY SPONSOR
336,CDISCPILOT01,DM,01-704-1164,,,COMPLT24,Completers of Week 24 Population Flag,Y,DERIVED,CLINICAL STUDY SPONSOR
337,CDISCPILOT01,DM,01-704-1164,,,COMPLT8,Completers of Week 8 Population Flag,Y,DERIVED,CLINICAL STUDY SPONSOR
338,CDISCPILOT01,DM,01-704-1164,,,EFFICACY,Efficacy Population Flag,Y,DERIVED,CLINICAL STUDY SPONSOR
339,CDISCPILOT01,DM,01-704-1164,,,ITT,Intent to Treat Population Flag,Y,DERIVED,CLINICAL STUDY SPONSOR
340,CDISCPILOT01,DM,01-704-1164,,,SAFETY,Safety Population Flag,Y,DERIVED,CLINICAL STUDY SPONSOR
341,CDISCPILOT01,DM,01-704-1218,,,COMPLT16,Completers of Week 16 Population Flag,Y,DERIVED,CLINICAL STUDY SPONSOR
342,CDISCPILOT01,DM,01-704-1218,,,COMPLT24,Completers of Week 24 Population Flag,Y,DERIVED,CLINICAL STUDY SPONSOR
343,CDISCPILOT01,DM,01-704-1218,,,COMPLT8,Completers of Week 8 Population Flag,Y,DERIVED,CLINICAL STUDY SPONSOR
344,CDISCPILOT01,DM,01-704-1218,,,EFFICACY,Efficacy Population Flag,Y,DERIVED,CLINICAL STUDY SPONSOR
345,CDISCPILOT01,DM,01-704-1218,,,ITT,Intent to Treat Population Flag,Y,DERIVED,CLINICAL STUDY SPONSOR
346,CDISCPILOT01,DM,01-704-1218,,,SAFETY,Safety Population Flag,Y,DERIVED,CLINICAL STUDY SPONSOR
347,CDISCPILOT01,DM,01-704-1233,,,COMPLT16,Completers of Week 16 Population Flag,Y,DERIVED,CLINICAL STUDY SPONSOR
348,CDISCPILOT01,DM,01-704-1233,,,COMPLT8,Completers of Week 8 Population Flag,Y,DERIVED,CLINICAL STUDY SPONSOR
349,CDISCPILOT01,DM,01-704-1233,,,EFFICACY,Efficacy Population Flag,Y,DERIVED,CLINICAL STUDY SPONSOR
350,CDISCPILOT01,DM,01-704-1233,,,ITT,Intent to Treat Population Flag,Y,DERIVED,CLINICAL STUDY SPONSOR
351,CDISCPILOT01,DM,01-704-1233,,,SAFETY,Safety Population Flag,Y,DERIVED,CLINICAL STUDY SPONSOR
352,CDISCPILOT01,DM,01-704-1241,,,COMPLT8,Completers of Week 8 Population Flag,Y,DERIVED,CLINICAL STUDY SPONSOR
353,CDISCPILOT01,DM,01-704-1241,,,EFFICACY,Efficacy Population Flag,Y,DERIVED,CLINICAL STUDY SPONSOR
354,CDISCPILOT01,DM,01-704-1241,,,ITT,Intent to Treat Population Flag,Y,DERIVED,CLINICAL STUDY SPONSOR
355,CDISCPILOT01,DM,01-704-1241,,,SAFETY,Safety Population Flag,Y,DERIVED,CLINICAL STUDY SPONSOR
356,CDISCPILOT01,DM,01-704-1260,,,COMPLT8,Completers of Week 8 Population Flag,Y,DERIVED,CLINICAL STUDY SPONSOR
357,CDISCPILOT01,DM,01-704-1260,,,EFFICACY,Efficacy Population Flag,Y,DERIVED,CLINICAL STUDY SPONSOR
358,CDISCPILOT01,DM,01-704-1260,,,ITT,Intent to Treat Population Flag,Y,DERIVED,CLINICAL STUDY SPONSOR
359,CDISCPILOT01,DM,01-704-1260,,,SAFETY,Safety Population Flag,Y,DERIVED,CLINICAL STUDY SPONSOR
360,CDISCPILOT01,DM,01-704-1266,,,COMPLT8,Completers of Week 8 Population Flag,Y,DERIVED,CLINICAL STUDY SPONSOR
361,CDISCPILOT01,DM,01-704-1266,,,EFFICACY,Efficacy Population Flag,Y,DERIVED,CLINICAL STUDY SPONSOR
362,CDISCPILOT01,DM,01-704-1266,,,ITT,Intent to Treat Population Flag,Y,DERIVED,CLINICAL STUDY SPONSOR
363,CDISCPILOT01,DM,01-704-1266,,,SAFETY,Safety Population Flag,Y,DERIVED,CLINICAL STUDY SPONSOR
364,CDISCPILOT01,DM,01-704-1323,,,ITT,Intent to Treat Population Flag,Y,DERIVED,CLINICAL STUDY SPONSOR
365,CDISCPILOT01,DM,01-704-1323,,,SAFETY,Safety Population Flag,Y,DERIVED,CLINICAL STUDY SPONSOR
366,CDISCPILOT01,DM,01-704-1325,,,COMPLT16,Completers of Week 16 Population Flag,Y,DERIVED,CLINICAL STUDY SPONSOR
367,CDISCPILOT01,DM,01-704-1325,,,COMPLT8,Completers of Week 8 Population Flag,Y,DERIVED,CLINICAL STUDY SPONSOR
368,CDISCPILOT01,DM,01-704-1325,,,EFFICACY,Efficacy Population Flag,Y,DERIVED,CLINICAL STUDY SPONSOR
369,CDISCPILOT01,DM,01-704-1325,,,ITT,Intent to Treat Population Flag,Y,DERIVED,CLINICAL STUDY SPONSOR
370,CDISCPILOT01,DM,01-704-1325,,,SAFETY,Safety Population Flag,Y,DERIVED,CLINICAL STUDY SPONSOR
371,CDISCPILOT01,DM,01-704-1332,,,COMPLT8,Completers of Week 8 Population Flag,Y,DERIVED,CLINICAL STUDY SPONSOR
372,CDISCPILOT01,DM,01-704-1332,,,EFFICACY,Efficacy Population Flag,Y,DERIVED,CLINICAL STUDY SPONSOR
373,CDISCPILOT01,DM,01-704-1332,,,ITT,Intent to Treat Population Flag,Y,DERIVED,CLINICAL STUDY SPONSOR
374,CDISCPILOT01,DM,01-704-1332,,,SAFETY,Safety Population Flag,Y,DERIVED,CLINICAL STUDY SPONSOR
375,CDISCPILOT01,DM,01-704-1351,,,COMPLT16,Completers of Week 16 Population Flag,Y,DERIVED,CLINICAL STUDY SPONSOR
376,CDISCPILOT01,DM,01-704-1351,,,COMPLT24,Completers of Week 24 Population Flag,Y,DERIVED,CLINICAL STUDY SPONSOR
377,CDISCPILOT01,DM,01-704-1351,,,COMPLT8,Completers of Week 8 Population Flag,Y,DERIVED,CLINICAL STUDY SPONSOR
378,CDISCPILOT01,DM,01-704-1351,,,EFFICACY,Efficacy Population Flag,Y,DERIVED,CLINICAL STUDY SPONSOR
379,CDISCPILOT01,DM,01-704-1351,,,ITT,Intent to Treat Population Flag,Y,DERIVED,CLINICAL STUDY SPONSOR
380,CDISCPILOT01,DM,01-704-1351,,,SAFETY,Safety Population Flag,Y,DERIVED,CLINICAL STUDY SPONSOR
381,CDISCPILOT01,DM,01-704-1388,,,COMPLT16,Completers of Week 16 Population Flag,Y,DERIVED,CLINICAL STUDY SPONSOR
382,CDISCPILOT01,DM,01-704-1388,,,COMPLT24,Completers of Week 24 Population Flag,Y,DERIVED,CLINICAL STUDY SPONSOR
383,CDISCPILOT01,DM,01-704-1388,,,COMPLT8,Completers of Week 8 Population Flag,Y,DERIVED,CLINICAL STUDY SPONSOR
384,CDISCPILOT01,DM,01-704-1388,,,EFFICACY,Efficacy Population Flag,Y,DERIVED,CLINICAL STUDY SPONSOR
385,CDISCPILOT01,DM,01-704-1388,,,ITT,Intent to Treat Population Flag,Y,DERIVED,CLINICAL STUDY SPONSOR
386,CDISCPILOT01,DM,01-704-1388,,,SAFETY,Safety Population Flag,Y,DERIVED,CLINICAL STUDY SPONSOR
387,CDISCPILOT01,DM,01-704-1435,,,COMPLT8,Completers of Week 8 Population Flag,Y,DERIVED,CLINICAL STUDY SPONSOR
388,CDISCPILOT01,DM,01-704-1435,,,EFFICACY,Efficacy Population Flag,Y,DERIVED,CLINICAL STUDY SPONSOR
389,CDISCPILOT01,DM,01-704-1435,,,ITT,Intent to Treat Population Flag,Y,DERIVED,CLINICAL STUDY SPONSOR
390,CDISCPILOT01,DM,01-704-1435,,,SAFETY,Safety Population Flag,Y,DERIVED,CLINICAL STUDY SPONSOR
391,CDISCPILOT01,DM,01-704-1445,,,COMPLT16,Completers of Week 16 Population Flag,Y,DERIVED,CLINICAL STUDY SPONSOR
392,CDISCPILOT01,DM,01-704-1445,,,COMPLT24,Completers of Week 24 Population Flag,Y,DERIVED,CLINICAL STUDY SPONSOR
393,CDISCPILOT01,DM,01-704-1445,,,COMPLT8,Completers of Week 8 Population Flag,Y,DERIVED,CLINICAL STUDY SPONSOR
394,CDISCPILOT01,DM,01-704-1445,,,EFFICACY,Efficacy Population Flag,Y,DERIVED,CLINICAL STUDY SPONSOR
395,CDISCPILOT01,DM,01-704-1445,,,ITT,Intent to Treat Population Flag,Y,DERIVED,CLINICAL STUDY SPONSOR
396,CDISCPILOT01,DM,01-704-1445,,,SAFETY,Safety Population Flag,Y,DERIVED,CLINICAL STUDY SPONSOR
397,CDISCPILOT01,DM,01-705-1018,,,ITT,Intent to Treat Population Flag,Y,DERIVED,CLINICAL STUDY SPONSOR
398,CDISCPILOT01,DM,01-705-1018,,,SAFETY,Safety Population Flag,Y,DERIVED,CLINICAL STUDY SPONSOR
399,CDISCPILOT01,DM,01-705-1031,,,COMPLT16,Completers of Week 16 Population Flag,Y,DERIVED,CLINICAL STUDY SPONSOR
400,CDISCPILOT01,DM,01-705-1031,,,COMPLT24,Completers of Week 24 Population Flag,Y,DERIVED,CLINICAL STUDY SPONSOR
401,CDISCPILOT01,DM,01-705-1031,,,COMPLT8,Completers of Week 8 Population Flag,Y,DERIVED,CLINICAL STUDY SPONSOR
402,CDISCPILOT01,DM,01-705-1031,,,EFFICACY,Efficacy Population Flag,Y,DERIVED,CLINICAL STUDY SPONSOR
403,CDISCPILOT01,DM,01-705-1031,,,ITT,Intent to Treat Population Flag,Y,DERIVED,CLINICAL STUDY SPONSOR
404,CDISCPILOT01,DM,01-705-1031,,,SAFETY,Safety Population Flag,Y,DERIVED,CLINICAL STUDY SPONSOR
405,CDISCPILOT01,DM,01-705-1059,,,COMPLT16,Completers of Week 16 Population Flag,Y,DERIVED,CLINICAL STUDY SPONSOR
406,CDISCPILOT01,DM,01-705-1059,,,COMPLT8,Completers of Week 8 Population Flag,Y,DERIVED,CLINICAL STUDY SPONSOR
407,CDISCPILOT01,DM,01-705-1059,,,EFFICACY,Efficacy Population Flag,Y,DERIVED,CLINICAL STUDY SPONSOR
408,CDISCPILOT01,DM,01-705-1059,,,ITT,Intent to Treat Population Flag,Y,DERIVED,CLINICAL STUDY SPONSOR
409,CDISCPILOT01,DM,01-705-1059,,,SAFETY,Safety Population Flag,Y,DERIVED,CLINICAL STUDY SPONSOR
410,CDISCPILOT01,DM,01-705-1186,,,ITT,Intent to Treat Population Flag,Y,DERIVED,CLINICAL STUDY SPONSOR
411,CDISCPILOT01,DM,01-705-1186,,,SAFETY,Safety Population Flag,Y,DERIVED,CLINICAL STUDY SPONSOR
412,CDISCPILOT01,DM,01-705-1199,,,EFFICACY,Efficacy Population Flag,Y,DERIVED,CLINICAL STUDY SPONSOR
413,CDISCPILOT01,DM,01-705-1199,,,ITT,Intent to Treat Population Flag,Y,DERIVED,CLINICAL STUDY SPONSOR
414,CDISCPILOT01,DM,01-705-1199,,,SAFETY,Safety Population Flag,Y,DERIVED,CLINICAL STUDY SPONSOR
415,CDISCPILOT01,DM,01-705-1280,,,COMPLT16,Completers of Week 16 Population Flag,Y,DERIVED,CLINICAL STUDY SPONSOR
416,CDISCPILOT01,DM,01-705-1280,,,COMPLT24,Completers of Week 24 Population Flag,Y,DERIVED,CLINICAL STUDY SPONSOR
417,CDISCPILOT01,DM,01-705-1280,,,COMPLT8,Completers of Week 8 Population Flag,Y,DERIVED,CLINICAL STUDY SPONSOR
418,CDISCPILOT01,DM,01-705-1280,,,EFFICACY,Efficacy Population Flag,Y,DERIVED,CLINICAL STUDY SPONSOR
419,CDISCPILOT01,DM,01-705-1280,,,ITT,Intent to Treat Population Flag,Y,DERIVED,CLINICAL STUDY SPONSOR
420,CDISCPILOT01,DM,01-705-1280,,,SAFETY,Safety Population Flag,Y,DERIVED,CLINICAL STUDY SPONSOR
421,CDISCPILOT01,DM,01-705-1281,,,COMPLT16,Completers of Week 16 Population Flag,Y,DERIVED,CLINICAL STUDY SPONSOR
422,CDISCPILOT01,DM,01-705-1281,,,COMPLT8,Completers of Week 8 Population Flag,Y,DERIVED,CLINICAL STUDY SPONSOR
423,CDISCPILOT01,DM,01-705-1281,,,EFFICACY,Efficacy Population Flag,Y,DERIVED,CLINICAL STUDY SPONSOR
424,CDISCPILOT01,DM,01-705-1281,,,ITT,Intent to Treat Population Flag,Y,DERIVED,CLINICAL STUDY SPONSOR
425,CDISCPILOT01,DM,01-705-1281,,,SAFETY,Safety Population Flag,Y,DERIVED,CLINICAL STUDY SPONSOR
426,CDISCPILOT01,DM,01-705-1282,,,COMPLT16,Completers of Week 16 Population Flag,Y,DERIVED,CLINICAL STUDY SPONSOR
427,CDISCPILOT01,DM,01-705-1282,,,COMPLT24,Completers of Week 24 Population Flag,Y,DERIVED,CLINICAL STUDY SPONSOR
428,CDISCPILOT01,DM,01-705-1282,,,COMPLT8,Completers of Week 8 Population Flag,Y,DERIVED,CLINICAL STUDY SPONSOR
429,CDISCPILOT01,DM,01-705-1282,,,EFFICACY,Efficacy Population Flag,Y,DERIVED,CLINICAL STUDY SPONSOR
430,CDISCPILOT01,DM,01-705-1282,,,ITT,Intent to Treat Population Flag,Y,DERIVED,CLINICAL STUDY SPONSOR
431,CDISCPILOT01,DM,01-705-1282,,,SAFETY,Safety Population Flag,Y,DERIVED,CLINICAL STUDY SPONSOR
432,CDISCPILOT01,DM,01-705-1292,,,COMPLT16,Completers of Week 16 Population Flag,Y,DERIVED,CLINICAL STUDY SPONSOR
433,CDISCPILOT01,DM,01-705-1292,,,COMPLT24,Completers of Week 24 Population Flag,Y,DERIVED,CLINICAL STUDY SPONSOR
434,CDISCPILOT01,DM,01-705-1292,,,COMPLT8,Completers of Week 8 Population Flag,Y,DERIVED,CLINICAL STUDY SPONSOR
435,CDISCPILOT01,DM,01-705-1292,,,EFFICACY,Efficacy Population Flag,Y,DERIVED,CLINICAL STUDY SPONSOR
436,CDISCPILOT01,DM,01-705-1292,,,ITT,Intent to Treat Population Flag,Y,DERIVED,CLINICAL STUDY SPONSOR
437,CDISCPILOT01,DM,01-705-1292,,,SAFETY,Safety Population Flag,Y,DERIVED,CLINICAL STUDY SPONSOR
438,CDISCPILOT01,DM,01-705-1303,,,COMPLT16,Completers of Week 16 Population Flag,Y,DERIVED,CLINICAL STUDY SPONSOR
439,CDISCPILOT01,DM,01-705-1303,,,COMPLT8,Completers of Week 8 Population Flag,Y,DERIVED,CLINICAL STUDY SPONSOR
440,CDISCPILOT01,DM,01-705-1303,,,EFFICACY,Efficacy Population Flag,Y,DERIVED,CLINICAL STUDY SPONSOR
441,CDISCPILOT01,DM,01-705-1303,,,ITT,Intent to Treat Population Flag,Y,DERIVED,CLINICAL STUDY SPONSOR
442,CDISCPILOT01,DM,01-705-1303,,,SAFETY,Safety Population Flag,Y,DERIVED,CLINICAL STUDY SPONSOR
443,CDISCPILOT01,DM,01-705-1310,,,COMPLT8,Completers of Week 8 Population Flag,Y,DERIVED,CLINICAL STUDY SPONSOR
444,CDISCPILOT01,DM,01-705-1310,,,EFFICACY,Efficacy Population Flag,Y,DERIVED,CLINICAL STUDY SPONSOR
445,CDISCPILOT01,DM,01-705-1310,,,ITT,Intent to Treat Population Flag,Y,DERIVED,CLINICAL STUDY SPONSOR
446,CDISCPILOT01,DM,01-705-1310,,,SAFETY,Safety Population Flag,Y,DERIVED,CLINICAL STUDY SPONSOR
447,CDISCPILOT01,DM,01-705-1349,,,COMPLT16,Completers of Week 16 Population Flag,Y,DERIVED,CLINICAL STUDY SPONSOR
448,CDISCPILOT01,DM,01-705-1349,,,COMPLT24,Completers of Week 24 Population Flag,Y,DERIVED,CLINICAL STUDY SPONSOR
449,CDISCPILOT01,DM,01-705-1349,,,COMPLT8,Completers of Week 8 Population Flag,Y,DERIVED,CLINICAL STUDY SPONSOR
450,CDISCPILOT01,DM,01-705-1349,,,EFFICACY,Efficacy Population Flag,Y,DERIVED,CLINICAL STUDY SPONSOR
451,CDISCPILOT01,DM,01-705-1349,,,ITT,Intent to Treat Population Flag,Y,DERIVED,CLINICAL STUDY SPONSOR
452,CDISCPILOT01,DM,01-705-1349,,,SAFETY,Safety Population Flag,Y,DERIVED,CLINICAL STUDY SPONSOR
453,CDISCPILOT01,DM,01-705-1377,,,ITT,Intent to Treat Population Flag,Y,DERIVED,CLINICAL STUDY SPONSOR
454,CDISCPILOT01,DM,01-705-1377,,,SAFETY,Safety Population Flag,Y,DERIVED,CLINICAL STUDY SPONSOR
455,CDISCPILOT01,DM,01-705-1382,,,ITT,Intent to Treat Population Flag,Y,DERIVED,CLINICAL STUDY SPONSOR
456,CDISCPILOT01,DM,01-705-1382,,,SAFETY,Safety Population Flag,Y,DERIVED,CLINICAL STUDY SPONSOR
457,CDISCPILOT01,DM,01-705-1393,,,COMPLT16,Completers of Week 16 Population Flag,Y,DERIVED,CLINICAL STUDY SPONSOR
458,CDISCPILOT01,DM,01-705-1393,,,COMPLT8,Completers of Week 8 Population Flag,Y,DERIVED,CLINICAL STUDY SPONSOR
459,CDISCPILOT01,DM,01-705-1393,,,EFFICACY,Efficacy Population Flag,Y,DERIVED,CLINICAL STUDY SPONSOR
460,CDISCPILOT01,DM,01-705-1393,,,ITT,Intent to Treat Population Flag,Y,DERIVED,CLINICAL STUDY SPONSOR
461,CDISCPILOT01,DM,01-705-1393,,,SAFETY,Safety Population Flag,Y,DERIVED,CLINICAL STUDY SPONSOR
462,CDISCPILOT01,DM,01-705-1431,,,COMPLT16,Completers of Week 16 Population Flag,Y,DERIVED,CLINICAL STUDY SPONSOR
463,CDISCPILOT01,DM,01-705-1431,,,COMPLT24,Completers of Week 24 Population Flag,Y,DERIVED,CLINICAL STUDY SPONSOR
464,CDISCPILOT01,DM,01-705-1431,,,COMPLT8,Completers of Week 8 Population Flag,Y,DERIVED,CLINICAL STUDY SPONSOR
465,CDISCPILOT01,DM,01-705-1431,,,EFFICACY,Efficacy Population Flag,Y,DERIVED,CLINICAL STUDY SPONSOR
466,CDISCPILOT01,DM,01-705-1431,,,ITT,Intent to Treat Population Flag,Y,DERIVED,CLINICAL STUDY SPONSOR
467,CDISCPILOT01,DM,01-705-1431,,,SAFETY,Safety Population Flag,Y,DERIVED,CLINICAL STUDY SPONSOR
468,CDISCPILOT01,DM,01-706-1041,,,COMPLT16,Completers of Week 16 Population Flag,Y,DERIVED,CLINICAL STUDY SPONSOR
469,CDISCPILOT01,DM,01-706-1041,,,COMPLT24,Completers of Week 24 Population Flag,Y,DERIVED,CLINICAL STUDY SPONSOR
470,CDISCPILOT01,DM,01-706-1041,,,COMPLT8,Completers of Week 8 Population Flag,Y,DERIVED,CLINICAL STUDY SPONSOR
471,CDISCPILOT01,DM,01-706-1041,,,EFFICACY,Efficacy Population Flag,Y,DERIVED,CLINICAL STUDY SPONSOR
472,CDISCPILOT01,DM,01-706-1041,,,ITT,Intent to Treat Population Flag,Y,DERIVED,CLINICAL STUDY SPONSOR
473,CDISCPILOT01,DM,01-706-1041,,,SAFETY,Safety Population Flag,Y,DERIVED,CLINICAL STUDY SPONSOR
474,CDISCPILOT01,DM,01-706-1049,,,EFFICACY,Efficacy Population Flag,Y,DERIVED,CLINICAL STUDY SPONSOR
475,CDISCPILOT01,DM,01-706-1049,,,ITT,Intent to Treat Population Flag,Y,DERIVED,CLINICAL STUDY SPONSOR
476,CDISCPILOT01,DM,01-706-1049,,,SAFETY,Safety Population Flag,Y,DERIVED,CLINICAL STUDY SPONSOR
477,CDISCPILOT01,DM,01-706-1384,,,EFFICACY,Efficacy Population Flag,Y,DERIVED,CLINICAL STUDY SPONSOR
478,CDISCPILOT01,DM,01-706-1384,,,ITT,Intent to Treat Population Flag,Y,DERIVED,CLINICAL STUDY SPONSOR
479,CDISCPILOT01,DM,01-706-1384,,,SAFETY,Safety Population Flag,Y,DERIVED,CLINICAL STUDY SPONSOR
480,CDISCPILOT01,DM,01-707-1037,,,EFFICACY,Efficacy Population Flag,Y,DERIVED,CLINICAL STUDY SPONSOR
481,CDISCPILOT01,DM,01-707-1037,,,ITT,Intent to Treat Population Flag,Y,DERIVED,CLINICAL STUDY SPONSOR
482,CDISCPILOT01,DM,01-707-1037,,,SAFETY,Safety Population Flag,Y,DERIVED,CLINICAL STUDY SPONSOR
483,CDISCPILOT01,DM,01-707-1206,,,COMPLT16,Completers of Week 16 Population Flag,Y,DERIVED,CLINICAL STUDY SPONSOR
484,CDISCPILOT01,DM,01-707-1206,,,COMPLT24,Completers of Week 24 Population Flag,Y,DERIVED,CLINICAL STUDY SPONSOR
485,CDISCPILOT01,DM,01-707-1206,,,COMPLT8,Completers of Week 8 Population Flag,Y,DERIVED,CLINICAL STUDY SPONSOR
486,CDISCPILOT01,DM,01-707-1206,,,EFFICACY,Efficacy Population Flag,Y,DERIVED,CLINICAL STUDY SPONSOR
487,CDISCPILOT01,DM,01-707-1206,,,ITT,Intent to Treat Population Flag,Y,DERIVED,CLINICAL STUDY SPONSOR
488,CDISCPILOT01,DM,01-707-1206,,,SAFETY,Safety Population Flag,Y,DERIVED,CLINICAL STUDY SPONSOR
489,CDISCPILOT01,DM,01-708-1019,,,EFFICACY,Efficacy Population Flag,Y,DERIVED,CLINICAL STUDY SPONSOR
490,CDISCPILOT01,DM,01-708-1019,,,ITT,Intent to Treat Population Flag,Y,DERIVED,CLINICAL STUDY SPONSOR
491,CDISCPILOT01,DM,01-708-1019,,,SAFETY,Safety Population Flag,Y,DERIVED,CLINICAL STUDY SPONSOR
492,CDISCPILOT01,DM,01-708-1032,,,EFFICACY,Efficacy Population Flag,Y,DERIVED,CLINICAL STUDY SPONSOR
493,CDISCPILOT01,DM,01-708-1032,,,ITT,Intent to Treat Population Flag,Y,DERIVED,CLINICAL STUDY SPONSOR
494,CDISCPILOT01,DM,01-708-1032,,,SAFETY,Safety Population Flag,Y,DERIVED,CLINICAL STUDY SPONSOR
495,CDISCPILOT01,DM,01-708-1084,,,COMPLT16,Completers of Week 16 Population Flag,Y,DERIVED,CLINICAL STUDY SPONSOR
496,CDISCPILOT01,DM,01-708-1084,,,COMPLT24,Completers of Week 24 Population Flag,Y,DERIVED,CLINICAL STUDY SPONSOR
497,CDISCPILOT01,DM,01-708-1084,,,COMPLT8,Completers of Week 8 Population Flag,Y,DERIVED,CLINICAL STUDY SPONSOR
498,CDISCPILOT01,DM,01-708-1084,,,EFFICACY,Efficacy Population Flag,Y,DERIVED,CLINICAL STUDY SPONSOR
499,CDISCPILOT01,DM,01-708-1084,,,ITT,Intent to Treat Population Flag,Y,DERIVED,CLINICAL STUDY SPONSOR
500,CDISCPILOT01,DM,01-708-1084,,,SAFETY,Safety Population Flag,Y,DERIVED,CLINICAL STUDY SPONSOR
501,CDISCPILOT01,DM,01-708-1087,,,COMPLT16,Completers of Week 16 Population Flag,Y,DERIVED,CLINICAL STUDY SPONSOR
502,CDISCPILOT01,DM,01-708-1087,,,COMPLT24,Completers of Week 24 Population Flag,Y,DERIVED,CLINICAL STUDY SPONSOR
503,CDISCPILOT01,DM,01-708-1087,,,COMPLT8,Completers of Week 8 Population Flag,Y,DERIVED,CLINICAL STUDY SPONSOR
504,CDISCPILOT01,DM,01-708-1087,,,EFFICACY,Efficacy Population Flag,Y,DERIVED,CLINICAL STUDY SPONSOR
505,CDISCPILOT01,DM,01-708-1087,,,ITT,Intent to Treat Population Flag,Y,DERIVED,CLINICAL STUDY SPONSOR
506,CDISCPILOT01,DM,01-708-1087,,,SAFETY,Safety Population Flag,Y,DERIVED,CLINICAL STUDY SPONSOR
507,CDISCPILOT01,DM,01-708-1158,,,EFFICACY,Efficacy Population Flag,Y,DERIVED,CLINICAL STUDY SPONSOR
508,CDISCPILOT01,DM,01-708-1158,,,ITT,Intent to Treat Population Flag,Y,DERIVED,CLINICAL STUDY SPONSOR
509,CDISCPILOT01,DM,01-708-1158,,,SAFETY,Safety Population Flag,Y,DERIVED,CLINICAL STUDY SPONSOR
510,CDISCPILOT01,DM,01-708-1171,,,COMPLT16,Completers of Week 16 Population Flag,Y,DERIVED,CLINICAL STUDY SPONSOR
511,CDISCPILOT01,DM,01-708-1171,,,COMPLT24,Completers of Week 24 Population Flag,Y,DERIVED,CLINICAL STUDY SPONSOR
512,CDISCPILOT01,DM,01-708-1171,,,COMPLT8,Completers of Week 8 Population Flag,Y,DERIVED,CLINICAL STUDY SPONSOR
513,CDISCPILOT01,DM,01-708-1171,,,EFFICACY,Efficacy Population Flag,Y,DERIVED,CLINICAL STUDY SPONSOR
514,CDISCPILOT01,DM,01-708-1171,,,ITT,Intent to Treat Population Flag,Y,DERIVED,CLINICAL STUDY SPONSOR
515,CDISCPILOT01,DM,01-708-1171,,,SAFETY,Safety Population Flag,Y,DERIVED,CLINICAL STUDY SPONSOR
516,CDISCPILOT01,DM,01-708-1178,,,COMPLT8,Completers of Week 8 Population Flag,Y,DERIVED,CLINICAL STUDY SPONSOR
517,CDISCPILOT01,DM,01-708-1178,,,EFFICACY,Efficacy Population Flag,Y,DERIVED,CLINICAL STUDY SPONSOR
518,CDISCPILOT01,DM,01-708-1178,,,ITT,Intent to Treat Population Flag,Y,DERIVED,CLINICAL STUDY SPONSOR
519,CDISCPILOT01,DM,01-708-1178,,,SAFETY,Safety Population Flag,Y,DERIVED,CLINICAL STUDY SPONSOR
520,CDISCPILOT01,DM,01-708-1213,,,ITT,Intent to Treat Population Flag,Y,DERIVED,CLINICAL STUDY SPONSOR
521,CDISCPILOT01,DM,01-708-1213,,,SAFETY,Safety Population Flag,Y,DERIVED,CLINICAL STUDY SPONSOR
522,CDISCPILOT01,DM,01-708-1216,,,EFFICACY,Efficacy Population Flag,Y,DERIVED,CLINICAL STUDY SPONSOR
523,CDISCPILOT01,DM,01-708-1216,,,ITT,Intent to Treat Population Flag,Y,DERIVED,CLINICAL STUDY SPONSOR
524,CDISCPILOT01,DM,01-708-1216,,,SAFETY,Safety Population Flag,Y,DERIVED,CLINICAL STUDY SPONSOR
525,CDISCPILOT01,DM,01-708-1236,,,ITT,Intent to Treat Population Flag,Y,DERIVED,CLINICAL STUDY SPONSOR
526,CDISCPILOT01,DM,01-708-1236,,,SAFETY,Safety Population Flag,Y,DERIVED,CLINICAL STUDY SPONSOR
527,CDISCPILOT01,DM,01-708-1253,,,COMPLT16,Completers of Week 16 Population Flag,Y,DERIVED,CLINICAL STUDY SPONSOR
528,CDISCPILOT01,DM,01-708-1253,,,COMPLT24,Completers of Week 24 Population Flag,Y,DERIVED,CLINICAL STUDY SPONSOR
529,CDISCPILOT01,DM,01-708-1253,,,COMPLT8,Completers of Week 8 Population Flag,Y,DERIVED,CLINICAL STUDY SPONSOR
530,CDISCPILOT01,DM,01-708-1253,,,EFFICACY,Efficacy Population Flag,Y,DERIVED,CLINICAL STUDY SPONSOR
531,CDISCPILOT01,DM,01-708-1253,,,ITT,Intent to Treat Population Flag,Y,DERIVED,CLINICAL STUDY SPONSOR
532,CDISCPILOT01,DM,01-708-1253,,,SAFETY,Safety Population Flag,Y,DERIVED,CLINICAL STUDY SPONSOR
533,CDISCPILOT01,DM,01-708-1272,,,COMPLT8,Completers of Week 8 Population Flag,Y,DERIVED,CLINICAL STUDY SPONSOR
534,CDISCPILOT01,DM,01-708-1272,,,EFFICACY,Efficacy Population Flag,Y,DERIVED,CLINICAL STUDY SPONSOR
535,CDISCPILOT01,DM,01-708-1272,,,ITT,Intent to Treat Population Flag,Y,DERIVED,CLINICAL STUDY SPONSOR
536,CDISCPILOT01,DM,01-708-1272,,,SAFETY,Safety Population Flag,Y,DERIVED,CLINICAL STUDY SPONSOR
537,CDISCPILOT01,DM,01-708-1286,,,COMPLT16,Completers of Week 16 Population Flag,Y,DERIVED,CLINICAL STUDY SPONSOR
538,CDISCPILOT01,DM,01-708-1286,,,COMPLT24,Completers of Week 24 Population Flag,Y,DERIVED,CLINICAL STUDY SPONSOR
539,CDISCPILOT01,DM,01-708-1286,,,COMPLT8,Completers of Week 8 Population Flag,Y,DERIVED,CLINICAL STUDY SPONSOR
540,CDISCPILOT01,DM,01-708-1286,,,EFFICACY,Efficacy Population Flag,Y,DERIVED,CLINICAL STUDY SPONSOR
541,CDISCPILOT01,DM,01-708-1286,,,ITT,Intent to Treat Population Flag,Y,DERIVED,CLINICAL STUDY SPONSOR
542,CDISCPILOT01,DM,01-708-1286,,,SAFETY,Safety Population Flag,Y,DERIVED,CLINICAL STUDY SPONSOR
543,CDISCPILOT01,DM,01-708-1296,,,COMPLT16,Completers of Week 16 Population Flag,Y,DERIVED,CLINICAL STUDY SPONSOR
544,CDISCPILOT01,DM,01-708-1296,,,COMPLT24,Completers of Week 24 Population Flag,Y,DERIVED,CLINICAL STUDY SPONSOR
545,CDISCPILOT01,DM,01-708-1296,,,COMPLT8,Completers of Week 8 Population Flag,Y,DERIVED,CLINICAL STUDY SPONSOR
546,CDISCPILOT01,DM,01-708-1296,,,EFFICACY,Efficacy Population Flag,Y,DERIVED,CLINICAL STUDY SPONSOR
547,CDISCPILOT01,DM,01-708-1296,,,ITT,Intent to Treat Population Flag,Y,DERIVED,CLINICAL STUDY SPONSOR
548,CDISCPILOT01,DM,01-708-1296,,,SAFETY,Safety Population Flag,Y,DERIVED,CLINICAL STUDY SPONSOR
549,CDISCPILOT01,DM,01-708-1297,,,COMPLT16,Completers of Week 16 Population Flag,Y,DERIVED,CLINICAL STUDY SPONSOR
550,CDISCPILOT01,DM,01-708-1297,,,COMPLT8,Completers of Week 8 Population Flag,Y,DERIVED,CLINICAL STUDY SPONSOR
551,CDISCPILOT01,DM,01-708-1297,,,EFFICACY,Efficacy Population Flag,Y,DERIVED,CLINICAL STUDY SPONSOR
552,CDISCPILOT01,DM,01-708-1297,,,ITT,Intent to Treat Population Flag,Y,DERIVED,CLINICAL STUDY SPONSOR
553,CDISCPILOT01,DM,01-708-1297,,,SAFETY,Safety Population Flag,Y,DERIVED,CLINICAL STUDY SPONSOR
554,CDISCPILOT01,DM,01-708-1316,,,COMPLT16,Completers of Week 16 Population Flag,Y,DERIVED,CLINICAL STUDY SPONSOR
555,CDISCPILOT01,DM,01-708-1316,,,COMPLT24,Completers of Week 24 Population Flag,Y,DERIVED,CLINICAL STUDY SPONSOR
556,CDISCPILOT01,DM,01-708-1316,,,COMPLT8,Completers of Week 8 Population Flag,Y,DERIVED,CLINICAL STUDY SPONSOR
557,CDISCPILOT01,DM,01-708-1316,,,EFFICACY,Efficacy Population Flag,Y,DERIVED,CLINICAL STUDY SPONSOR
558,CDISCPILOT01,DM,01-708-1316,,,ITT,Intent to Treat Population Flag,Y,DERIVED,CLINICAL STUDY SPONSOR
559,CDISCPILOT01,DM,01-708-1316,,,SAFETY,Safety Population Flag,Y,DERIVED,CLINICAL STUDY SPONSOR
560,CDISCPILOT01,DM,01-708-1336,,,COMPLT16,Completers of Week 16 Population Flag,Y,DERIVED,CLINICAL STUDY SPONSOR
561,CDISCPILOT01,DM,01-708-1336,,,COMPLT24,Completers of Week 24 Population Flag,Y,DERIVED,CLINICAL STUDY SPONSOR
562,CDISCPILOT01,DM,01-708-1336,,,COMPLT8,Completers of Week 8 Population Flag,Y,DERIVED,CLINICAL STUDY SPONSOR
563,CDISCPILOT01,DM,01-708-1336,,,EFFICACY,Efficacy Population Flag,Y,DERIVED,CLINICAL STUDY SPONSOR
564,CDISCPILOT01,DM,01-708-1336,,,ITT,Intent to Treat Population Flag,Y,DERIVED,CLINICAL STUDY SPONSOR
565,CDISCPILOT01,DM,01-708-1336,,,SAFETY,Safety Population Flag,Y,DERIVED,CLINICAL STUDY SPONSOR
566,CDISCPILOT01,DM,01-708-1342,,,COMPLT16,Completers of Week 16 Population Flag,Y,DERIVED,CLINICAL STUDY SPONSOR
567,CDISCPILOT01,DM,01-708-1342,,,COMPLT24,Completers of Week 24 Population Flag,Y,DERIVED,CLINICAL STUDY SPONSOR
568,CDISCPILOT01,DM,01-708-1342,,,COMPLT8,Completers of Week 8 Population Flag,Y,DERIVED,CLINICAL STUDY SPONSOR
569,CDISCPILOT01,DM,01-708-1342,,,EFFICACY,Efficacy Population Flag,Y,DERIVED,CLINICAL STUDY SPONSOR
570,CDISCPILOT01,DM,01-708-1342,,,ITT,Intent to Treat Population Flag,Y,DERIVED,CLINICAL STUDY SPONSOR
571,CDISCPILOT01,DM,01-708-1342,,,SAFETY,Safety Population Flag,Y,DERIVED,CLINICAL STUDY SPONSOR
572,CDISCPILOT01,DM,01-708-1347,,,COMPLT8,Completers of Week 8 Population Flag,Y,DERIVED,CLINICAL STUDY SPONSOR
573,CDISCPILOT01,DM,01-708-1347,,,EFFICACY,Efficacy Population Flag,Y,DERIVED,CLINICAL STUDY SPONSOR
574,CDISCPILOT01,DM,01-708-1347,,,ITT,Intent to Treat Population Flag,Y,DERIVED,CLINICAL STUDY SPONSOR
575,CDISCPILOT01,DM,01-708-1347,,,SAFETY,Safety Population Flag,Y,DERIVED,CLINICAL STUDY SPONSOR
576,CDISCPILOT01,DM,01-708-1348,,,COMPLT16,Completers of Week 16 Population Flag,Y,DERIVED,CLINICAL STUDY SPONSOR
577,CDISCPILOT01,DM,01-708-1348,,,COMPLT24,Completers of Week 24 Population Flag,Y,DERIVED,CLINICAL STUDY SPONSOR
578,CDISCPILOT01,DM,01-708-1348,,,COMPLT8,Completers of Week 8 Population Flag,Y,DERIVED,CLINICAL STUDY SPONSOR
579,CDISCPILOT01,DM,01-708-1348,,,EFFICACY,Efficacy Population Flag,Y,DERIVED,CLINICAL STUDY SPONSOR
580,CDISCPILOT01,DM,01-708-1348,,,ITT,Intent to Treat Population Flag,Y,DERIVED,CLINICAL STUDY SPONSOR
581,CDISCPILOT01,DM,01-708-1348,,,SAFETY,Safety Population Flag,Y,DERIVED,CLINICAL STUDY SPONSOR
582,CDISCPILOT01,DM,01-708-1353,,,COMPLT8,Completers of Week 8 Population Flag,Y,DERIVED,CLINICAL STUDY SPONSOR
583,CDISCPILOT01,DM,01-708-1353,,,EFFICACY,Efficacy Population Flag,Y,DERIVED,CLINICAL STUDY SPONSOR
584,CDISCPILOT01,DM,01-708-1353,,,ITT,Intent to Treat Population Flag,Y,DERIVED,CLINICAL STUDY SPONSOR
585,CDISCPILOT01,DM,01-708-1353,,,SAFETY,Safety Population Flag,Y,DERIVED,CLINICAL STUDY SPONSOR
586,CDISCPILOT01,DM,01-708-1372,,,ITT,Intent to Treat Population Flag,Y,DERIVED,CLINICAL STUDY SPONSOR
587,CDISCPILOT01,DM,01-708-1372,,,SAFETY,Safety Population Flag,Y,DERIVED,CLINICAL STUDY SPONSOR
588,CDISCPILOT01,DM,01-708-1378,,,COMPLT16,Completers of Week 16 Population Flag,Y,DERIVED,CLINICAL STUDY SPONSOR
589,CDISCPILOT01,DM,01-708-1378,,,COMPLT8,Completers of Week 8 Population Flag,Y,DERIVED,CLINICAL STUDY SPONSOR
590,CDISCPILOT01,DM,01-708-1378,,,EFFICACY,Efficacy Population Flag,Y,DERIVED,CLINICAL STUDY SPONSOR
591,CDISCPILOT01,DM,01-708-1378,,,ITT,Intent to Treat Population Flag,Y,DERIVED,CLINICAL STUDY SPONSOR
592,CDISCPILOT01,DM,01-708-1378,,,SAFETY,Safety Population Flag,Y,DERIVED,CLINICAL STUDY SPONSOR
593,CDISCPILOT01,DM,01-708-1406,,,COMPLT16,Completers of Week 16 Population Flag,Y,DERIVED,CLINICAL STUDY SPONSOR
594,CDISCPILOT01,DM,01-708-1406,,,COMPLT24,Completers of Week 24 Population Flag,Y,DERIVED,CLINICAL STUDY SPONSOR
595,CDISCPILOT01,DM,01-708-1406,,,COMPLT8,Completers of Week 8 Population Flag,Y,DERIVED,CLINICAL STUDY SPONSOR
596,CDISCPILOT01,DM,01-708-1406,,,EFFICACY,Efficacy Population Flag,Y,DERIVED,CLINICAL STUDY SPONSOR
597,CDISCPILOT01,DM,01-708-1406,,,ITT,Intent to Treat Population Flag,Y,DERIVED,CLINICAL STUDY SPONSOR
598,CDISCPILOT01,DM,01-708-1406,,,SAFETY,Safety Population Flag,Y,DERIVED,CLINICAL STUDY SPONSOR
599,CDISCPILOT01,DM,01-708-1428,,,COMPLT8,Completers of Week 8 Population Flag,Y,DERIVED,CLINICAL STUDY SPONSOR
600,CDISCPILOT01,DM,01-708-1428,,,EFFICACY,Efficacy Population Flag,Y,DERIVED,CLINICAL STUDY SPONSOR
601,CDISCPILOT01,DM,01-708-1428,,,ITT,Intent to Treat Population Flag,Y,DERIVED,CLINICAL STUDY SPONSOR
602,CDISCPILOT01,DM,01-708-1428,,,SAFETY,Safety Population Flag,Y,DERIVED,CLINICAL STUDY SPONSOR
603,CDISCPILOT01,DM,01-709-1001,,,COMPLT16,Completers of Week 16 Population Flag,Y,DERIVED,CLINICAL STUDY SPONSOR
604,CDISCPILOT01,DM,01-709-1001,,,COMPLT24,Completers of Week 24 Population Flag,Y,DERIVED,CLINICAL STUDY SPONSOR
605,CDISCPILOT01,DM,01-709-1001,,,COMPLT8,Completers of Week 8 Population Flag,Y,DERIVED,CLINICAL STUDY SPONSOR
606,CDISCPILOT01,DM,01-709-1001,,,EFFICACY,Efficacy Population Flag,Y,DERIVED,CLINICAL STUDY SPONSOR
607,CDISCPILOT01,DM,01-709-1001,,,ITT,Intent to Treat Population Flag,Y,DERIVED,CLINICAL STUDY SPONSOR
608,CDISCPILOT01,DM,01-709-1001,,,SAFETY,Safety Population Flag,Y,DERIVED,CLINICAL STUDY SPONSOR
609,CDISCPILOT01,DM,01-709-1007,,,ITT,Intent to Treat Population Flag,Y,DERIVED,CLINICAL STUDY SPONSOR
610,CDISCPILOT01,DM,01-709-1007,,,SAFETY,Safety Population Flag,Y,DERIVED,CLINICAL STUDY SPONSOR
611,CDISCPILOT01,DM,01-709-1020,,,COMPLT16,Completers of Week 16 Population Flag,Y,DERIVED,CLINICAL STUDY SPONSOR
612,CDISCPILOT01,DM,01-709-1020,,,COMPLT24,Completers of Week 24 Population Flag,Y,DERIVED,CLINICAL STUDY SPONSOR
613,CDISCPILOT01,DM,01-709-1020,,,COMPLT8,Completers of Week 8 Population Flag,Y,DERIVED,CLINICAL STUDY SPONSOR
614,CDISCPILOT01,DM,01-709-1020,,,EFFICACY,Efficacy Population Flag,Y,DERIVED,CLINICAL STUDY SPONSOR
615,CDISCPILOT01,DM,01-709-1020,,,ITT,Intent to Treat Population Flag,Y,DERIVED,CLINICAL STUDY SPONSOR
616,CDISCPILOT01,DM,01-709-1020,,,SAFETY,Safety Population Flag,Y,DERIVED,CLINICAL STUDY SPONSOR
617,CDISCPILOT01,DM,01-709-1029,,,COMPLT16,Completers of Week 16 Population Flag,Y,DERIVED,CLINICAL STUDY SPONSOR
618,CDISCPILOT01,DM,01-709-1029,,,COMPLT24,Completers of Week 24 Population Flag,Y,DERIVED,CLINICAL STUDY SPONSOR
619,CDISCPILOT01,DM,01-709-1029,,,COMPLT8,Completers of Week 8 Population Flag,Y,DERIVED,CLINICAL STUDY SPONSOR
620,CDISCPILOT01,DM,01-709-1029,,,EFFICACY,Efficacy Population Flag,Y,DERIVED,CLINICAL STUDY SPONSOR
621,CDISCPILOT01,DM,01-709-1029,,,ITT,Intent to Treat Population Flag,Y,DERIVED,CLINICAL STUDY SPONSOR
622,CDISCPILOT01,DM,01-709-1029,,,SAFETY,Safety Population Flag,Y,DERIVED,CLINICAL STUDY SPONSOR
623,CDISCPILOT01,DM,01-709-1081,,,COMPLT16,Completers of Week 16 Population Flag,Y,DERIVED,CLINICAL STUDY SPONSOR
624,CDISCPILOT01,DM,01-709-1081,,,COMPLT8,Completers of Week 8 Population Flag,Y,DERIVED,CLINICAL STUDY SPONSOR
625,CDISCPILOT01,DM,01-709-1081,,,EFFICACY,Efficacy Population Flag,Y,DERIVED,CLINICAL STUDY SPONSOR
626,CDISCPILOT01,DM,01-709-1081,,,ITT,Intent to Treat Population Flag,Y,DERIVED,CLINICAL STUDY SPONSOR
627,CDISCPILOT01,DM,01-709-1081,,,SAFETY,Safety Population Flag,Y,DERIVED,CLINICAL STUDY SPONSOR
628,CDISCPILOT01,DM,01-709-1088,,,COMPLT16,Completers of Week 16 Population Flag,Y,DERIVED,CLINICAL STUDY SPONSOR
629,CDISCPILOT01,DM,01-709-1088,,,COMPLT24,Completers of Week 24 Population Flag,Y,DERIVED,CLINICAL STUDY SPONSOR
630,CDISCPILOT01,DM,01-709-1088,,,COMPLT8,Completers of Week 8 Population Flag,Y,DERIVED,CLINICAL STUDY SPONSOR
631,CDISCPILOT01,DM,01-709-1088,,,EFFICACY,Efficacy Population Flag,Y,DERIVED,CLINICAL STUDY SPONSOR
632,CDISCPILOT01,DM,01-709-1088,,,ITT,Intent to Treat Population Flag,Y,DERIVED,CLINICAL STUDY SPONSOR
633,CDISCPILOT01,DM,01-709-1088,,,SAFETY,Safety Population Flag,Y,DERIVED,CLINICAL STUDY SPONSOR
634,CDISCPILOT01,DM,01-709-1099,,,COMPLT16,Completers of Week 16 Population Flag,Y,DERIVED,CLINICAL STUDY SPONSOR
635,CDISCPILOT01,DM,01-709-1099,,,COMPLT24,Completers of Week 24 Population Flag,Y,DERIVED,CLINICAL STUDY SPONSOR
636,CDISCPILOT01,DM,01-709-1099,,,COMPLT8,Completers of Week 8 Population Flag,Y,DERIVED,CLINICAL STUDY SPONSOR
637,CDISCPILOT01,DM,01-709-1099,,,EFFICACY,Efficacy Population Flag,Y,DERIVED,CLINICAL STUDY SPONSOR
638,CDISCPILOT01,DM,01-709-1099,,,ITT,Intent to Treat Population Flag,Y,DERIVED,CLINICAL STUDY SPONSOR
639,CDISCPILOT01,DM,01-709-1099,,,SAFETY,Safety Population Flag,Y,DERIVED,CLINICAL STUDY SPONSOR
640,CDISCPILOT01,DM,01-709-1102,,,COMPLT8,Completers of Week 8 Population Flag,Y,DERIVED,CLINICAL STUDY SPONSOR
641,CDISCPILOT01,DM,01-709-1102,,,EFFICACY,Efficacy Population Flag,Y,DERIVED,CLINICAL STUDY SPONSOR
642,CDISCPILOT01,DM,01-709-1102,,,ITT,Intent to Treat Population Flag,Y,DERIVED,CLINICAL STUDY SPONSOR
643,CDISCPILOT01,DM,01-709-1102,,,SAFETY,Safety Population Flag,Y,DERIVED,CLINICAL STUDY SPONSOR
644,CDISCPILOT01,DM,01-709-1168,,,COMPLT8,Completers of Week 8 Population Flag,Y,DERIVED,CLINICAL STUDY SPONSOR
645,CDISCPILOT01,DM,01-709-1168,,,EFFICACY,Efficacy Population Flag,Y,DERIVED,CLINICAL STUDY SPONSOR
646,CDISCPILOT01,DM,01-709-1168,,,ITT,Intent to Treat Population Flag,Y,DERIVED,CLINICAL STUDY SPONSOR
647,CDISCPILOT01,DM,01-709-1168,,,SAFETY,Safety Population Flag,Y,DERIVED,CLINICAL STUDY SPONSOR
648,CDISCPILOT01,DM,01-709-1217,,,COMPLT16,Completers of Week 16 Population Flag,Y,DERIVED,CLINICAL STUDY SPONSOR
649,CDISCPILOT01,DM,01-709-1217,,,COMPLT8,Completers of Week 8 Population Flag,Y,DERIVED,CLINICAL STUDY SPONSOR
650,CDISCPILOT01,DM,01-709-1217,,,EFFICACY,Efficacy Population Flag,Y,DERIVED,CLINICAL STUDY SPONSOR
651,CDISCPILOT01,DM,01-709-1217,,,ITT,Intent to Treat Population Flag,Y,DERIVED,CLINICAL STUDY SPONSOR
652,CDISCPILOT01,DM,01-709-1217,,,SAFETY,Safety Population Flag,Y,DERIVED,CLINICAL STUDY SPONSOR
653,CDISCPILOT01,DM,01-709-1238,,,COMPLT8,Completers of Week 8 Population Flag,Y,DERIVED,CLINICAL STUDY SPONSOR
654,CDISCPILOT01,DM,01-709-1238,,,EFFICACY,Efficacy Population Flag,Y,DERIVED,CLINICAL STUDY SPONSOR
655,CDISCPILOT01,DM,01-709-1238,,,ITT,Intent to Treat Population Flag,Y,DERIVED,CLINICAL STUDY SPONSOR
656,CDISCPILOT01,DM,01-709-1238,,,SAFETY,Safety Population Flag,Y,DERIVED,CLINICAL STUDY SPONSOR
657,CDISCPILOT01,DM,01-709-1259,,,COMPLT16,Completers of Week 16 Population Flag,Y,DERIVED,CLINICAL STUDY SPONSOR
658,CDISCPILOT01,DM,01-709-1259,,,COMPLT8,Completers of Week 8 Population Flag,Y,DERIVED,CLINICAL STUDY SPONSOR
659,CDISCPILOT01,DM,01-709-1259,,,EFFICACY,Efficacy Population Flag,Y,DERIVED,CLINICAL STUDY SPONSOR
660,CDISCPILOT01,DM,01-709-1259,,,ITT,Intent to Treat Population Flag,Y,DERIVED,CLINICAL STUDY SPONSOR
661,CDISCPILOT01,DM,01-709-1259,,,SAFETY,Safety Population Flag,Y,DERIVED,CLINICAL STUDY SPONSOR
662,CDISCPILOT01,DM,01-709-1285,,,COMPLT8,Completers of Week 8 Population Flag,Y,DERIVED,CLINICAL STUDY SPONSOR
663,CDISCPILOT01,DM,01-709-1285,,,EFFICACY,Efficacy Population Flag,Y,DERIVED,CLINICAL STUDY SPONSOR
664,CDISCPILOT01,DM,01-709-1285,,,ITT,Intent to Treat Population Flag,Y,DERIVED,CLINICAL STUDY SPONSOR
665,CDISCPILOT01,DM,01-709-1285,,,SAFETY,Safety Population Flag,Y,DERIVED,CLINICAL STUDY SPONSOR
666,CDISCPILOT01,DM,01-709-1301,,,COMPLT16,Completers of Week 16 Population Flag,Y,DERIVED,CLINICAL STUDY SPONSOR
667,CDISCPILOT01,DM,01-709-1301,,,COMPLT24,Completers of Week 24 Population Flag,Y,DERIVED,CLINICAL STUDY SPONSOR
668,CDISCPILOT01,DM,01-709-1301,,,COMPLT8,Completers of Week 8 Population Flag,Y,DERIVED,CLINICAL STUDY SPONSOR
669,CDISCPILOT01,DM,01-709-1301,,,EFFICACY,Efficacy Population Flag,Y,DERIVED,CLINICAL STUDY SPONSOR
670,CDISCPILOT01,DM,01-709-1301,,,ITT,Intent to Treat Population Flag,Y,DERIVED,CLINICAL STUDY SPONSOR
671,CDISCPILOT01,DM,01-709-1301,,,SAFETY,Safety Population Flag,Y,DERIVED,CLINICAL STUDY SPONSOR
672,CDISCPILOT01,DM,01-709-1306,,,COMPLT16,Completers of Week 16 Population Flag,Y,DERIVED,CLINICAL STUDY SPONSOR
673,CDISCPILOT01,DM,01-709-1306,,,COMPLT8,Completers of Week 8 Population Flag,Y,DERIVED,CLINICAL STUDY SPONSOR
674,CDISCPILOT01,DM,01-709-1306,,,EFFICACY,Efficacy Population Flag,Y,DERIVED,CLINICAL STUDY SPONSOR
675,CDISCPILOT01,DM,01-709-1306,,,ITT,Intent to Treat Population Flag,Y,DERIVED,CLINICAL STUDY SPONSOR
676,CDISCPILOT01,DM,01-709-1306,,,SAFETY,Safety Population Flag,Y,DERIVED,CLINICAL STUDY SPONSOR
677,CDISCPILOT01,DM,01-709-1309,,,COMPLT16,Completers of Week 16 Population Flag,Y,DERIVED,CLINICAL STUDY SPONSOR
678,CDISCPILOT01,DM,01-709-1309,,,COMPLT24,Completers of Week 24 Population Flag,Y,DERIVED,CLINICAL STUDY SPONSOR
679,CDISCPILOT01,DM,01-709-1309,,,COMPLT8,Completers of Week 8 Population Flag,Y,DERIVED,CLINICAL STUDY SPONSOR
680,CDISCPILOT01,DM,01-709-1309,,,EFFICACY,Efficacy Population Flag,Y,DERIVED,CLINICAL STUDY SPONSOR
681,CDISCPILOT01,DM,01-709-1309,,,ITT,Intent to Treat Population Flag,Y,DERIVED,CLINICAL STUDY SPONSOR
682,CDISCPILOT01,DM,01-709-1309,,,SAFETY,Safety Population Flag,Y,DERIVED,CLINICAL STUDY SPONSOR
683,CDISCPILOT01,DM,01-709-1312,,,COMPLT16,Completers of Week 16 Population Flag,Y,DERIVED,CLINICAL STUDY SPONSOR
684,CDISCPILOT01,DM,01-709-1312,,,COMPLT24,Completers of Week 24 Population Flag,Y,DERIVED,CLINICAL STUDY SPONSOR
685,CDISCPILOT01,DM,01-709-1312,,,COMPLT8,Completers of Week 8 Population Flag,Y,DERIVED,CLINICAL STUDY SPONSOR
686,CDISCPILOT01,DM,01-709-1312,,,EFFICACY,Efficacy Population Flag,Y,DERIVED,CLINICAL STUDY SPONSOR
687,CDISCPILOT01,DM,01-709-1312,,,ITT,Intent to Treat Population Flag,Y,DERIVED,CLINICAL STUDY SPONSOR
688,CDISCPILOT01,DM,01-709-1312,,,SAFETY,Safety Population Flag,Y,DERIVED,CLINICAL STUDY SPONSOR
689,CDISCPILOT01,DM,01-709-1326,,,COMPLT16,Completers of Week 16 Population Flag,Y,DERIVED,CLINICAL STUDY SPONSOR
690,CDISCPILOT01,DM,01-709-1326,,,COMPLT24,Completers of Week 24 Population Flag,Y,DERIVED,CLINICAL STUDY SPONSOR
691,CDISCPILOT01,DM,01-709-1326,,,COMPLT8,Completers of Week 8 Population Flag,Y,DERIVED,CLINICAL STUDY SPONSOR
692,CDISCPILOT01,DM,01-709-1326,,,EFFICACY,Efficacy Population Flag,Y,DERIVED,CLINICAL STUDY SPONSOR
693,CDISCPILOT01,DM,01-709-1326,,,ITT,Intent to Treat Population Flag,Y,DERIVED,CLINICAL STUDY SPONSOR
694,CDISCPILOT01,DM,01-709-1326,,,SAFETY,Safety Population Flag,Y,DERIVED,CLINICAL STUDY SPONSOR
695,CDISCPILOT01,DM,01-709-1329,,,EFFICACY,Efficacy Population Flag,Y,DERIVED,CLINICAL STUDY SPONSOR
696,CDISCPILOT01,DM,01-709-1329,,,ITT,Intent to Treat Population Flag,Y,DERIVED,CLINICAL STUDY SPONSOR
697,CDISCPILOT01,DM,01-709-1329,,,SAFETY,Safety Population Flag,Y,DERIVED,CLINICAL STUDY SPONSOR
698,CDISCPILOT01,DM,01-709-1339,,,COMPLT16,Completers of Week 16 Population Flag,Y,DERIVED,CLINICAL STUDY SPONSOR
699,CDISCPILOT01,DM,01-709-1339,,,COMPLT24,Completers of Week 24 Population Flag,Y,DERIVED,CLINICAL STUDY SPONSOR
700,CDISCPILOT01,DM,01-709-1339,,,COMPLT8,Completers of Week 8 Population Flag,Y,DERIVED,CLINICAL STUDY SPONSOR
701,CDISCPILOT01,DM,01-709-1339,,,EFFICACY,Efficacy Population Flag,Y,DERIVED,CLINICAL STUDY SPONSOR
702,CDISCPILOT01,DM,01-709-1339,,,ITT,Intent to Treat Population Flag,Y,DERIVED,CLINICAL STUDY SPONSOR
703,CDISCPILOT01,DM,01-709-1339,,,SAFETY,Safety Population Flag,Y,DERIVED,CLINICAL STUDY SPONSOR
704,CDISCPILOT01,DM,01-709-1424,,,EFFICACY,Efficacy Population Flag,Y,DERIVED,CLINICAL STUDY SPONSOR
705,CDISCPILOT01,DM,01-709-1424,,,ITT,Intent to Treat Population Flag,Y,DERIVED,CLINICAL STUDY SPONSOR
706,CDISCPILOT01,DM,01-709-1424,,,SAFETY,Safety Population Flag,Y,DERIVED,CLINICAL STUDY SPONSOR
707,CDISCPILOT01,DM,01-710-1002,,,EFFICACY,Efficacy Population Flag,Y,DERIVED,CLINICAL STUDY SPONSOR
708,CDISCPILOT01,DM,01-710-1002,,,ITT,Intent to Treat Population Flag,Y,DERIVED,CLINICAL STUDY SPONSOR
709,CDISCPILOT01,DM,01-710-1002,,,SAFETY,Safety Population Flag,Y,DERIVED,CLINICAL STUDY SPONSOR
710,CDISCPILOT01,DM,01-710-1006,,,COMPLT16,Completers of Week 16 Population Flag,Y,DERIVED,CLINICAL STUDY SPONSOR
711,CDISCPILOT01,DM,01-710-1006,,,COMPLT24,Completers of Week 24 Population Flag,Y,DERIVED,CLINICAL STUDY SPONSOR
712,CDISCPILOT01,DM,01-710-1006,,,COMPLT8,Completers of Week 8 Population Flag,Y,DERIVED,CLINICAL STUDY SPONSOR
713,CDISCPILOT01,DM,01-710-1006,,,EFFICACY,Efficacy Population Flag,Y,DERIVED,CLINICAL STUDY SPONSOR
714,CDISCPILOT01,DM,01-710-1006,,,ITT,Intent to Treat Population Flag,Y,DERIVED,CLINICAL STUDY SPONSOR
715,CDISCPILOT01,DM,01-710-1006,,,SAFETY,Safety Population Flag,Y,DERIVED,CLINICAL STUDY SPONSOR
716,CDISCPILOT01,DM,01-710-1021,,,ITT,Intent to Treat Population Flag,Y,DERIVED,CLINICAL STUDY SPONSOR
717,CDISCPILOT01,DM,01-710-1021,,,SAFETY,Safety Population Flag,Y,DERIVED,CLINICAL STUDY SPONSOR
718,CDISCPILOT01,DM,01-710-1027,,,COMPLT16,Completers of Week 16 Population Flag,Y,DERIVED,CLINICAL STUDY SPONSOR
719,CDISCPILOT01,DM,01-710-1027,,,COMPLT24,Completers of Week 24 Population Flag,Y,DERIVED,CLINICAL STUDY SPONSOR
720,CDISCPILOT01,DM,01-710-1027,,,COMPLT8,Completers of Week 8 Population Flag,Y,DERIVED,CLINICAL STUDY SPONSOR
721,CDISCPILOT01,DM,01-710-1027,,,EFFICACY,Efficacy Population Flag,Y,DERIVED,CLINICAL STUDY SPONSOR
722,CDISCPILOT01,DM,01-710-1027,,,ITT,Intent to Treat Population Flag,Y,DERIVED,CLINICAL STUDY SPONSOR
723,CDISCPILOT01,DM,01-710-1027,,,SAFETY,Safety Population Flag,Y,DERIVED,CLINICAL STUDY SPONSOR
724,CDISCPILOT01,DM,01-710-1045,,,COMPLT8,Completers of Week 8 Population Flag,Y,DERIVED,CLINICAL STUDY SPONSOR
725,CDISCPILOT01,DM,01-710-1045,,,EFFICACY,Efficacy Population Flag,Y,DERIVED,CLINICAL STUDY SPONSOR
726,CDISCPILOT01,DM,01-710-1045,,,ITT,Intent to Treat Population Flag,Y,DERIVED,CLINICAL STUDY SPONSOR
727,CDISCPILOT01,DM,01-710-1045,,,SAFETY,Safety Population Flag,Y,DERIVED,CLINICAL STUDY SPONSOR
728,CDISCPILOT01,DM,01-710-1053,,,COMPLT8,Completers of Week 8 Population Flag,Y,DERIVED,CLINICAL STUDY SPONSOR
729,CDISCPILOT01,DM,01-710-1053,,,EFFICACY,Efficacy Population Flag,Y,DERIVED,CLINICAL STUDY SPONSOR
730,CDISCPILOT01,DM,01-710-1053,,,ITT,Intent to Treat Population Flag,Y,DERIVED,CLINICAL STUDY SPONSOR
731,CDISCPILOT01,DM,01-710-1053,,,SAFETY,Safety Population Flag,Y,DERIVED,CLINICAL STUDY SPONSOR
732,CDISCPILOT01,DM,01-710-1060,,,COMPLT16,Completers of Week 16 Population Flag,Y,DERIVED,CLINICAL STUDY SPONSOR
733,CDISCPILOT01,DM,01-710-1060,,,COMPLT24,Completers of Week 24 Population Flag,Y,DERIVED,CLINICAL STUDY SPONSOR
734,CDISCPILOT01,DM,01-710-1060,,,COMPLT8,Completers of Week 8 Population Flag,Y,DERIVED,CLINICAL STUDY SPONSOR
735,CDISCPILOT01,DM,01-710-1060,,,EFFICACY,Efficacy Population Flag,Y,DERIVED,CLINICAL STUDY SPONSOR
736,CDISCPILOT01,DM,01-710-1060,,,ITT,Intent to Treat Population Flag,Y,DERIVED,CLINICAL STUDY SPONSOR
737,CDISCPILOT01,DM,01-710-1060,,,SAFETY,Safety Population Flag,Y,DERIVED,CLINICAL STUDY SPONSOR
738,CDISCPILOT01,DM,01-710-1070,,,COMPLT16,Completers of Week 16 Population Flag,Y,DERIVED,CLINICAL STUDY SPONSOR
739,CDISCPILOT01,DM,01-710-1070,,,COMPLT8,Completers of Week 8 Population Flag,Y,DERIVED,CLINICAL STUDY SPONSOR
740,CDISCPILOT01,DM,01-710-1070,,,EFFICACY,Efficacy Population Flag,Y,DERIVED,CLINICAL STUDY SPONSOR
741,CDISCPILOT01,DM,01-710-1070,,,ITT,Intent to Treat Population Flag,Y,DERIVED,CLINICAL STUDY SPONSOR
742,CDISCPILOT01,DM,01-710-1070,,,SAFETY,Safety Population Flag,Y,DERIVED,CLINICAL STUDY SPONSOR
743,CDISCPILOT01,DM,01-710-1077,,,COMPLT16,Completers of Week 16 Population Flag,Y,DERIVED,CLINICAL STUDY SPONSOR
744,CDISCPILOT01,DM,01-710-1077,,,COMPLT24,Completers of Week 24 Population Flag,Y,DERIVED,CLINICAL STUDY SPONSOR
745,CDISCPILOT01,DM,01-710-1077,,,COMPLT8,Completers of Week 8 Population Flag,Y,DERIVED,CLINICAL STUDY SPONSOR
746,CDISCPILOT01,DM,01-710-1077,,,EFFICACY,Efficacy Population Flag,Y,DERIVED,CLINICAL STUDY SPONSOR
747,CDISCPILOT01,DM,01-710-1077,,,ITT,Intent to Treat Population Flag,Y,DERIVED,CLINICAL STUDY SPONSOR
748,CDISCPILOT01,DM,01-710-1077,,,SAFETY,Safety Population Flag,Y,DERIVED,CLINICAL STUDY SPONSOR
749,CDISCPILOT01,DM,01-710-1078,,,COMPLT16,Completers of Week 16 Population Flag,Y,DERIVED,CLINICAL STUDY SPONSOR
750,CDISCPILOT01,DM,01-710-1078,,,COMPLT24,Completers of Week 24 Population Flag,Y,DERIVED,CLINICAL STUDY SPONSOR
751,CDISCPILOT01,DM,01-710-1078,,,COMPLT8,Completers of Week 8 Population Flag,Y,DERIVED,CLINICAL STUDY SPONSOR
752,CDISCPILOT01,DM,01-710-1078,,,EFFICACY,Efficacy Population Flag,Y,DERIVED,CLINICAL STUDY SPONSOR
753,CDISCPILOT01,DM,01-710-1078,,,ITT,Intent to Treat Population Flag,Y,DERIVED,CLINICAL STUDY SPONSOR
754,CDISCPILOT01,DM,01-710-1078,,,SAFETY,Safety Population Flag,Y,DERIVED,CLINICAL STUDY SPONSOR
755,CDISCPILOT01,DM,01-710-1083,,,ITT,Intent to Treat Population Flag,Y,DERIVED,CLINICAL STUDY SPONSOR
756,CDISCPILOT01,DM,01-710-1083,,,SAFETY,Safety Population Flag,Y,DERIVED,CLINICAL STUDY SPONSOR
757,CDISCPILOT01,DM,01-710-1137,,,ITT,Intent to Treat Population Flag,Y,DERIVED,CLINICAL STUDY SPONSOR
758,CDISCPILOT01,DM,01-710-1137,,,SAFETY,Safety Population Flag,Y,DERIVED,CLINICAL STUDY SPONSOR
759,CDISCPILOT01,DM,01-710-1142,,,EFFICACY,Efficacy Population Flag,Y,DERIVED,CLINICAL STUDY SPONSOR
760,CDISCPILOT01,DM,01-710-1142,,,ITT,Intent to Treat Population Flag,Y,DERIVED,CLINICAL STUDY SPONSOR
761,CDISCPILOT01,DM,01-710-1142,,,SAFETY,Safety Population Flag,Y,DERIVED,CLINICAL STUDY SPONSOR
762,CDISCPILOT01,DM,01-710-1154,,,EFFICACY,Efficacy Population Flag,Y,DERIVED,CLINICAL STUDY SPONSOR
763,CDISCPILOT01,DM,01-710-1154,,,ITT,Intent to Treat Population Flag,Y,DERIVED,CLINICAL STUDY SPONSOR
764,CDISCPILOT01,DM,01-710-1154,,,SAFETY,Safety Population Flag,Y,DERIVED,CLINICAL STUDY SPONSOR
765,CDISCPILOT01,DM,01-710-1166,,,COMPLT16,Completers of Week 16 Population Flag,Y,DERIVED,CLINICAL STUDY SPONSOR
766,CDISCPILOT01,DM,01-710-1166,,,COMPLT8,Completers of Week 8 Population Flag,Y,DERIVED,CLINICAL STUDY SPONSOR
767,CDISCPILOT01,DM,01-710-1166,,,EFFICACY,Efficacy Population Flag,Y,DERIVED,CLINICAL STUDY SPONSOR
768,CDISCPILOT01,DM,01-710-1166,,,ITT,Intent to Treat Population Flag,Y,DERIVED,CLINICAL STUDY SPONSOR
769,CDISCPILOT01,DM,01-710-1166,,,SAFETY,Safety Population Flag,Y,DERIVED,CLINICAL STUDY SPONSOR
770,CDISCPILOT01,DM,01-710-1183,,,COMPLT16,Completers of Week 16 Population Flag,Y,DERIVED,CLINICAL STUDY SPONSOR
771,CDISCPILOT01,DM,01-710-1183,,,COMPLT24,Completers of Week 24 Population Flag,Y,DERIVED,CLINICAL STUDY SPONSOR
772,CDISCPILOT01,DM,01-710-1183,,,COMPLT8,Completers of Week 8 Population Flag,Y,DERIVED,CLINICAL STUDY SPONSOR
773,CDISCPILOT01,DM,01-710-1183,,,EFFICACY,Efficacy Population Flag,Y,DERIVED,CLINICAL STUDY SPONSOR
774,CDISCPILOT01,DM,01-710-1183,,,ITT,Intent to Treat Population Flag,Y,DERIVED,CLINICAL STUDY SPONSOR
775,CDISCPILOT01,DM,01-710-1183,,,SAFETY,Safety Population Flag,Y,DERIVED,CLINICAL STUDY SPONSOR
776,CDISCPILOT01,DM,01-710-1187,,,COMPLT16,Completers of Week 16 Population Flag,Y,DERIVED,CLINICAL STUDY SPONSOR
777,CDISCPILOT01,DM,01-710-1187,,,COMPLT24,Completers of Week 24 Population Flag,Y,DERIVED,CLINICAL STUDY SPONSOR
778,CDISCPILOT01,DM,01-710-1187,,,COMPLT8,Completers of Week 8 Population Flag,Y,DERIVED,CLINICAL STUDY SPONSOR
779,CDISCPILOT01,DM,01-710-1187,,,EFFICACY,Efficacy Population Flag,Y,DERIVED,CLINICAL STUDY SPONSOR
780,CDISCPILOT01,DM,01-710-1187,,,ITT,Intent to Treat Population Flag,Y,DERIVED,CLINICAL STUDY SPONSOR
781,CDISCPILOT01,DM,01-710-1187,,,SAFETY,Safety Population Flag,Y,DERIVED,CLINICAL STUDY SPONSOR
782,CDISCPILOT01,DM,01-710-1235,,,COMPLT16,Completers of Week 16 Population Flag,Y,DERIVED,CLINICAL STUDY SPONSOR
783,CDISCPILOT01,DM,01-710-1235,,,COMPLT24,Completers of Week 24 Population Flag,Y,DERIVED,CLINICAL STUDY SPONSOR
784,CDISCPILOT01,DM,01-710-1235,,,COMPLT8,Completers of Week 8 Population Flag,Y,DERIVED,CLINICAL STUDY SPONSOR
785,CDISCPILOT01,DM,01-710-1235,,,EFFICACY,Efficacy Population Flag,Y,DERIVED,CLINICAL STUDY SPONSOR
786,CDISCPILOT01,DM,01-710-1235,,,ITT,Intent to Treat Population Flag,Y,DERIVED,CLINICAL STUDY SPONSOR
787,CDISCPILOT01,DM,01-710-1235,,,SAFETY,Safety Population Flag,Y,DERIVED,CLINICAL STUDY SPONSOR
788,CDISCPILOT01,DM,01-710-1249,,,COMPLT16,Completers of Week 16 Population Flag,Y,DERIVED,CLINICAL STUDY SPONSOR
789,CDISCPILOT01,DM,01-710-1249,,,COMPLT24,Completers of Week 24 Population Flag,Y,DERIVED,CLINICAL STUDY SPONSOR
790,CDISCPILOT01,DM,01-710-1249,,,COMPLT8,Completers of Week 8 Population Flag,Y,DERIVED,CLINICAL STUDY SPONSOR
791,CDISCPILOT01,DM,01-710-1249,,,EFFICACY,Efficacy Population Flag,Y,DERIVED,CLINICAL STUDY SPONSOR
792,CDISCPILOT01,DM,01-710-1249,,,ITT,Intent to Treat Population Flag,Y,DERIVED,CLINICAL STUDY SPONSOR
793,CDISCPILOT01,DM,01-710-1249,,,SAFETY,Safety Population Flag,Y,DERIVED,CLINICAL STUDY SPONSOR
794,CDISCPILOT01,DM,01-710-1264,,,COMPLT16,Completers of Week 16 Population Flag,Y,DERIVED,CLINICAL STUDY SPONSOR
795,CDISCPILOT01,DM,01-710-1264,,,COMPLT8,Completers of Week 8 Population Flag,Y,DERIVED,CLINICAL STUDY SPONSOR
796,CDISCPILOT01,DM,01-710-1264,,,EFFICACY,Efficacy Population Flag,Y,DERIVED,CLINICAL STUDY SPONSOR
797,CDISCPILOT01,DM,01-710-1264,,,ITT,Intent to Treat Population Flag,Y,DERIVED,CLINICAL STUDY SPONSOR
798,CDISCPILOT01,DM,01-710-1264,,,SAFETY,Safety Population Flag,Y,DERIVED,CLINICAL STUDY SPONSOR
799,CDISCPILOT01,DM,01-710-1270,,,EFFICACY,Efficacy Population Flag,Y,DERIVED,CLINICAL STUDY SPONSOR
800,CDISCPILOT01,DM,01-710-1270,,,ITT,Intent to Treat Population Flag,Y,DERIVED,CLINICAL STUDY SPONSOR
801,CDISCPILOT01,DM,01-710-1270,,,SAFETY,Safety Population Flag,Y,DERIVED,CLINICAL STUDY SPONSOR
802,CDISCPILOT01,DM,01-710-1271,,,COMPLT8,Completers of Week 8 Population Flag,Y,DERIVED,CLINICAL STUDY SPONSOR
803,CDISCPILOT01,DM,01-710-1271,,,ITT,Intent to Treat Population Flag,Y,DERIVED,CLINICAL STUDY SPONSOR
804,CDISCPILOT01,DM,01-710-1271,,,SAFETY,Safety Population Flag,Y,DERIVED,CLINICAL STUDY SPONSOR
805,CDISCPILOT01,DM,01-710-1278,,,COMPLT8,Completers of Week 8 Population Flag,Y,DERIVED,CLINICAL STUDY SPONSOR
806,CDISCPILOT01,DM,01-710-1278,,,EFFICACY,Efficacy Population Flag,Y,DERIVED,CLINICAL STUDY SPONSOR
807,CDISCPILOT01,DM,01-710-1278,,,ITT,Intent to Treat Population Flag,Y,DERIVED,CLINICAL STUDY SPONSOR
808,CDISCPILOT01,DM,01-710-1278,,,SAFETY,Safety Population Flag,Y,DERIVED,CLINICAL STUDY SPONSOR
809,CDISCPILOT01,DM,01-710-1300,,,COMPLT8,Completers of Week 8 Population Flag,Y,DERIVED,CLINICAL STUDY SPONSOR
810,CDISCPILOT01,DM,01-710-1300,,,EFFICACY,Efficacy Population Flag,Y,DERIVED,CLINICAL STUDY SPONSOR
811,CDISCPILOT01,DM,01-710-1300,,,ITT,Intent to Treat Population Flag,Y,DERIVED,CLINICAL STUDY SPONSOR
812,CDISCPILOT01,DM,01-710-1300,,,SAFETY,Safety Population Flag,Y,DERIVED,CLINICAL STUDY SPONSOR
813,CDISCPILOT01,DM,01-710-1314,,,ITT,Intent to Treat Population Flag,Y,DERIVED,CLINICAL STUDY SPONSOR
814,CDISCPILOT01,DM,01-710-1314,,,SAFETY,Safety Population Flag,Y,DERIVED,CLINICAL STUDY SPONSOR
815,CDISCPILOT01,DM,01-710-1315,,,COMPLT16,Completers of Week 16 Population Flag,Y,DERIVED,CLINICAL STUDY SPONSOR
816,CDISCPILOT01,DM,01-710-1315,,,COMPLT8,Completers of Week 8 Population Flag,Y,DERIVED,CLINICAL STUDY SPONSOR
817,CDISCPILOT01,DM,01-710-1315,,,EFFICACY,Efficacy Population Flag,Y,DERIVED,CLINICAL STUDY SPONSOR
818,CDISCPILOT01,DM,01-710-1315,,,ITT,Intent to Treat Population Flag,Y,DERIVED,CLINICAL STUDY SPONSOR
819,CDISCPILOT01,DM,01-710-1315,,,SAFETY,Safety Population Flag,Y,DERIVED,CLINICAL STUDY SPONSOR
820,CDISCPILOT01,DM,01-710-1354,,,COMPLT16,Completers of Week 16 Population Flag,Y,DERIVED,CLINICAL STUDY SPONSOR
821,CDISCPILOT01,DM,01-710-1354,,,COMPLT24,Completers of Week 24 Population Flag,Y,DERIVED,CLINICAL STUDY SPONSOR
822,CDISCPILOT01,DM,01-710-1354,,,COMPLT8,Completers of Week 8 Population Flag,Y,DERIVED,CLINICAL STUDY SPONSOR
823,CDISCPILOT01,DM,01-710-1354,,,EFFICACY,Efficacy Population Flag,Y,DERIVED,CLINICAL STUDY SPONSOR
824,CDISCPILOT01,DM,01-710-1354,,,ITT,Intent to Treat Population Flag,Y,DERIVED,CLINICAL STUDY SPONSOR
825,CDISCPILOT01,DM,01-710-1354,,,SAFETY,Safety Population Flag,Y,DERIVED,CLINICAL STUDY SPONSOR
826,CDISCPILOT01,DM,01-710-1358,,,COMPLT16,Completers of Week 16 Population Flag,Y,DERIVED,CLINICAL STUDY SPONSOR
827,CDISCPILOT01,DM,01-710-1358,,,COMPLT24,Completers of Week 24 Population Flag,Y,DERIVED,CLINICAL STUDY SPONSOR
828,CDISCPILOT01,DM,01-710-1358,,,COMPLT8,Completers of Week 8 Population Flag,Y,DERIVED,CLINICAL STUDY SPONSOR
829,CDISCPILOT01,DM,01-710-1358,,,EFFICACY,Efficacy Population Flag,Y,DERIVED,CLINICAL STUDY SPONSOR
830,CDISCPILOT01,DM,01-710-1358,,,ITT,Intent to Treat Population Flag,Y,DERIVED,CLINICAL STUDY SPONSOR
831,CDISCPILOT01,DM,01-710-1358,,,SAFETY,Safety Population Flag,Y,DERIVED,CLINICAL STUDY SPONSOR
832,CDISCPILOT01,DM,01-710-1368,,,COMPLT16,Completers of Week 16 Population Flag,Y,DERIVED,CLINICAL STUDY SPONSOR
833,CDISCPILOT01,DM,01-710-1368,,,COMPLT24,Completers of Week 24 Population Flag,Y,DERIVED,CLINICAL STUDY SPONSOR
834,CDISCPILOT01,DM,01-710-1368,,,COMPLT8,Completers of Week 8 Population Flag,Y,DERIVED,CLINICAL STUDY SPONSOR
835,CDISCPILOT01,DM,01-710-1368,,,EFFICACY,Efficacy Population Flag,Y,DERIVED,CLINICAL STUDY SPONSOR
836,CDISCPILOT01,DM,01-710-1368,,,ITT,Intent to Treat Population Flag,Y,DERIVED,CLINICAL STUDY SPONSOR
837,CDISCPILOT01,DM,01-710-1368,,,SAFETY,Safety Population Flag,Y,DERIVED,CLINICAL STUDY SPONSOR
838,CDISCPILOT01,DM,01-710-1385,,,COMPLT16,Completers of Week 16 Population Flag,Y,DERIVED,CLINICAL STUDY SPONSOR
839,CDISCPILOT01,DM,01-710-1385,,,COMPLT8,Completers of Week 8 Population Flag,Y,DERIVED,CLINICAL STUDY SPONSOR
840,CDISCPILOT01,DM,01-710-1385,,,EFFICACY,Efficacy Population Flag,Y,DERIVED,CLINICAL STUDY SPONSOR
841,CDISCPILOT01,DM,01-710-1385,,,ITT,Intent to Treat Population Flag,Y,DERIVED,CLINICAL STUDY SPONSOR
842,CDISCPILOT01,DM,01-710-1385,,,SAFETY,Safety Population Flag,Y,DERIVED,CLINICAL STUDY SPONSOR
843,CDISCPILOT01,DM,01-710-1408,,,COMPLT16,Completers of Week 16 Population Flag,Y,DERIVED,CLINICAL STUDY SPONSOR
844,CDISCPILOT01,DM,01-710-1408,,,COMPLT24,Completers of Week 24 Population Flag,Y,DERIVED,CLINICAL STUDY SPONSOR
845,CDISCPILOT01,DM,01-710-1408,,,COMPLT8,Completers of Week 8 Population Flag,Y,DERIVED,CLINICAL STUDY SPONSOR
846,CDISCPILOT01,DM,01-710-1408,,,EFFICACY,Efficacy Population Flag,Y,DERIVED,CLINICAL STUDY SPONSOR
847,CDISCPILOT01,DM,01-710-1408,,,ITT,Intent to Treat Population Flag,Y,DERIVED,CLINICAL STUDY SPONSOR
848,CDISCPILOT01,DM,01-710-1408,,,SAFETY,Safety Population Flag,Y,DERIVED,CLINICAL STUDY SPONSOR
849,CDISCPILOT01,DM,01-711-1012,,,EFFICACY,Efficacy Population Flag,Y,DERIVED,CLINICAL STUDY SPONSOR
850,CDISCPILOT01,DM,01-711-1012,,,ITT,Intent to Treat Population Flag,Y,DERIVED,CLINICAL STUDY SPONSOR
851,CDISCPILOT01,DM,01-711-1012,,,SAFETY,Safety Population Flag,Y,DERIVED,CLINICAL STUDY SPONSOR
852,CDISCPILOT01,DM,01-711-1036,,,COMPLT16,Completers of Week 16 Population Flag,Y,DERIVED,CLINICAL STUDY SPONSOR
853,CDISCPILOT01,DM,01-711-1036,,,COMPLT24,Completers of Week 24 Population Flag,Y,DERIVED,CLINICAL STUDY SPONSOR
854,CDISCPILOT01,DM,01-711-1036,,,COMPLT8,Completers of Week 8 Population Flag,Y,DERIVED,CLINICAL STUDY SPONSOR
855,CDISCPILOT01,DM,01-711-1036,,,EFFICACY,Efficacy Population Flag,Y,DERIVED,CLINICAL STUDY SPONSOR
856,CDISCPILOT01,DM,01-711-1036,,,ITT,Intent to Treat Population Flag,Y,DERIVED,CLINICAL STUDY SPONSOR
857,CDISCPILOT01,DM,01-711-1036,,,SAFETY,Safety Population Flag,Y,DERIVED,CLINICAL STUDY SPONSOR
858,CDISCPILOT01,DM,01-711-1143,,,COMPLT8,Completers of Week 8 Population Flag,Y,DERIVED,CLINICAL STUDY SPONSOR
859,CDISCPILOT01,DM,01-711-1143,,,EFFICACY,Efficacy Population Flag,Y,DERIVED,CLINICAL STUDY SPONSOR
860,CDISCPILOT01,DM,01-711-1143,,,ITT,Intent to Treat Population Flag,Y,DERIVED,CLINICAL STUDY SPONSOR
861,CDISCPILOT01,DM,01-711-1143,,,SAFETY,Safety Population Flag,Y,DERIVED,CLINICAL STUDY SPONSOR
862,CDISCPILOT01,DM,01-711-1433,,,ITT,Intent to Treat Population Flag,Y,DERIVED,CLINICAL STUDY SPONSOR
863,CDISCPILOT01,DM,01-711-1433,,,SAFETY,Safety Population Flag,Y,DERIVED,CLINICAL STUDY SPONSOR
864,CDISCPILOT01,DM,01-713-1043,,,COMPLT16,Completers of Week 16 Population Flag,Y,DERIVED,CLINICAL STUDY SPONSOR
865,CDISCPILOT01,DM,01-713-1043,,,COMPLT24,Completers of Week 24 Population Flag,Y,DERIVED,CLINICAL STUDY SPONSOR
866,CDISCPILOT01,DM,01-713-1043,,,COMPLT8,Completers of Week 8 Population Flag,Y,DERIVED,CLINICAL STUDY SPONSOR
867,CDISCPILOT01,DM,01-713-1043,,,EFFICACY,Efficacy Population Flag,Y,DERIVED,CLINICAL STUDY SPONSOR
868,CDISCPILOT01,DM,01-713-1043,,,ITT,Intent to Treat Population Flag,Y,DERIVED,CLINICAL STUDY SPONSOR
869,CDISCPILOT01,DM,01-713-1043,,,SAFETY,Safety Population Flag,Y,DERIVED,CLINICAL STUDY SPONSOR
870,CDISCPILOT01,DM,01-713-1073,,,COMPLT16,Completers of Week 16 Population Flag,Y,DERIVED,CLINICAL STUDY SPONSOR
871,CDISCPILOT01,DM,01-713-1073,,,COMPLT24,Completers of Week 24 Population Flag,Y,DERIVED,CLINICAL STUDY SPONSOR
872,CDISCPILOT01,DM,01-713-1073,,,COMPLT8,Completers of Week 8 Population Flag,Y,DERIVED,CLINICAL STUDY SPONSOR
873,CDISCPILOT01,DM,01-713-1073,,,EFFICACY,Efficacy Population Flag,Y,DERIVED,CLINICAL STUDY SPONSOR
874,CDISCPILOT01,DM,01-713-1073,,,ITT,Intent to Treat Population Flag,Y,DERIVED,CLINICAL STUDY SPONSOR
875,CDISCPILOT01,DM,01-713-1073,,,SAFETY,Safety Population Flag,Y,DERIVED,CLINICAL STUDY SPONSOR
876,CDISCPILOT01,DM,01-713-1106,,,COMPLT16,Completers of Week 16 Population Flag,Y,DERIVED,CLINICAL STUDY SPONSOR
877,CDISCPILOT01,DM,01-713-1106,,,COMPLT24,Completers of Week 24 Population Flag,Y,DERIVED,CLINICAL STUDY SPONSOR
878,CDISCPILOT01,DM,01-713-1106,,,COMPLT8,Completers of Week 8 Population Flag,Y,DERIVED,CLINICAL STUDY SPONSOR
879,CDISCPILOT01,DM,01-713-1106,,,EFFICACY,Efficacy Population Flag,Y,DERIVED,CLINICAL STUDY SPONSOR
880,CDISCPILOT01,DM,01-713-1106,,,ITT,Intent to Treat Population Flag,Y,DERIVED,CLINICAL STUDY SPONSOR
881,CDISCPILOT01,DM,01-713-1106,,,SAFETY,Safety Population Flag,Y,DERIVED,CLINICAL STUDY SPONSOR
882,CDISCPILOT01,DM,01-713-1141,,,ITT,Intent to Treat Population Flag,Y,DERIVED,CLINICAL STUDY SPONSOR
883,CDISCPILOT01,DM,01-713-1141,,,SAFETY,Safety Population Flag,Y,DERIVED,CLINICAL STUDY SPONSOR
884,CDISCPILOT01,DM,01-713-1179,,,COMPLT16,Completers of Week 16 Population Flag,Y,DERIVED,CLINICAL STUDY SPONSOR
885,CDISCPILOT01,DM,01-713-1179,,,COMPLT24,Completers of Week 24 Population Flag,Y,DERIVED,CLINICAL STUDY SPONSOR
886,CDISCPILOT01,DM,01-713-1179,,,COMPLT8,Completers of Week 8 Population Flag,Y,DERIVED,CLINICAL STUDY SPONSOR
887,CDISCPILOT01,DM,01-713-1179,,,EFFICACY,Efficacy Population Flag,Y,DERIVED,CLINICAL STUDY SPONSOR
888,CDISCPILOT01,DM,01-713-1179,,,ITT,Intent to Treat Population Flag,Y,DERIVED,CLINICAL STUDY SPONSOR
889,CDISCPILOT01,DM,01-713-1179,,,SAFETY,Safety Population Flag,Y,DERIVED,CLINICAL STUDY SPONSOR
890,CDISCPILOT01,DM,01-713-1209,,,COMPLT16,Completers of Week 16 Population Flag,Y,DERIVED,CLINICAL STUDY SPONSOR
891,CDISCPILOT01,DM,01-713-1209,,,COMPLT24,Completers of Week 24 Population Flag,Y,DERIVED,CLINICAL STUDY SPONSOR
892,CDISCPILOT01,DM,01-713-1209,,,COMPLT8,Completers of Week 8 Population Flag,Y,DERIVED,CLINICAL STUDY SPONSOR
893,CDISCPILOT01,DM,01-713-1209,,,EFFICACY,Efficacy Population Flag,Y,DERIVED,CLINICAL STUDY SPONSOR
894,CDISCPILOT01,DM,01-713-1209,,,ITT,Intent to Treat Population Flag,Y,DERIVED,CLINICAL STUDY SPONSOR
895,CDISCPILOT01,DM,01-713-1209,,,SAFETY,Safety Population Flag,Y,DERIVED,CLINICAL STUDY SPONSOR
896,CDISCPILOT01,DM,01-713-1256,,,COMPLT16,Completers of Week 16 Population Flag,Y,DERIVED,CLINICAL STUDY SPONSOR
897,CDISCPILOT01,DM,01-713-1256,,,COMPLT24,Completers of Week 24 Population Flag,Y,DERIVED,CLINICAL STUDY SPONSOR
898,CDISCPILOT01,DM,01-713-1256,,,COMPLT8,Completers of Week 8 Population Flag,Y,DERIVED,CLINICAL STUDY SPONSOR
899,CDISCPILOT01,DM,01-713-1256,,,EFFICACY,Efficacy Population Flag,Y,DERIVED,CLINICAL STUDY SPONSOR
900,CDISCPILOT01,DM,01-713-1256,,,ITT,Intent to Treat Population Flag,Y,DERIVED,CLINICAL STUDY SPONSOR
901,CDISCPILOT01,DM,01-713-1256,,,SAFETY,Safety Population Flag,Y,DERIVED,CLINICAL STUDY SPONSOR
902,CDISCPILOT01,DM,01-713-1269,,,COMPLT16,Completers of Week 16 Population Flag,Y,DERIVED,CLINICAL STUDY SPONSOR
903,CDISCPILOT01,DM,01-713-1269,,,COMPLT24,Completers of Week 24 Population Flag,Y,DERIVED,CLINICAL STUDY SPONSOR
904,CDISCPILOT01,DM,01-713-1269,,,COMPLT8,Completers of Week 8 Population Flag,Y,DERIVED,CLINICAL STUDY SPONSOR
905,CDISCPILOT01,DM,01-713-1269,,,EFFICACY,Efficacy Population Flag,Y,DERIVED,CLINICAL STUDY SPONSOR
906,CDISCPILOT01,DM,01-713-1269,,,ITT,Intent to Treat Population Flag,Y,DERIVED,CLINICAL STUDY SPONSOR
907,CDISCPILOT01,DM,01-713-1269,,,SAFETY,Safety Population Flag,Y,DERIVED,CLINICAL STUDY SPONSOR
908,CDISCPILOT01,DM,01-713-1448,,,COMPLT16,Completers of Week 16 Population Flag,Y,DERIVED,CLINICAL STUDY SPONSOR
909,CDISCPILOT01,DM,01-713-1448,,,COMPLT8,Completers of Week 8 Population Flag,Y,DERIVED,CLINICAL STUDY SPONSOR
910,CDISCPILOT01,DM,01-713-1448,,,EFFICACY,Efficacy Population Flag,Y,DERIVED,CLINICAL STUDY SPONSOR
911,CDISCPILOT01,DM,01-713-1448,,,ITT,Intent to Treat Population Flag,Y,DERIVED,CLINICAL STUDY SPONSOR
912,CDISCPILOT01,DM,01-713-1448,,,SAFETY,Safety Population Flag,Y,DERIVED,CLINICAL STUDY SPONSOR
913,CDISCPILOT01,DM,01-714-1035,,,COMPLT16,Completers of Week 16 Population Flag,Y,DERIVED,CLINICAL STUDY SPONSOR
914,CDISCPILOT01,DM,01-714-1035,,,COMPLT24,Completers of Week 24 Population Flag,Y,DERIVED,CLINICAL STUDY SPONSOR
915,CDISCPILOT01,DM,01-714-1035,,,COMPLT8,Completers of Week 8 Population Flag,Y,DERIVED,CLINICAL STUDY SPONSOR
916,CDISCPILOT01,DM,01-714-1035,,,EFFICACY,Efficacy Population Flag,Y,DERIVED,CLINICAL STUDY SPONSOR
917,CDISCPILOT01,DM,01-714-1035,,,ITT,Intent to Treat Population Flag,Y,DERIVED,CLINICAL STUDY SPONSOR
918,CDISCPILOT01,DM,01-714-1035,,,SAFETY,Safety Population Flag,Y,DERIVED,CLINICAL STUDY SPONSOR
919,CDISCPILOT01,DM,01-714-1068,,,COMPLT8,Completers of Week 8 Population Flag,Y,DERIVED,CLINICAL STUDY SPONSOR
920,CDISCPILOT01,DM,01-714-1068,,,EFFICACY,Efficacy Population Flag,Y,DERIVED,CLINICAL STUDY SPONSOR
921,CDISCPILOT01,DM,01-714-1068,,,ITT,Intent to Treat Population Flag,Y,DERIVED,CLINICAL STUDY SPONSOR
922,CDISCPILOT01,DM,01-714-1068,,,SAFETY,Safety Population Flag,Y,DERIVED,CLINICAL STUDY SPONSOR
923,CDISCPILOT01,DM,01-714-1195,,,COMPLT16,Completers of Week 16 Population Flag,Y,DERIVED,CLINICAL STUDY SPONSOR
924,CDISCPILOT01,DM,01-714-1195,,,COMPLT24,Completers of Week 24 Population Flag,Y,DERIVED,CLINICAL STUDY SPONSOR
925,CDISCPILOT01,DM,01-714-1195,,,COMPLT8,Completers of Week 8 Population Flag,Y,DERIVED,CLINICAL STUDY SPONSOR
926,CDISCPILOT01,DM,01-714-1195,,,EFFICACY,Efficacy Population Flag,Y,DERIVED,CLINICAL STUDY SPONSOR
927,CDISCPILOT01,DM,01-714-1195,,,ITT,Intent to Treat Population Flag,Y,DERIVED,CLINICAL STUDY SPONSOR
928,CDISCPILOT01,DM,01-714-1195,,,SAFETY,Safety Population Flag,Y,DERIVED,CLINICAL STUDY SPONSOR
929,CDISCPILOT01,DM,01-714-1288,,,COMPLT16,Completers of Week 16 Population Flag,Y,DERIVED,CLINICAL STUDY SPONSOR
930,CDISCPILOT01,DM,01-714-1288,,,COMPLT24,Completers of Week 24 Population Flag,Y,DERIVED,CLINICAL STUDY SPONSOR
931,CDISCPILOT01,DM,01-714-1288,,,COMPLT8,Completers of Week 8 Population Flag,Y,DERIVED,CLINICAL STUDY SPONSOR
932,CDISCPILOT01,DM,01-714-1288,,,EFFICACY,Efficacy Population Flag,Y,DERIVED,CLINICAL STUDY SPONSOR
933,CDISCPILOT01,DM,01-714-1288,,,ITT,Intent to Treat Population Flag,Y,DERIVED,CLINICAL STUDY SPONSOR
934,CDISCPILOT01,DM,01-714-1288,,,SAFETY,Safety Population Flag,Y,DERIVED,CLINICAL STUDY SPONSOR
935,CDISCPILOT01,DM,01-714-1375,,,COMPLT16,Completers of Week 16 Population Flag,Y,DERIVED,CLINICAL STUDY SPONSOR
936,CDISCPILOT01,DM,01-714-1375,,,COMPLT24,Completers of Week 24 Population Flag,Y,DERIVED,CLINICAL STUDY SPONSOR
937,CDISCPILOT01,DM,01-714-1375,,,COMPLT8,Completers of Week 8 Population Flag,Y,DERIVED,CLINICAL STUDY SPONSOR
938,CDISCPILOT01,DM,01-714-1375,,,EFFICACY,Efficacy Population Flag,Y,DERIVED,CLINICAL STUDY SPONSOR
939,CDISCPILOT01,DM,01-714-1375,,,ITT,Intent to Treat Population Flag,Y,DERIVED,CLINICAL STUDY SPONSOR
940,CDISCPILOT01,DM,01-714-1375,,,SAFETY,Safety Population Flag,Y,DERIVED,CLINICAL STUDY SPONSOR
941,CDISCPILOT01,DM,01-714-1425,,,EFFICACY,Efficacy Population Flag,Y,DERIVED,CLINICAL STUDY SPONSOR
942,CDISCPILOT01,DM,01-714-1425,,,ITT,Intent to Treat Population Flag,Y,DERIVED,CLINICAL STUDY SPONSOR
943,CDISCPILOT01,DM,01-714-1425,,,SAFETY,Safety Population Flag,Y,DERIVED,CLINICAL STUDY SPONSOR
944,CDISCPILOT01,DM,01-715-1085,,,COMPLT16,Completers of Week 16 Population Flag,Y,DERIVED,CLINICAL STUDY SPONSOR
945,CDISCPILOT01,DM,01-715-1085,,,COMPLT24,Completers of Week 24 Population Flag,Y,DERIVED,CLINICAL STUDY SPONSOR
946,CDISCPILOT01,DM,01-715-1085,,,COMPLT8,Completers of Week 8 Population Flag,Y,DERIVED,CLINICAL STUDY SPONSOR
947,CDISCPILOT01,DM,01-715-1085,,,EFFICACY,Efficacy Population Flag,Y,DERIVED,CLINICAL STUDY SPONSOR
948,CDISCPILOT01,DM,01-715-1085,,,ITT,Intent to Treat Population Flag,Y,DERIVED,CLINICAL STUDY SPONSOR
949,CDISCPILOT01,DM,01-715-1085,,,SAFETY,Safety Population Flag,Y,DERIVED,CLINICAL STUDY SPONSOR
950,CDISCPILOT01,DM,01-715-1107,,,COMPLT8,Completers of Week 8 Population Flag,Y,DERIVED,CLINICAL STUDY SPONSOR
951,CDISCPILOT01,DM,01-715-1107,,,EFFICACY,Efficacy Population Flag,Y,DERIVED,CLINICAL STUDY SPONSOR
952,CDISCPILOT01,DM,01-715-1107,,,ITT,Intent to Treat Population Flag,Y,DERIVED,CLINICAL STUDY SPONSOR
953,CDISCPILOT01,DM,01-715-1107,,,SAFETY,Safety Population Flag,Y,DERIVED,CLINICAL STUDY SPONSOR
954,CDISCPILOT01,DM,01-715-1155,,,ITT,Intent to Treat Population Flag,Y,DERIVED,CLINICAL STUDY SPONSOR
955,CDISCPILOT01,DM,01-715-1155,,,SAFETY,Safety Population Flag,Y,DERIVED,CLINICAL STUDY SPONSOR
956,CDISCPILOT01,DM,01-715-1207,,,COMPLT16,Completers of Week 16 Population Flag,Y,DERIVED,CLINICAL STUDY SPONSOR
957,CDISCPILOT01,DM,01-715-1207,,,COMPLT24,Completers of Week 24 Population Flag,Y,DERIVED,CLINICAL STUDY SPONSOR
958,CDISCPILOT01,DM,01-715-1207,,,COMPLT8,Completers of Week 8 Population Flag,Y,DERIVED,CLINICAL STUDY SPONSOR
959,CDISCPILOT01,DM,01-715-1207,,,EFFICACY,Efficacy Population Flag,Y,DERIVED,CLINICAL STUDY SPONSOR
960,CDISCPILOT01,DM,01-715-1207,,,ITT,Intent to Treat Population Flag,Y,DERIVED,CLINICAL STUDY SPONSOR
961,CDISCPILOT01,DM,01-715-1207,,,SAFETY,Safety Population Flag,Y,DERIVED,CLINICAL STUDY SPONSOR
962,CDISCPILOT01,DM,01-715-1319,,,EFFICACY,Efficacy Population Flag,Y,DERIVED,CLINICAL STUDY SPONSOR
963,CDISCPILOT01,DM,01-715-1319,,,ITT,Intent to Treat Population Flag,Y,DERIVED,CLINICAL STUDY SPONSOR
964,CDISCPILOT01,DM,01-715-1319,,,SAFETY,Safety Population Flag,Y,DERIVED,CLINICAL STUDY SPONSOR
965,CDISCPILOT01,DM,01-715-1321,,,COMPLT8,Completers of Week 8 Population Flag,Y,DERIVED,CLINICAL STUDY SPONSOR
966,CDISCPILOT01,DM,01-715-1321,,,EFFICACY,Efficacy Population Flag,Y,DERIVED,CLINICAL STUDY SPONSOR
967,CDISCPILOT01,DM,01-715-1321,,,ITT,Intent to Treat Population Flag,Y,DERIVED,CLINICAL STUDY SPONSOR
968,CDISCPILOT01,DM,01-715-1321,,,SAFETY,Safety Population Flag,Y,DERIVED,CLINICAL STUDY SPONSOR
969,CDISCPILOT01,DM,01-715-1397,,,COMPLT16,Completers of Week 16 Population Flag,Y,DERIVED,CLINICAL STUDY SPONSOR
970,CDISCPILOT01,DM,01-715-1397,,,COMPLT24,Completers of Week 24 Population Flag,Y,DERIVED,CLINICAL STUDY SPONSOR
971,CDISCPILOT01,DM,01-715-1397,,,COMPLT8,Completers of Week 8 Population Flag,Y,DERIVED,CLINICAL STUDY SPONSOR
972,CDISCPILOT01,DM,01-715-1397,,,EFFICACY,Efficacy Population Flag,Y,DERIVED,CLINICAL STUDY SPONSOR
973,CDISCPILOT01,DM,01-715-1397,,,ITT,Intent to Treat Population Flag,Y,DERIVED,CLINICAL STUDY SPONSOR
974,CDISCPILOT01,DM,01-715-1397,,,SAFETY,Safety Population Flag,Y,DERIVED,CLINICAL STUDY SPONSOR
975,CDISCPILOT01,DM,01-715-1405,,,EFFICACY,Efficacy Population Flag,Y,DERIVED,CLINICAL STUDY SPONSOR
976,CDISCPILOT01,DM,01-715-1405,,,ITT,Intent to Treat Population Flag,Y,DERIVED,CLINICAL STUDY SPONSOR
977,CDISCPILOT01,DM,01-715-1405,,,SAFETY,Safety Population Flag,Y,DERIVED,CLINICAL STUDY SPONSOR
978,CDISCPILOT01,DM,01-716-1024,,,COMPLT16,Completers of Week 16 Population Flag,Y,DERIVED,CLINICAL STUDY SPONSOR
979,CDISCPILOT01,DM,01-716-1024,,,COMPLT24,Completers of Week 24 Population Flag,Y,DERIVED,CLINICAL STUDY SPONSOR
980,CDISCPILOT01,DM,01-716-1024,,,COMPLT8,Completers of Week 8 Population Flag,Y,DERIVED,CLINICAL STUDY SPONSOR
981,CDISCPILOT01,DM,01-716-1024,,,EFFICACY,Efficacy Population Flag,Y,DERIVED,CLINICAL STUDY SPONSOR
982,CDISCPILOT01,DM,01-716-1024,,,ITT,Intent to Treat Population Flag,Y,DERIVED,CLINICAL STUDY SPONSOR
983,CDISCPILOT01,DM,01-716-1024,,,SAFETY,Safety Population Flag,Y,DERIVED,CLINICAL STUDY SPONSOR
984,CDISCPILOT01,DM,01-716-1026,,,COMPLT16,Completers of Week 16 Population Flag,Y,DERIVED,CLINICAL STUDY SPONSOR
985,CDISCPILOT01,DM,01-716-1026,,,COMPLT24,Completers of Week 24 Population Flag,Y,DERIVED,CLINICAL STUDY SPONSOR
986,CDISCPILOT01,DM,01-716-1026,,,COMPLT8,Completers of Week 8 Population Flag,Y,DERIVED,CLINICAL STUDY SPONSOR
987,CDISCPILOT01,DM,01-716-1026,,,EFFICACY,Efficacy Population Flag,Y,DERIVED,CLINICAL STUDY SPONSOR
988,CDISCPILOT01,DM,01-716-1026,,,ITT,Intent to Treat Population Flag,Y,DERIVED,CLINICAL STUDY SPONSOR
989,CDISCPILOT01,DM,01-716-1026,,,SAFETY,Safety Population Flag,Y,DERIVED,CLINICAL STUDY SPONSOR
990,CDISCPILOT01,DM,01-716-1030,,,EFFICACY,Efficacy Population Flag,Y,DERIVED,CLINICAL STUDY SPONSOR
991,CDISCPILOT01,DM,01-716-1030,,,ITT,Intent to Treat Population Flag,Y,DERIVED,CLINICAL STUDY SPONSOR
992,CDISCPILOT01,DM,01-716-1030,,,SAFETY,Safety Population Flag,Y,DERIVED,CLINICAL STUDY SPONSOR
993,CDISCPILOT01,DM,01-716-1044,,,COMPLT16,Completers of Week 16 Population Flag,Y,DERIVED,CLINICAL STUDY SPONSOR
994,CDISCPILOT01,DM,01-716-1044,,,COMPLT24,Completers of Week 24 Population Flag,Y,DERIVED,CLINICAL STUDY SPONSOR
995,CDISCPILOT01,DM,01-716-1044,,,COMPLT8,Completers of Week 8 Population Flag,Y,DERIVED,CLINICAL STUDY SPONSOR
996,CDISCPILOT01,DM,01-716-1044,,,EFFICACY,Efficacy Population Flag,Y,DERIVED,CLINICAL STUDY SPONSOR
997,CDISCPILOT01,DM,01-716-1044,,,ITT,Intent to Treat Population Flag,Y,DERIVED,CLINICAL STUDY SPONSOR
998,CDISCPILOT01,DM,01-716-1044,,,SAFETY,Safety Population Flag,Y,DERIVED,CLINICAL STUDY SPONSOR
999,CDISCPILOT01,DM,01-716-1063,,,COMPLT16,Completers of Week 16 Population Flag,Y,DERIVED,CLINICAL STUDY SPONSOR
1000,CDISCPILOT01,DM,01-716-1063,,,COMPLT8,Completers of Week 8 Population Flag,Y,DERIVED,CLINICAL STUDY SPONSOR
1001,CDISCPILOT01,DM,01-716-1063,,,EFFICACY,Efficacy Population Flag,Y,DERIVED,CLINICAL STUDY SPONSOR
1002,CDISCPILOT01,DM,01-716-1063,,,ITT,Intent to Treat Population Flag,Y,DERIVED,CLINICAL STUDY SPONSOR
1003,CDISCPILOT01,DM,01-716-1063,,,SAFETY,Safety Population Flag,Y,DERIVED,CLINICAL STUDY SPONSOR
1004,CDISCPILOT01,DM,01-716-1071,,,COMPLT8,Completers of Week 8 Population Flag,Y,DERIVED,CLINICAL STUDY SPONSOR
1005,CDISCPILOT01,DM,01-716-1071,,,EFFICACY,Efficacy Population Flag,Y,DERIVED,CLINICAL STUDY SPONSOR
1006,CDISCPILOT01,DM,01-716-1071,,,ITT,Intent to Treat Population Flag,Y,DERIVED,CLINICAL STUDY SPONSOR
1007,CDISCPILOT01,DM,01-716-1071,,,SAFETY,Safety Population Flag,Y,DERIVED,CLINICAL STUDY SPONSOR
1008,CDISCPILOT01,DM,01-716-1094,,,EFFICACY,Efficacy Population Flag,Y,DERIVED,CLINICAL STUDY SPONSOR
1009,CDISCPILOT01,DM,01-716-1094,,,ITT,Intent to Treat Population Flag,Y,DERIVED,CLINICAL STUDY SPONSOR
1010,CDISCPILOT01,DM,01-716-1094,,,SAFETY,Safety Population Flag,Y,DERIVED,CLINICAL STUDY SPONSOR
1011,CDISCPILOT01,DM,01-716-1103,,,COMPLT16,Completers of Week 16 Population Flag,Y,DERIVED,CLINICAL STUDY SPONSOR
1012,CDISCPILOT01,DM,01-716-1103,,,COMPLT24,Completers of Week 24 Population Flag,Y,DERIVED,CLINICAL STUDY SPONSOR
1013,CDISCPILOT01,DM,01-716-1103,,,COMPLT8,Completers of Week 8 Population Flag,Y,DERIVED,CLINICAL STUDY SPONSOR
1014,CDISCPILOT01,DM,01-716-1103,,,EFFICACY,Efficacy Population Flag,Y,DERIVED,CLINICAL STUDY SPONSOR
1015,CDISCPILOT01,DM,01-716-1103,,,ITT,Intent to Treat Population Flag,Y,DERIVED,CLINICAL STUDY SPONSOR
1016,CDISCPILOT01,DM,01-716-1103,,,SAFETY,Safety Population Flag,Y,DERIVED,CLINICAL STUDY SPONSOR
1017,CDISCPILOT01,DM,01-716-1108,,,COMPLT16,Completers of Week 16 Population Flag,Y,DERIVED,CLINICAL STUDY SPONSOR
1018,CDISCPILOT01,DM,01-716-1108,,,COMPLT24,Completers of Week 24 Population Flag,Y,DERIVED,CLINICAL STUDY SPONSOR
1019,CDISCPILOT01,DM,01-716-1108,,,COMPLT8,Completers of Week 8 Population Flag,Y,DERIVED,CLINICAL STUDY SPONSOR
1020,CDISCPILOT01,DM,01-716-1108,,,EFFICACY,Efficacy Population Flag,Y,DERIVED,CLINICAL STUDY SPONSOR
1021,CDISCPILOT01,DM,01-716-1108,,,ITT,Intent to Treat Population Flag,Y,DERIVED,CLINICAL STUDY SPONSOR
1022,CDISCPILOT01,DM,01-716-1108,,,SAFETY,Safety Population Flag,Y,DERIVED,CLINICAL STUDY SPONSOR
1023,CDISCPILOT01,DM,01-716-1151,,,COMPLT16,Completers of Week 16 Population Flag,Y,DERIVED,CLINICAL STUDY SPONSOR
1024,CDISCPILOT01,DM,01-716-1151,,,COMPLT8,Completers of Week 8 Population Flag,Y,DERIVED,CLINICAL STUDY SPONSOR
1025,CDISCPILOT01,DM,01-716-1151,,,EFFICACY,Efficacy Population Flag,Y,DERIVED,CLINICAL STUDY SPONSOR
1026,CDISCPILOT01,DM,01-716-1151,,,ITT,Intent to Treat Population Flag,Y,DERIVED,CLINICAL STUDY SPONSOR
1027,CDISCPILOT01,DM,01-716-1151,,,SAFETY,Safety Population Flag,Y,DERIVED,CLINICAL STUDY SPONSOR
1028,CDISCPILOT01,DM,01-716-1157,,,COMPLT16,Completers of Week 16 Population Flag,Y,DERIVED,CLINICAL STUDY SPONSOR
1029,CDISCPILOT01,DM,01-716-1157,,,COMPLT24,Completers of Week 24 Population Flag,Y,DERIVED,CLINICAL STUDY SPONSOR
1030,CDISCPILOT01,DM,01-716-1157,,,COMPLT8,Completers of Week 8 Population Flag,Y,DERIVED,CLINICAL STUDY SPONSOR
1031,CDISCPILOT01,DM,01-716-1157,,,EFFICACY,Efficacy Population Flag,Y,DERIVED,CLINICAL STUDY SPONSOR
1032,CDISCPILOT01,DM,01-716-1157,,,ITT,Intent to Treat Population Flag,Y,DERIVED,CLINICAL STUDY SPONSOR
1033,CDISCPILOT01,DM,01-716-1157,,,SAFETY,Safety Population Flag,Y,DERIVED,CLINICAL STUDY SPONSOR
1034,CDISCPILOT01,DM,01-716-1160,,,COMPLT16,Completers of Week 16 Population Flag,Y,DERIVED,CLINICAL STUDY SPONSOR
1035,CDISCPILOT01,DM,01-716-1160,,,COMPLT24,Completers of Week 24 Population Flag,Y,DERIVED,CLINICAL STUDY SPONSOR
1036,CDISCPILOT01,DM,01-716-1160,,,COMPLT8,Completers of Week 8 Population Flag,Y,DERIVED,CLINICAL STUDY SPONSOR
1037,CDISCPILOT01,DM,01-716-1160,,,EFFICACY,Efficacy Population Flag,Y,DERIVED,CLINICAL STUDY SPONSOR
1038,CDISCPILOT01,DM,01-716-1160,,,ITT,Intent to Treat Population Flag,Y,DERIVED,CLINICAL STUDY SPONSOR
1039,CDISCPILOT01,DM,01-716-1160,,,SAFETY,Safety Population Flag,Y,DERIVED,CLINICAL STUDY SPONSOR
1040,CDISCPILOT01,DM,01-716-1167,,,COMPLT16,Completers of Week 16 Population Flag,Y,DERIVED,CLINICAL STUDY SPONSOR
1041,CDISCPILOT01,DM,01-716-1167,,,COMPLT24,Completers of Week 24 Population Flag,Y,DERIVED,CLINICAL STUDY SPONSOR
1042,CDISCPILOT01,DM,01-716-1167,,,COMPLT8,Completers of Week 8 Population Flag,Y,DERIVED,CLINICAL STUDY SPONSOR
1043,CDISCPILOT01,DM,01-716-1167,,,EFFICACY,Efficacy Population Flag,Y,DERIVED,CLINICAL STUDY SPONSOR
1044,CDISCPILOT01,DM,01-716-1167,,,ITT,Intent to Treat Population Flag,Y,DERIVED,CLINICAL STUDY SPONSOR
1045,CDISCPILOT01,DM,01-716-1167,,,SAFETY,Safety Population Flag,Y,DERIVED,CLINICAL STUDY SPONSOR
1046,CDISCPILOT01,DM,01-716-1177,,,COMPLT16,Completers of Week 16 Population Flag,Y,DERIVED,CLINICAL STUDY SPONSOR
1047,CDISCPILOT01,DM,01-716-1177,,,COMPLT24,Completers of Week 24 Population Flag,Y,DERIVED,CLINICAL STUDY SPONSOR
1048,CDISCPILOT01,DM,01-716-1177,,,COMPLT8,Completers of Week 8 Population Flag,Y,DERIVED,CLINICAL STUDY SPONSOR
1049,CDISCPILOT01,DM,01-716-1177,,,EFFICACY,Efficacy Population Flag,Y,DERIVED,CLINICAL STUDY SPONSOR
1050,CDISCPILOT01,DM,01-716-1177,,,ITT,Intent to Treat Population Flag,Y,DERIVED,CLINICAL STUDY SPONSOR
1051,CDISCPILOT01,DM,01-716-1177,,,SAFETY,Safety Population Flag,Y,DERIVED,CLINICAL STUDY SPONSOR
1052,CDISCPILOT01,DM,01-716-1189,,,COMPLT16,Completers of Week 16 Population Flag,Y,DERIVED,CLINICAL STUDY SPONSOR
1053,CDISCPILOT01,DM,01-716-1189,,,COMPLT8,Completers of Week 8 Population Flag,Y,DERIVED,CLINICAL STUDY SPONSOR
1054,CDISCPILOT01,DM,01-716-1189,,,EFFICACY,Efficacy Population Flag,Y,DERIVED,CLINICAL STUDY SPONSOR
1055,CDISCPILOT01,DM,01-716-1189,,,ITT,Intent to Treat Population Flag,Y,DERIVED,CLINICAL STUDY SPONSOR
1056,CDISCPILOT01,DM,01-716-1189,,,SAFETY,Safety Population Flag,Y,DERIVED,CLINICAL STUDY SPONSOR
1057,CDISCPILOT01,DM,01-716-1229,,,EFFICACY,Efficacy Population Flag,Y,DERIVED,CLINICAL STUDY SPONSOR
1058,CDISCPILOT01,DM,01-716-1229,,,ITT,Intent to Treat Population Flag,Y,DERIVED,CLINICAL STUDY SPONSOR
1059,CDISCPILOT01,DM,01-716-1229,,,SAFETY,Safety Population Flag,Y,DERIVED,CLINICAL STUDY SPONSOR
1060,CDISCPILOT01,DM,01-716-1298,,,COMPLT8,Completers of Week 8 Population Flag,Y,DERIVED,CLINICAL STUDY SPONSOR
1061,CDISCPILOT01,DM,01-716-1298,,,EFFICACY,Efficacy Population Flag,Y,DERIVED,CLINICAL STUDY SPONSOR
1062,CDISCPILOT01,DM,01-716-1298,,,ITT,Intent to Treat Population Flag,Y,DERIVED,CLINICAL STUDY SPONSOR
1063,CDISCPILOT01,DM,01-716-1298,,,SAFETY,Safety Population Flag,Y,DERIVED,CLINICAL STUDY SPONSOR
1064,CDISCPILOT01,DM,01-716-1308,,,EFFICACY,Efficacy Population Flag,Y,DERIVED,CLINICAL STUDY SPONSOR
1065,CDISCPILOT01,DM,01-716-1308,,,ITT,Intent to Treat Population Flag,Y,DERIVED,CLINICAL STUDY SPONSOR
1066,CDISCPILOT01,DM,01-716-1308,,,SAFETY,Safety Population Flag,Y,DERIVED,CLINICAL STUDY SPONSOR
1067,CDISCPILOT01,DM,01-716-1311,,,COMPLT16,Completers of Week 16 Population Flag,Y,DERIVED,CLINICAL STUDY SPONSOR
1068,CDISCPILOT01,DM,01-716-1311,,,COMPLT8,Completers of Week 8 Population Flag,Y,DERIVED,CLINICAL STUDY SPONSOR
1069,CDISCPILOT01,DM,01-716-1311,,,EFFICACY,Efficacy Population Flag,Y,DERIVED,CLINICAL STUDY SPONSOR
1070,CDISCPILOT01,DM,01-716-1311,,,ITT,Intent to Treat Population Flag,Y,DERIVED,CLINICAL STUDY SPONSOR
1071,CDISCPILOT01,DM,01-716-1311,,,SAFETY,Safety Population Flag,Y,DERIVED,CLINICAL STUDY SPONSOR
1072,CDISCPILOT01,DM,01-716-1364,,,COMPLT16,Completers of Week 16 Population Flag,Y,DERIVED,CLINICAL STUDY SPONSOR
1073,CDISCPILOT01,DM,01-716-1364,,,COMPLT24,Completers of Week 24 Population Flag,Y,DERIVED,CLINICAL STUDY SPONSOR
1074,CDISCPILOT01,DM,01-716-1364,,,COMPLT8,Completers of Week 8 Population Flag,Y,DERIVED,CLINICAL STUDY SPONSOR
1075,CDISCPILOT01,DM,01-716-1364,,,EFFICACY,Efficacy Population Flag,Y,DERIVED,CLINICAL STUDY SPONSOR
1076,CDISCPILOT01,DM,01-716-1364,,,ITT,Intent to Treat Population Flag,Y,DERIVED,CLINICAL STUDY SPONSOR
1077,CDISCPILOT01,DM,01-716-1364,,,SAFETY,Safety Population Flag,Y,DERIVED,CLINICAL STUDY SPONSOR
1078,CDISCPILOT01,DM,01-716-1373,,,COMPLT8,Completers of Week 8 Population Flag,Y,DERIVED,CLINICAL STUDY SPONSOR
1079,CDISCPILOT01,DM,01-716-1373,,,EFFICACY,Efficacy Population Flag,Y,DERIVED,CLINICAL STUDY SPONSOR
1080,CDISCPILOT01,DM,01-716-1373,,,ITT,Intent to Treat Population Flag,Y,DERIVED,CLINICAL STUDY SPONSOR
1081,CDISCPILOT01,DM,01-716-1373,,,SAFETY,Safety Population Flag,Y,DERIVED,CLINICAL STUDY SPONSOR
1082,CDISCPILOT01,DM,01-716-1418,,,COMPLT16,Completers of Week 16 Population Flag,Y,DERIVED,CLINICAL STUDY SPONSOR
1083,CDISCPILOT01,DM,01-716-1418,,,COMPLT24,Completers of Week 24 Population Flag,Y,DERIVED,CLINICAL STUDY SPONSOR
1084,CDISCPILOT01,DM,01-716-1418,,,COMPLT8,Completers of Week 8 Population Flag,Y,DERIVED,CLINICAL STUDY SPONSOR
1085,CDISCPILOT01,DM,01-716-1418,,,EFFICACY,Efficacy Population Flag,Y,DERIVED,CLINICAL STUDY SPONSOR
1086,CDISCPILOT01,DM,01-716-1418,,,ITT,Intent to Treat Population Flag,Y,DERIVED,CLINICAL STUDY SPONSOR
1087,CDISCPILOT01,DM,01-716-1418,,,SAFETY,Safety Population Flag,Y,DERIVED,CLINICAL STUDY SPONSOR
1088,CDISCPILOT01,DM,01-716-1441,,,COMPLT16,Completers of Week 16 Population Flag,Y,DERIVED,CLINICAL STUDY SPONSOR
1089,CDISCPILOT01,DM,01-716-1441,,,COMPLT24,Completers of Week 24 Population Flag,Y,DERIVED,CLINICAL STUDY SPONSOR
1090,CDISCPILOT01,DM,01-716-1441,,,COMPLT8,Completers of Week 8 Population Flag,Y,DERIVED,CLINICAL STUDY SPONSOR
1091,CDISCPILOT01,DM,01-716-1441,,,EFFICACY,Efficacy Population Flag,Y,DERIVED,CLINICAL STUDY SPONSOR
1092,CDISCPILOT01,DM,01-716-1441,,,ITT,Intent to Treat Population Flag,Y,DERIVED,CLINICAL STUDY SPONSOR
1093,CDISCPILOT01,DM,01-716-1441,,,SAFETY,Safety Population Flag,Y,DERIVED,CLINICAL STUDY SPONSOR
1094,CDISCPILOT01,DM,01-716-1447,,,COMPLT16,Completers of Week 16 Population Flag,Y,DERIVED,CLINICAL STUDY SPONSOR
1095,CDISCPILOT01,DM,01-716-1447,,,COMPLT24,Completers of Week 24 Population Flag,Y,DERIVED,CLINICAL STUDY SPONSOR
1096,CDISCPILOT01,DM,01-716-1447,,,COMPLT8,Completers of Week 8 Population Flag,Y,DERIVED,CLINICAL STUDY SPONSOR
1097,CDISCPILOT01,DM,01-716-1447,,,EFFICACY,Efficacy Population Flag,Y,DERIVED,CLINICAL STUDY SPONSOR
1098,CDISCPILOT01,DM,01-716-1447,,,ITT,Intent to Treat Population Flag,Y,DERIVED,CLINICAL STUDY SPONSOR
1099,CDISCPILOT01,DM,01-716-1447,,,SAFETY,Safety Population Flag,Y,DERIVED,CLINICAL STUDY SPONSOR
1100,CDISCPILOT01,DM,01-717-1004,,,COMPLT16,Completers of Week 16 Population Flag,Y,DERIVED,CLINICAL STUDY SPONSOR
1101,CDISCPILOT01,DM,01-717-1004,,,COMPLT24,Completers of Week 24 Population Flag,Y,DERIVED,CLINICAL STUDY SPONSOR
1102,CDISCPILOT01,DM,01-717-1004,,,COMPLT8,Completers of Week 8 Population Flag,Y,DERIVED,CLINICAL STUDY SPONSOR
1103,CDISCPILOT01,DM,01-717-1004,,,EFFICACY,Efficacy Population Flag,Y,DERIVED,CLINICAL STUDY SPONSOR
1104,CDISCPILOT01,DM,01-717-1004,,,ITT,Intent to Treat Population Flag,Y,DERIVED,CLINICAL STUDY SPONSOR
1105,CDISCPILOT01,DM,01-717-1004,,,SAFETY,Safety Population Flag,Y,DERIVED,CLINICAL STUDY SPONSOR
1106,CDISCPILOT01,DM,01-717-1109,,,COMPLT16,Completers of Week 16 Population Flag,Y,DERIVED,CLINICAL STUDY SPONSOR
1107,CDISCPILOT01,DM,01-717-1109,,,COMPLT24,Completers of Week 24 Population Flag,Y,DERIVED,CLINICAL STUDY SPONSOR
1108,CDISCPILOT01,DM,01-717-1109,,,COMPLT8,Completers of Week 8 Population Flag,Y,DERIVED,CLINICAL STUDY SPONSOR
1109,CDISCPILOT01,DM,01-717-1109,,,EFFICACY,Efficacy Population Flag,Y,DERIVED,CLINICAL STUDY SPONSOR
1110,CDISCPILOT01,DM,01-717-1109,,,ITT,Intent to Treat Population Flag,Y,DERIVED,CLINICAL STUDY SPONSOR
1111,CDISCPILOT01,DM,01-717-1109,,,SAFETY,Safety Population Flag,Y,DERIVED,CLINICAL STUDY SPONSOR
1112,CDISCPILOT01,DM,01-717-1174,,,COMPLT16,Completers of Week 16 Population Flag,Y,DERIVED,CLINICAL STUDY SPONSOR
1113,CDISCPILOT01,DM,01-717-1174,,,COMPLT24,Completers of Week 24 Population Flag,Y,DERIVED,CLINICAL STUDY SPONSOR
1114,CDISCPILOT01,DM,01-717-1174,,,COMPLT8,Completers of Week 8 Population Flag,Y,DERIVED,CLINICAL STUDY SPONSOR
1115,CDISCPILOT01,DM,01-717-1174,,,EFFICACY,Efficacy Population Flag,Y,DERIVED,CLINICAL STUDY SPONSOR
1116,CDISCPILOT01,DM,01-717-1174,,,ITT,Intent to Treat Population Flag,Y,DERIVED,CLINICAL STUDY SPONSOR
1117,CDISCPILOT01,DM,01-717-1174,,,SAFETY,Safety Population Flag,Y,DERIVED,CLINICAL STUDY SPONSOR
1118,CDISCPILOT01,DM,01-717-1201,,,COMPLT8,Completers of Week 8 Population Flag,Y,DERIVED,CLINICAL STUDY SPONSOR
1119,CDISCPILOT01,DM,01-717-1201,,,EFFICACY,Efficacy Population Flag,Y,DERIVED,CLINICAL STUDY SPONSOR
1120,CDISCPILOT01,DM,01-717-1201,,,ITT,Intent to Treat Population Flag,Y,DERIVED,CLINICAL STUDY SPONSOR
1121,CDISCPILOT01,DM,01-717-1201,,,SAFETY,Safety Population Flag,Y,DERIVED,CLINICAL STUDY SPONSOR
1122,CDISCPILOT01,DM,01-717-1344,,,COMPLT8,Completers of Week 8 Population Flag,Y,DERIVED,CLINICAL STUDY SPONSOR
1123,CDISCPILOT01,DM,01-717-1344,,,EFFICACY,Efficacy Population Flag,Y,DERIVED,CLINICAL STUDY SPONSOR
1124,CDISCPILOT01,DM,01-717-1344,,,ITT,Intent to Treat Population Flag,Y,DERIVED,CLINICAL STUDY SPONSOR
1125,CDISCPILOT01,DM,01-717-1344,,,SAFETY,Safety Population Flag,Y,DERIVED,CLINICAL STUDY SPONSOR
1126,CDISCPILOT01,DM,01-717-1357,,,COMPLT16,Completers of Week 16 Population Flag,Y,DERIVED,CLINICAL STUDY SPONSOR
1127,CDISCPILOT01,DM,01-717-1357,,,COMPLT24,Completers of Week 24 Population Flag,Y,DERIVED,CLINICAL STUDY SPONSOR
1128,CDISCPILOT01,DM,01-717-1357,,,COMPLT8,Completers of Week 8 Population Flag,Y,DERIVED,CLINICAL STUDY SPONSOR
1129,CDISCPILOT01,DM,01-717-1357,,,EFFICACY,Efficacy Population Flag,Y,DERIVED,CLINICAL STUDY SPONSOR
1130,CDISCPILOT01,DM,01-717-1357,,,ITT,Intent to Treat Population Flag,Y,DERIVED,CLINICAL STUDY SPONSOR
1131,CDISCPILOT01,DM,01-717-1357,,,SAFETY,Safety Population Flag,Y,DERIVED,CLINICAL STUDY SPONSOR
1132,CDISCPILOT01,DM,01-717-1446,,,COMPLT16,Completers of Week 16 Population Flag,Y,DERIVED,CLINICAL STUDY SPONSOR
1133,CDISCPILOT01,DM,01-717-1446,,,COMPLT24,Completers of Week 24 Population Flag,Y,DERIVED,CLINICAL STUDY SPONSOR
1134,CDISCPILOT01,DM,01-717-1446,,,COMPLT8,Completers of Week 8 Population Flag,Y,DERIVED,CLINICAL STUDY SPONSOR
1135,CDISCPILOT01,DM,01-717-1446,,,EFFICACY,Efficacy Population Flag,Y,DERIVED,CLINICAL STUDY SPONSOR
1136,CDISCPILOT01,DM,01-717-1446,,,ITT,Intent to Treat Population Flag,Y,DERIVED,CLINICAL STUDY SPONSOR
1137,CDISCPILOT01,DM,01-717-1446,,,SAFETY,Safety Population Flag,Y,DERIVED,CLINICAL STUDY SPONSOR
1138,CDISCPILOT01,DM,01-718-1066,,,EFFICACY,Efficacy Population Flag,Y,DERIVED,CLINICAL STUDY SPONSOR
1139,CDISCPILOT01,DM,01-718-1066,,,ITT,Intent to Treat Population Flag,Y,DERIVED,CLINICAL STUDY SPONSOR
1140,CDISCPILOT01,DM,01-718-1066,,,SAFETY,Safety Population Flag,Y,DERIVED,CLINICAL STUDY SPONSOR
1141,CDISCPILOT01,DM,01-718-1079,,,EFFICACY,Efficacy Population Flag,Y,DERIVED,CLINICAL STUDY SPONSOR
1142,CDISCPILOT01,DM,01-718-1079,,,ITT,Intent to Treat Population Flag,Y,DERIVED,CLINICAL STUDY SPONSOR
1143,CDISCPILOT01,DM,01-718-1079,,,SAFETY,Safety Population Flag,Y,DERIVED,CLINICAL STUDY SPONSOR
1144,CDISCPILOT01,DM,01-718-1101,,,COMPLT16,Completers of Week 16 Population Flag,Y,DERIVED,CLINICAL STUDY SPONSOR
1145,CDISCPILOT01,DM,01-718-1101,,,COMPLT24,Completers of Week 24 Population Flag,Y,DERIVED,CLINICAL STUDY SPONSOR
1146,CDISCPILOT01,DM,01-718-1101,,,COMPLT8,Completers of Week 8 Population Flag,Y,DERIVED,CLINICAL STUDY SPONSOR
1147,CDISCPILOT01,DM,01-718-1101,,,EFFICACY,Efficacy Population Flag,Y,DERIVED,CLINICAL STUDY SPONSOR
1148,CDISCPILOT01,DM,01-718-1101,,,ITT,Intent to Treat Population Flag,Y,DERIVED,CLINICAL STUDY SPONSOR
1149,CDISCPILOT01,DM,01-718-1101,,,SAFETY,Safety Population Flag,Y,DERIVED,CLINICAL STUDY SPONSOR
1150,CDISCPILOT01,DM,01-718-1139,,,COMPLT16,Completers of Week 16 Population Flag,Y,DERIVED,CLINICAL STUDY SPONSOR
1151,CDISCPILOT01,DM,01-718-1139,,,COMPLT24,Completers of Week 24 Population Flag,Y,DERIVED,CLINICAL STUDY SPONSOR
1152,CDISCPILOT01,DM,01-718-1139,,,COMPLT8,Completers of Week 8 Population Flag,Y,DERIVED,CLINICAL STUDY SPONSOR
1153,CDISCPILOT01,DM,01-718-1139,,,EFFICACY,Efficacy Population Flag,Y,DERIVED,CLINICAL STUDY SPONSOR
1154,CDISCPILOT01,DM,01-718-1139,,,ITT,Intent to Treat Population Flag,Y,DERIVED,CLINICAL STUDY SPONSOR
1155,CDISCPILOT01,DM,01-718-1139,,,SAFETY,Safety Population Flag,Y,DERIVED,CLINICAL STUDY SPONSOR
1156,CDISCPILOT01,DM,01-718-1150,,,COMPLT16,Completers of Week 16 Population Flag,Y,DERIVED,CLINICAL STUDY SPONSOR
1157,CDISCPILOT01,DM,01-718-1150,,,COMPLT24,Completers of Week 24 Population Flag,Y,DERIVED,CLINICAL STUDY SPONSOR
1158,CDISCPILOT01,DM,01-718-1150,,,COMPLT8,Completers of Week 8 Population Flag,Y,DERIVED,CLINICAL STUDY SPONSOR
1159,CDISCPILOT01,DM,01-718-1150,,,EFFICACY,Efficacy Population Flag,Y,DERIVED,CLINICAL STUDY SPONSOR
1160,CDISCPILOT01,DM,01-718-1150,,,ITT,Intent to Treat Population Flag,Y,DERIVED,CLINICAL STUDY SPONSOR
1161,CDISCPILOT01,DM,01-718-1150,,,SAFETY,Safety Population Flag,Y,DERIVED,CLINICAL STUDY SPONSOR
1162,CDISCPILOT01,DM,01-718-1170,,,EFFICACY,Efficacy Population Flag,Y,DERIVED,CLINICAL STUDY SPONSOR
1163,CDISCPILOT01,DM,01-718-1170,,,ITT,Intent to Treat Population Flag,Y,DERIVED,CLINICAL STUDY SPONSOR
1164,CDISCPILOT01,DM,01-718-1170,,,SAFETY,Safety Population Flag,Y,DERIVED,CLINICAL STUDY SPONSOR
1165,CDISCPILOT01,DM,01-718-1172,,,COMPLT8,Completers of Week 8 Population Flag,Y,DERIVED,CLINICAL STUDY SPONSOR
1166,CDISCPILOT01,DM,01-718-1172,,,EFFICACY,Efficacy Population Flag,Y,DERIVED,CLINICAL STUDY SPONSOR
1167,CDISCPILOT01,DM,01-718-1172,,,ITT,Intent to Treat Population Flag,Y,DERIVED,CLINICAL STUDY SPONSOR
1168,CDISCPILOT01,DM,01-718-1172,,,SAFETY,Safety Population Flag,Y,DERIVED,CLINICAL STUDY SPONSOR
1169,CDISCPILOT01,DM,01-718-1250,,,COMPLT16,Completers of Week 16 Population Flag,Y,DERIVED,CLINICAL STUDY SPONSOR
1170,CDISCPILOT01,DM,01-718-1250,,,COMPLT8,Completers of Week 8 Population Flag,Y,DERIVED,CLINICAL STUDY SPONSOR
1171,CDISCPILOT01,DM,01-718-1250,,,EFFICACY,Efficacy Population Flag,Y,DERIVED,CLINICAL STUDY SPONSOR
1172,CDISCPILOT01,DM,01-718-1250,,,ITT,Intent to Treat Population Flag,Y,DERIVED,CLINICAL STUDY SPONSOR
1173,CDISCPILOT01,DM,01-718-1250,,,SAFETY,Safety Population Flag,Y,DERIVED,CLINICAL STUDY SPONSOR
1174,CDISCPILOT01,DM,01-718-1254,,,COMPLT16,Completers of Week 16 Population Flag,Y,DERIVED,CLINICAL STUDY SPONSOR
1175,CDISCPILOT01,DM,01-718-1254,,,COMPLT24,Completers of Week 24 Population Flag,Y,DERIVED,CLINICAL STUDY SPONSOR
1176,CDISCPILOT01,DM,01-718-1254,,,COMPLT8,Completers of Week 8 Population Flag,Y,DERIVED,CLINICAL STUDY SPONSOR
1177,CDISCPILOT01,DM,01-718-1254,,,EFFICACY,Efficacy Population Flag,Y,DERIVED,CLINICAL STUDY SPONSOR
1178,CDISCPILOT01,DM,01-718-1254,,,ITT,Intent to Treat Population Flag,Y,DERIVED,CLINICAL STUDY SPONSOR
1179,CDISCPILOT01,DM,01-718-1254,,,SAFETY,Safety Population Flag,Y,DERIVED,CLINICAL STUDY SPONSOR
1180,CDISCPILOT01,DM,01-718-1328,,,COMPLT8,Completers of Week 8 Population Flag,Y,DERIVED,CLINICAL STUDY SPONSOR
1181,CDISCPILOT01,DM,01-718-1328,,,EFFICACY,Efficacy Population Flag,Y,DERIVED,CLINICAL STUDY SPONSOR
1182,CDISCPILOT01,DM,01-718-1328,,,ITT,Intent to Treat Population Flag,Y,DERIVED,CLINICAL STUDY SPONSOR
1183,CDISCPILOT01,DM,01-718-1328,,,SAFETY,Safety Population Flag,Y,DERIVED,CLINICAL STUDY SPONSOR
1184,CDISCPILOT01,DM,01-718-1355,,,COMPLT16,Completers of Week 16 Population Flag,Y,DERIVED,CLINICAL STUDY SPONSOR
1185,CDISCPILOT01,DM,01-718-1355,,,COMPLT24,Completers of Week 24 Population Flag,Y,DERIVED,CLINICAL STUDY SPONSOR
1186,CDISCPILOT01,DM,01-718-1355,,,COMPLT8,Completers of Week 8 Population Flag,Y,DERIVED,CLINICAL STUDY SPONSOR
1187,CDISCPILOT01,DM,01-718-1355,,,EFFICACY,Efficacy Population Flag,Y,DERIVED,CLINICAL STUDY SPONSOR
1188,CDISCPILOT01,DM,01-718-1355,,,ITT,Intent to Treat Population Flag,Y,DERIVED,CLINICAL STUDY SPONSOR
1189,CDISCPILOT01,DM,01-718-1355,,,SAFETY,Safety Population Flag,Y,DERIVED,CLINICAL STUDY SPONSOR
1190,CDISCPILOT01,DM,01-718-1371,,,COMPLT8,Completers of Week 8 Population Flag,Y,DERIVED,CLINICAL STUDY SPONSOR
1191,CDISCPILOT01,DM,01-718-1371,,,EFFICACY,Efficacy Population Flag,Y,DERIVED,CLINICAL STUDY SPONSOR
1192,CDISCPILOT01,DM,01-718-1371,,,ITT,Intent to Treat Population Flag,Y,DERIVED,CLINICAL STUDY SPONSOR
1193,CDISCPILOT01,DM,01-718-1371,,,SAFETY,Safety Population Flag,Y,DERIVED,CLINICAL STUDY SPONSOR
1194,CDISCPILOT01,DM,01-718-1427,,,COMPLT8,Completers of Week 8 Population Flag,Y,DERIVED,CLINICAL STUDY SPONSOR
1195,CDISCPILOT01,DM,01-718-1427,,,EFFICACY,Efficacy Population Flag,Y,DERIVED,CLINICAL STUDY SPONSOR
1196,CDISCPILOT01,DM,01-718-1427,,,ITT,Intent to Treat Population Flag,Y,DERIVED,CLINICAL STUDY SPONSOR
1197,CDISCPILOT01,DM,01-718-1427,,,SAFETY,Safety Population Flag,Y,DERIVED,CLINICAL STUDY SPONSOR
