rownames,STUDYID,RDOMAIN,USUBJID,IDVAR,IDVARVAL,QNAM,QLABEL,QVAL,QORIG
1,CDISCPILOT01,RS,01-701-1015,RSSEQ,7,PDOFL,Progressive Disease: Other,Y,CRF
2,CDISCPILOT01,RS,01-701-1015,RSSEQ,7,DTHPDFL,Death Due to Progressive Disease,Y,CRF
3,CDISCPILOT01,RS,01-701-1097,RSSEQ,7,PDOFL,Progressive Disease: Other,Y,CRF
4,CDISCPILOT01,RS,01-701-1097,RSSEQ,7,NACTDT,New Anti-Cancer Therapy Date,2014-02-10,CRF
5,CDISCPILOT01,RS,01-701-1115,RSSEQ,7,PDIFL,Progressive Disease: Imaging,Y,CRF
6,CDISCPILOT01,RS,01-701-1146,RSSEQ,7,PDOFL,Progressive Disease: Other,Y,CRF
7,CDISCPILOT01,RS,01-701-1148,RSSEQ,7,NACTDT,New Anti-Cancer Therapy Date,2014-02-07,CRF
8,CDISCPILOT01,RS,01-701-1148,RSSEQ,16,NACTDT,New Anti-Cancer Therapy Date,2014-02-07,CRF
9,CDISCPILOT01,RS,01-701-1148,RSSEQ,26,NACTDT,New Anti-Cancer Therapy Date,2014-02-07,CRF
10,CDISCPILOT01,RS,01-701-1148,RSSEQ,36,NACTDT,New Anti-Cancer Therapy Date,2014-02-07,CRF
11,CDISCPILOT01,RS,01-701-1302,RSSEQ,7,PDIFL,Progressive Disease: Imaging,Y,CRF
12,CDISCPILOT01,RS,01-701-1345,RSSEQ,26,PDOFL,Progressive Disease: Other,Y,CRF
13,CDISCPILOT01,RS,01-701-1287,RSSEQ,26,PDOFL,Progressive Disease: Other,Y,CRF
14,CDISCPILOT01,RS,01-701-1287,RSSEQ,7,NACTDT,New Anti-Cancer Therapy Date,2014-05-30,CRF
15,CDISCPILOT01,RS,01-701-1287,RSSEQ,16,NACTDT,New Anti-Cancer Therapy Date,2014-05-30,CRF
16,CDISCPILOT01,RS,01-701-1287,RSSEQ,26,NACTDT,New Anti-Cancer Therapy Date,2014-05-30,CRF
17,CDISCPILOT01,RS,01-701-1287,RSSEQ,36,NACTDT,New Anti-Cancer Therapy Date,2014-05-30,CRF
18,CDISCPILOT01,RS,01-701-1287,RSSEQ,36,PDOFL,Progressive Disease: Other,Y,CRF
19,CDISCPILOT01,RS,01-702-1082,RSSEQ,7,PDOFL,Progressive Disease: Other,Y,CRF
