rownames,DOMAIN,STUDYID,USUBJID,TRGRPID,TRLNKID,TRTESTCD,TRTEST,TRORRES,TRORRESU,TRSTRESC,TRSTRESN,TRSTRESU,VISITNUM,VISIT,TREVAL,TREVALID,TRACPTFL,TRDTC,TRSEQ
1,TR,CDISCPILOT01,01-701-1015,TARGET,T01,LDIAM,Longest Diameter,21,mm,21,21,mm,1,SCREENING,INDEPENDENT ASSESSOR,RADIOLOGIST 1,Y,2014-01-02,1
2,TR,CDISCPILOT01,01-701-1015,TARGET,T02,LPERP,Longest Perpendicular,32.32,mm,32.32,32.32,mm,1,SCREENING,INDEPENDENT ASSESSOR,RADIOLOGIST 1,Y,2014-01-02,2
3,TR,CDISCPILOT01,01-701-1015,TARGET,T03,LDIAM,Longest Diameter,24.48,mm,24.48,24.48,mm,1,SCREENING,INDEPENDENT ASSESSOR,RADIOLOGIST 1,Y,2014-01-02,3
4,TR,CDISCPILOT01,01-701-1015,TARGET,T04,LDIAM,Longest Diameter,19.57,mm,19.57,19.57,mm,1,SCREENING,INDEPENDENT ASSESSOR,RADIOLOGIST 1,Y,2014-01-02,4
5,TR,CDISCPILOT01,01-701-1015,TARGET,T01,LPERP,Longest Perpendicular,20.37,mm,20.37,20.37,mm,1,SCREENING,INDEPENDENT ASSESSOR,RADIOLOGIST 1,Y,2014-01-02,5
6,TR,CDISCPILOT01,01-701-1015,TARGET,T02,LDIAM,Longest Diameter,33.6128,mm,33.6128,33.6128,mm,1,SCREENING,INDEPENDENT ASSESSOR,RADIOLOGIST 1,Y,2014-01-02,6
7,TR,CDISCPILOT01,01-701-1015,TARGET,T03,LPERP,Longest Perpendicular,23.256,mm,23.256,23.256,mm,1,SCREENING,INDEPENDENT ASSESSOR,RADIOLOGIST 1,Y,2014-01-02,7
8,TR,CDISCPILOT01,01-701-1015,TARGET,T04,LPERP,Longest Perpendicular,18.3958,mm,18.3958,18.3958,mm,1,SCREENING,INDEPENDENT ASSESSOR,RADIOLOGIST 1,Y,2014-01-02,8
9,TR,CDISCPILOT01,01-701-1015,TARGET,T01,LDIAM,Longest Diameter,21.63,mm,21.63,21.63,mm,1,SCREENING,INDEPENDENT ASSESSOR,RADIOLOGIST 2,,2014-01-02,9
10,TR,CDISCPILOT01,01-701-1015,TARGET,T02,LPERP,Longest Perpendicular,31.04,mm,31.04,31.04,mm,1,SCREENING,INDEPENDENT ASSESSOR,RADIOLOGIST 2,,2014-01-02,10
11,TR,CDISCPILOT01,01-701-1015,TARGET,T03,LDIAM,Longest Diameter,23.52,mm,23.52,23.52,mm,1,SCREENING,INDEPENDENT ASSESSOR,RADIOLOGIST 2,,2014-01-02,11
12,TR,CDISCPILOT01,01-701-1015,TARGET,T04,LDIAM,Longest Diameter,18.81,mm,18.81,18.81,mm,1,SCREENING,INDEPENDENT ASSESSOR,RADIOLOGIST 2,,2014-01-02,12
13,TR,CDISCPILOT01,01-701-1015,TARGET,T01,LPERP,Longest Perpendicular,20.9811,mm,20.9811,20.9811,mm,1,SCREENING,INDEPENDENT ASSESSOR,RADIOLOGIST 2,,2014-01-02,13
14,TR,CDISCPILOT01,01-701-1015,TARGET,T02,LDIAM,Longest Diameter,32.2816,mm,32.2816,32.2816,mm,1,SCREENING,INDEPENDENT ASSESSOR,RADIOLOGIST 2,,2014-01-02,14
15,TR,CDISCPILOT01,01-701-1015,TARGET,T03,LPERP,Longest Perpendicular,22.344,mm,22.344,22.344,mm,1,SCREENING,INDEPENDENT ASSESSOR,RADIOLOGIST 2,,2014-01-02,15
16,TR,CDISCPILOT01,01-701-1015,TARGET,T04,LPERP,Longest Perpendicular,17.6814,mm,17.6814,17.6814,mm,1,SCREENING,INDEPENDENT ASSESSOR,RADIOLOGIST 2,,2014-01-02,16
17,TR,CDISCPILOT01,01-701-1015,TARGET,T01,LDIAM,Longest Diameter,21,mm,21,21,mm,1,SCREENING,INVESTIGATOR,,,2014-01-02,17
18,TR,CDISCPILOT01,01-701-1015,TARGET,T02,LPERP,Longest Perpendicular,32,mm,32,32,mm,1,SCREENING,INVESTIGATOR,,,2014-01-02,18
19,TR,CDISCPILOT01,01-701-1015,TARGET,T03,LDIAM,Longest Diameter,24,mm,24,24,mm,1,SCREENING,INVESTIGATOR,,,2014-01-02,19
20,TR,CDISCPILOT01,01-701-1015,TARGET,T04,LDIAM,Longest Diameter,19,mm,19,19,mm,1,SCREENING,INVESTIGATOR,,,2014-01-02,20
21,TR,CDISCPILOT01,01-701-1015,TARGET,T01,LPERP,Longest Perpendicular,20.37,mm,20.37,20.37,mm,1,SCREENING,INVESTIGATOR,,,2014-01-02,21
22,TR,CDISCPILOT01,01-701-1015,TARGET,T02,LDIAM,Longest Diameter,33.28,mm,33.28,33.28,mm,1,SCREENING,INVESTIGATOR,,,2014-01-02,22
23,TR,CDISCPILOT01,01-701-1015,TARGET,T03,LPERP,Longest Perpendicular,22.8,mm,22.8,22.8,mm,1,SCREENING,INVESTIGATOR,,,2014-01-02,23
24,TR,CDISCPILOT01,01-701-1015,TARGET,T04,LPERP,Longest Perpendicular,17.86,mm,17.86,17.86,mm,1,SCREENING,INVESTIGATOR,,,2014-01-02,24
25,TR,CDISCPILOT01,01-701-1015,TARGET,T01,LDIAM,Longest Diameter,20.2,mm,20.2,20.2,mm,2,WEEK 3,INDEPENDENT ASSESSOR,RADIOLOGIST 1,,2014-01-23,25
26,TR,CDISCPILOT01,01-701-1015,TARGET,T02,LPERP,Longest Perpendicular,34.68,mm,34.68,34.68,mm,2,WEEK 3,INDEPENDENT ASSESSOR,RADIOLOGIST 1,,2014-01-23,26
27,TR,CDISCPILOT01,01-701-1015,TARGET,T03,LDIAM,Longest Diameter,24.72,mm,24.72,24.72,mm,2,WEEK 3,INDEPENDENT ASSESSOR,RADIOLOGIST 1,,2014-01-23,27
28,TR,CDISCPILOT01,01-701-1015,TARGET,T04,LDIAM,Longest Diameter,17.46,mm,17.46,17.46,mm,2,WEEK 3,INDEPENDENT ASSESSOR,RADIOLOGIST 1,,2014-01-23,28
29,TR,CDISCPILOT01,01-701-1015,TARGET,T01,LPERP,Longest Perpendicular,19.392,mm,19.392,19.392,mm,2,WEEK 3,INDEPENDENT ASSESSOR,RADIOLOGIST 1,,2014-01-23,29
30,TR,CDISCPILOT01,01-701-1015,TARGET,T02,LDIAM,Longest Diameter,36.414,mm,36.414,36.414,mm,2,WEEK 3,INDEPENDENT ASSESSOR,RADIOLOGIST 1,,2014-01-23,30
31,TR,CDISCPILOT01,01-701-1015,TARGET,T03,LPERP,Longest Perpendicular,23.2368,mm,23.2368,23.2368,mm,2,WEEK 3,INDEPENDENT ASSESSOR,RADIOLOGIST 1,,2014-01-23,31
32,TR,CDISCPILOT01,01-701-1015,TARGET,T04,LPERP,Longest Perpendicular,16.2378,mm,16.2378,16.2378,mm,2,WEEK 3,INDEPENDENT ASSESSOR,RADIOLOGIST 1,,2014-01-23,32
33,TR,CDISCPILOT01,01-701-1015,TARGET,T01,LDIAM,Longest Diameter,19.4,mm,19.4,19.4,mm,2,WEEK 3,INDEPENDENT ASSESSOR,RADIOLOGIST 2,Y,2014-01-23,33
34,TR,CDISCPILOT01,01-701-1015,TARGET,T02,LPERP,Longest Perpendicular,33.32,mm,33.32,33.32,mm,2,WEEK 3,INDEPENDENT ASSESSOR,RADIOLOGIST 2,Y,2014-01-23,34
35,TR,CDISCPILOT01,01-701-1015,TARGET,T03,LDIAM,Longest Diameter,23.76,mm,23.76,23.76,mm,2,WEEK 3,INDEPENDENT ASSESSOR,RADIOLOGIST 2,Y,2014-01-23,35
36,TR,CDISCPILOT01,01-701-1015,TARGET,T04,LDIAM,Longest Diameter,18,mm,18,18,mm,2,WEEK 3,INDEPENDENT ASSESSOR,RADIOLOGIST 2,Y,2014-01-23,36
37,TR,CDISCPILOT01,01-701-1015,TARGET,T01,LPERP,Longest Perpendicular,18.624,mm,18.624,18.624,mm,2,WEEK 3,INDEPENDENT ASSESSOR,RADIOLOGIST 2,Y,2014-01-23,37
38,TR,CDISCPILOT01,01-701-1015,TARGET,T02,LDIAM,Longest Diameter,34.986,mm,34.986,34.986,mm,2,WEEK 3,INDEPENDENT ASSESSOR,RADIOLOGIST 2,Y,2014-01-23,38
39,TR,CDISCPILOT01,01-701-1015,TARGET,T03,LPERP,Longest Perpendicular,22.3344,mm,22.3344,22.3344,mm,2,WEEK 3,INDEPENDENT ASSESSOR,RADIOLOGIST 2,Y,2014-01-23,39
40,TR,CDISCPILOT01,01-701-1015,TARGET,T04,LPERP,Longest Perpendicular,16.74,mm,16.74,16.74,mm,2,WEEK 3,INDEPENDENT ASSESSOR,RADIOLOGIST 2,Y,2014-01-23,40
41,TR,CDISCPILOT01,01-701-1015,TARGET,T01,LDIAM,Longest Diameter,20,mm,20,20,mm,2,WEEK 3,INVESTIGATOR,,,2014-01-23,41
42,TR,CDISCPILOT01,01-701-1015,TARGET,T02,LPERP,Longest Perpendicular,34,mm,34,34,mm,2,WEEK 3,INVESTIGATOR,,,2014-01-23,42
43,TR,CDISCPILOT01,01-701-1015,TARGET,T03,LDIAM,Longest Diameter,24,mm,24,24,mm,2,WEEK 3,INVESTIGATOR,,,2014-01-23,43
44,TR,CDISCPILOT01,01-701-1015,TARGET,T04,LDIAM,Longest Diameter,18,mm,18,18,mm,2,WEEK 3,INVESTIGATOR,,,2014-01-23,44
45,TR,CDISCPILOT01,01-701-1015,TARGET,T01,LPERP,Longest Perpendicular,19.2,mm,19.2,19.2,mm,2,WEEK 3,INVESTIGATOR,,,2014-01-23,45
46,TR,CDISCPILOT01,01-701-1015,TARGET,T02,LDIAM,Longest Diameter,35.7,mm,35.7,35.7,mm,2,WEEK 3,INVESTIGATOR,,,2014-01-23,46
47,TR,CDISCPILOT01,01-701-1015,TARGET,T03,LPERP,Longest Perpendicular,22.56,mm,22.56,22.56,mm,2,WEEK 3,INVESTIGATOR,,,2014-01-23,47
48,TR,CDISCPILOT01,01-701-1015,TARGET,T04,LPERP,Longest Perpendicular,16.74,mm,16.74,16.74,mm,2,WEEK 3,INVESTIGATOR,,,2014-01-23,48
49,TR,CDISCPILOT01,01-701-1015,TARGET,T01,LDIAM,Longest Diameter,20.4,mm,20.4,20.4,mm,3,WEEK 6,INDEPENDENT ASSESSOR,RADIOLOGIST 1,Y,2014-02,49
50,TR,CDISCPILOT01,01-701-1015,TARGET,T04,LDIAM,Longest Diameter,17.64,mm,17.64,17.64,mm,3,WEEK 6,INDEPENDENT ASSESSOR,RADIOLOGIST 1,Y,2014-02,50
51,TR,CDISCPILOT01,01-701-1015,TARGET,T01,LPERP,Longest Perpendicular,19.38,mm,19.38,19.38,mm,3,WEEK 6,INDEPENDENT ASSESSOR,RADIOLOGIST 1,Y,2014-02,51
52,TR,CDISCPILOT01,01-701-1015,TARGET,T04,LPERP,Longest Perpendicular,16.2288,mm,16.2288,16.2288,mm,3,WEEK 6,INDEPENDENT ASSESSOR,RADIOLOGIST 1,Y,2014-02,52
53,TR,CDISCPILOT01,01-701-1015,TARGET,T01,LDIAM,Longest Diameter,19.6,mm,19.6,19.6,mm,3,WEEK 6,INDEPENDENT ASSESSOR,RADIOLOGIST 2,,2014-02,53
54,TR,CDISCPILOT01,01-701-1015,TARGET,T04,LDIAM,Longest Diameter,18.18,mm,18.18,18.18,mm,3,WEEK 6,INDEPENDENT ASSESSOR,RADIOLOGIST 2,,2014-02,54
55,TR,CDISCPILOT01,01-701-1015,TARGET,T01,LPERP,Longest Perpendicular,18.62,mm,18.62,18.62,mm,3,WEEK 6,INDEPENDENT ASSESSOR,RADIOLOGIST 2,,2014-02,55
56,TR,CDISCPILOT01,01-701-1015,TARGET,T04,LPERP,Longest Perpendicular,16.7256,mm,16.7256,16.7256,mm,3,WEEK 6,INDEPENDENT ASSESSOR,RADIOLOGIST 2,,2014-02,56
57,TR,CDISCPILOT01,01-701-1015,TARGET,T01,LDIAM,Longest Diameter,20,mm,20,20,mm,3,WEEK 6,INVESTIGATOR,,,2014-02,57
58,TR,CDISCPILOT01,01-701-1015,TARGET,T04,LDIAM,Longest Diameter,18,mm,18,18,mm,3,WEEK 6,INVESTIGATOR,,,2014-02,58
59,TR,CDISCPILOT01,01-701-1015,TARGET,T01,LPERP,Longest Perpendicular,19,mm,19,19,mm,3,WEEK 6,INVESTIGATOR,,,2014-02,59
60,TR,CDISCPILOT01,01-701-1015,TARGET,T04,LPERP,Longest Perpendicular,16.56,mm,16.56,16.56,mm,3,WEEK 6,INVESTIGATOR,,,2014-02,60
61,TR,CDISCPILOT01,01-701-1015,TARGET,T01,LDIAM,Longest Diameter,0,mm,0,0,mm,4,WEEK 9,INDEPENDENT ASSESSOR,RADIOLOGIST 1,,2014-03-06,61
62,TR,CDISCPILOT01,01-701-1015,TARGET,T02,LPERP,Longest Perpendicular,6.79,mm,6.79,6.79,mm,4,WEEK 9,INDEPENDENT ASSESSOR,RADIOLOGIST 1,,2014-03-06,62
63,TR,CDISCPILOT01,01-701-1015,TARGET,T03,LDIAM,Longest Diameter,0,mm,0,0,mm,4,WEEK 9,INDEPENDENT ASSESSOR,RADIOLOGIST 1,,2014-03-06,63
64,TR,CDISCPILOT01,01-701-1015,TARGET,T04,LDIAM,Longest Diameter,0,mm,0,0,mm,4,WEEK 9,INDEPENDENT ASSESSOR,RADIOLOGIST 1,,2014-03-06,64
65,TR,CDISCPILOT01,01-701-1015,TARGET,T01,LPERP,Longest Perpendicular,0,mm,0,0,mm,4,WEEK 9,INDEPENDENT ASSESSOR,RADIOLOGIST 1,,2014-03-06,65
66,TR,CDISCPILOT01,01-701-1015,TARGET,T02,LDIAM,Longest Diameter,7.2653,mm,7.2653,7.2653,mm,4,WEEK 9,INDEPENDENT ASSESSOR,RADIOLOGIST 1,,2014-03-06,66
67,TR,CDISCPILOT01,01-701-1015,TARGET,T03,LPERP,Longest Perpendicular,0,mm,0,0,mm,4,WEEK 9,INDEPENDENT ASSESSOR,RADIOLOGIST 1,,2014-03-06,67
68,TR,CDISCPILOT01,01-701-1015,TARGET,T04,LPERP,Longest Perpendicular,0,mm,0,0,mm,4,WEEK 9,INDEPENDENT ASSESSOR,RADIOLOGIST 1,,2014-03-06,68
69,TR,CDISCPILOT01,01-701-1015,TARGET,T01,LDIAM,Longest Diameter,0,mm,0,0,mm,4,WEEK 9,INDEPENDENT ASSESSOR,RADIOLOGIST 2,Y,2014-03-06,69
70,TR,CDISCPILOT01,01-701-1015,TARGET,T02,LPERP,Longest Perpendicular,7,mm,7,7,mm,4,WEEK 9,INDEPENDENT ASSESSOR,RADIOLOGIST 2,Y,2014-03-06,70
71,TR,CDISCPILOT01,01-701-1015,TARGET,T03,LDIAM,Longest Diameter,0,mm,0,0,mm,4,WEEK 9,INDEPENDENT ASSESSOR,RADIOLOGIST 2,Y,2014-03-06,71
72,TR,CDISCPILOT01,01-701-1015,TARGET,T04,LDIAM,Longest Diameter,0,mm,0,0,mm,4,WEEK 9,INDEPENDENT ASSESSOR,RADIOLOGIST 2,Y,2014-03-06,72
73,TR,CDISCPILOT01,01-701-1015,TARGET,T01,LPERP,Longest Perpendicular,0,mm,0,0,mm,4,WEEK 9,INDEPENDENT ASSESSOR,RADIOLOGIST 2,Y,2014-03-06,73
74,TR,CDISCPILOT01,01-701-1015,TARGET,T02,LDIAM,Longest Diameter,7.49,mm,7.49,7.49,mm,4,WEEK 9,INDEPENDENT ASSESSOR,RADIOLOGIST 2,Y,2014-03-06,74
75,TR,CDISCPILOT01,01-701-1015,TARGET,T03,LPERP,Longest Perpendicular,0,mm,0,0,mm,4,WEEK 9,INDEPENDENT ASSESSOR,RADIOLOGIST 2,Y,2014-03-06,75
76,TR,CDISCPILOT01,01-701-1015,TARGET,T04,LPERP,Longest Perpendicular,0,mm,0,0,mm,4,WEEK 9,INDEPENDENT ASSESSOR,RADIOLOGIST 2,Y,2014-03-06,76
77,TR,CDISCPILOT01,01-701-1015,TARGET,T01,LDIAM,Longest Diameter,0,mm,0,0,mm,4,WEEK 9,INVESTIGATOR,,,2014-03-06,77
78,TR,CDISCPILOT01,01-701-1015,TARGET,T02,LPERP,Longest Perpendicular,7,mm,7,7,mm,4,WEEK 9,INVESTIGATOR,,,2014-03-06,78
79,TR,CDISCPILOT01,01-701-1015,TARGET,T03,LDIAM,Longest Diameter,0,mm,0,0,mm,4,WEEK 9,INVESTIGATOR,,,2014-03-06,79
80,TR,CDISCPILOT01,01-701-1015,TARGET,T04,LDIAM,Longest Diameter,0,mm,0,0,mm,4,WEEK 9,INVESTIGATOR,,,2014-03-06,80
81,TR,CDISCPILOT01,01-701-1015,TARGET,T01,LPERP,Longest Perpendicular,0,mm,0,0,mm,4,WEEK 9,INVESTIGATOR,,,2014-03-06,81
82,TR,CDISCPILOT01,01-701-1015,TARGET,T02,LDIAM,Longest Diameter,7.49,mm,7.49,7.49,mm,4,WEEK 9,INVESTIGATOR,,,2014-03-06,82
83,TR,CDISCPILOT01,01-701-1015,TARGET,T03,LPERP,Longest Perpendicular,0,mm,0,0,mm,4,WEEK 9,INVESTIGATOR,,,2014-03-06,83
84,TR,CDISCPILOT01,01-701-1015,TARGET,T04,LPERP,Longest Perpendicular,0,mm,0,0,mm,4,WEEK 9,INVESTIGATOR,,,2014-03-06,84
85,TR,CDISCPILOT01,01-701-1028,TARGET,T01,LDIAM,Longest Diameter,16.16,mm,16.16,16.16,mm,1,SCREENING,INDEPENDENT ASSESSOR,RADIOLOGIST 1,,2013-07-19,1
86,TR,CDISCPILOT01,01-701-1028,TARGET,T02,LDIAM,Longest Diameter,22.44,mm,22.44,22.44,mm,1,SCREENING,INDEPENDENT ASSESSOR,RADIOLOGIST 1,,2013-07-19,2
87,TR,CDISCPILOT01,01-701-1028,TARGET,T03,LDIAM,Longest Diameter,21.63,mm,21.63,21.63,mm,1,SCREENING,INDEPENDENT ASSESSOR,RADIOLOGIST 1,,2013-07-19,3
88,TR,CDISCPILOT01,01-701-1028,TARGET,T04,LDIAM,Longest Diameter,16.49,mm,16.49,16.49,mm,1,SCREENING,INDEPENDENT ASSESSOR,RADIOLOGIST 1,,2013-07-19,4
89,TR,CDISCPILOT01,01-701-1028,TARGET,T05,LDIAM,Longest Diameter,17.64,mm,17.64,17.64,mm,1,SCREENING,INDEPENDENT ASSESSOR,RADIOLOGIST 1,,2013-07-19,5
90,TR,CDISCPILOT01,01-701-1028,TARGET,T01,LPERP,Longest Perpendicular,15.5136,mm,15.5136,15.5136,mm,1,SCREENING,INDEPENDENT ASSESSOR,RADIOLOGIST 1,,2013-07-19,6
91,TR,CDISCPILOT01,01-701-1028,TARGET,T02,LPERP,Longest Perpendicular,21.318,mm,21.318,21.318,mm,1,SCREENING,INDEPENDENT ASSESSOR,RADIOLOGIST 1,,2013-07-19,7
92,TR,CDISCPILOT01,01-701-1028,TARGET,T03,LPERP,Longest Perpendicular,20.3322,mm,20.3322,20.3322,mm,1,SCREENING,INDEPENDENT ASSESSOR,RADIOLOGIST 1,,2013-07-19,8
93,TR,CDISCPILOT01,01-701-1028,TARGET,T04,LPERP,Longest Perpendicular,15.3357,mm,15.3357,15.3357,mm,1,SCREENING,INDEPENDENT ASSESSOR,RADIOLOGIST 1,,2013-07-19,9
94,TR,CDISCPILOT01,01-701-1028,TARGET,T05,LPERP,Longest Perpendicular,16.2288,mm,16.2288,16.2288,mm,1,SCREENING,INDEPENDENT ASSESSOR,RADIOLOGIST 1,,2013-07-19,10
95,TR,CDISCPILOT01,01-701-1028,TARGET,T01,LDIAM,Longest Diameter,15.52,mm,15.52,15.52,mm,1,SCREENING,INDEPENDENT ASSESSOR,RADIOLOGIST 2,Y,2013-07-19,11
96,TR,CDISCPILOT01,01-701-1028,TARGET,T02,LDIAM,Longest Diameter,21.56,mm,21.56,21.56,mm,1,SCREENING,INDEPENDENT ASSESSOR,RADIOLOGIST 2,Y,2013-07-19,12
97,TR,CDISCPILOT01,01-701-1028,TARGET,T03,LDIAM,Longest Diameter,20.79,mm,20.79,20.79,mm,1,SCREENING,INDEPENDENT ASSESSOR,RADIOLOGIST 2,Y,2013-07-19,13
98,TR,CDISCPILOT01,01-701-1028,TARGET,T04,LDIAM,Longest Diameter,17,mm,17,17,mm,1,SCREENING,INDEPENDENT ASSESSOR,RADIOLOGIST 2,Y,2013-07-19,14
99,TR,CDISCPILOT01,01-701-1028,TARGET,T05,LDIAM,Longest Diameter,18.18,mm,18.18,18.18,mm,1,SCREENING,INDEPENDENT ASSESSOR,RADIOLOGIST 2,Y,2013-07-19,15
100,TR,CDISCPILOT01,01-701-1028,TARGET,T01,LPERP,Longest Perpendicular,14.8992,mm,14.8992,14.8992,mm,1,SCREENING,INDEPENDENT ASSESSOR,RADIOLOGIST 2,Y,2013-07-19,16
101,TR,CDISCPILOT01,01-701-1028,TARGET,T02,LPERP,Longest Perpendicular,20.482,mm,20.482,20.482,mm,1,SCREENING,INDEPENDENT ASSESSOR,RADIOLOGIST 2,Y,2013-07-19,17
102,TR,CDISCPILOT01,01-701-1028,TARGET,T03,LPERP,Longest Perpendicular,19.5426,mm,19.5426,19.5426,mm,1,SCREENING,INDEPENDENT ASSESSOR,RADIOLOGIST 2,Y,2013-07-19,18
103,TR,CDISCPILOT01,01-701-1028,TARGET,T04,LPERP,Longest Perpendicular,15.81,mm,15.81,15.81,mm,1,SCREENING,INDEPENDENT ASSESSOR,RADIOLOGIST 2,Y,2013-07-19,19
104,TR,CDISCPILOT01,01-701-1028,TARGET,T05,LPERP,Longest Perpendicular,16.7256,mm,16.7256,16.7256,mm,1,SCREENING,INDEPENDENT ASSESSOR,RADIOLOGIST 2,Y,2013-07-19,20
105,TR,CDISCPILOT01,01-701-1028,TARGET,T01,LDIAM,Longest Diameter,16,mm,16,16,mm,1,SCREENING,INVESTIGATOR,,,2013-07-19,21
106,TR,CDISCPILOT01,01-701-1028,TARGET,T02,LDIAM,Longest Diameter,22,mm,22,22,mm,1,SCREENING,INVESTIGATOR,,,2013-07-19,22
107,TR,CDISCPILOT01,01-701-1028,TARGET,T03,LDIAM,Longest Diameter,21,mm,21,21,mm,1,SCREENING,INVESTIGATOR,,,2013-07-19,23
108,TR,CDISCPILOT01,01-701-1028,TARGET,T04,LDIAM,Longest Diameter,17,mm,17,17,mm,1,SCREENING,INVESTIGATOR,,,2013-07-19,24
109,TR,CDISCPILOT01,01-701-1028,TARGET,T05,LDIAM,Longest Diameter,18,mm,18,18,mm,1,SCREENING,INVESTIGATOR,,,2013-07-19,25
110,TR,CDISCPILOT01,01-701-1028,TARGET,T01,LPERP,Longest Perpendicular,15.36,mm,15.36,15.36,mm,1,SCREENING,INVESTIGATOR,,,2013-07-19,26
111,TR,CDISCPILOT01,01-701-1028,TARGET,T02,LPERP,Longest Perpendicular,20.9,mm,20.9,20.9,mm,1,SCREENING,INVESTIGATOR,,,2013-07-19,27
112,TR,CDISCPILOT01,01-701-1028,TARGET,T03,LPERP,Longest Perpendicular,19.74,mm,19.74,19.74,mm,1,SCREENING,INVESTIGATOR,,,2013-07-19,28
113,TR,CDISCPILOT01,01-701-1028,TARGET,T04,LPERP,Longest Perpendicular,15.81,mm,15.81,15.81,mm,1,SCREENING,INVESTIGATOR,,,2013-07-19,29
114,TR,CDISCPILOT01,01-701-1028,TARGET,T05,LPERP,Longest Perpendicular,16.56,mm,16.56,16.56,mm,1,SCREENING,INVESTIGATOR,,,2013-07-19,30
115,TR,CDISCPILOT01,01-701-1028,TARGET,T01,LDIAM,Longest Diameter,16.32,mm,16.32,16.32,mm,2,WEEK 3,INDEPENDENT ASSESSOR,RADIOLOGIST 1,Y,2013-08-09,31
116,TR,CDISCPILOT01,01-701-1028,TARGET,T02,LDIAM,Longest Diameter,21.63,mm,21.63,21.63,mm,2,WEEK 3,INDEPENDENT ASSESSOR,RADIOLOGIST 1,Y,2013-08-09,32
117,TR,CDISCPILOT01,01-701-1028,TARGET,T03,LDIAM,Longest Diameter,18.43,mm,18.43,18.43,mm,2,WEEK 3,INDEPENDENT ASSESSOR,RADIOLOGIST 1,Y,2013-08-09,33
118,TR,CDISCPILOT01,01-701-1028,TARGET,T04,LDIAM,Longest Diameter,16.66,mm,16.66,16.66,mm,2,WEEK 3,INDEPENDENT ASSESSOR,RADIOLOGIST 1,Y,2013-08-09,34
119,TR,CDISCPILOT01,01-701-1028,TARGET,T05,LDIAM,Longest Diameter,17.82,mm,17.82,17.82,mm,2,WEEK 3,INDEPENDENT ASSESSOR,RADIOLOGIST 1,Y,2013-08-09,35
120,TR,CDISCPILOT01,01-701-1028,TARGET,T01,LPERP,Longest Perpendicular,15.504,mm,15.504,15.504,mm,2,WEEK 3,INDEPENDENT ASSESSOR,RADIOLOGIST 1,Y,2013-08-09,36
121,TR,CDISCPILOT01,01-701-1028,TARGET,T02,LPERP,Longest Perpendicular,20.3322,mm,20.3322,20.3322,mm,2,WEEK 3,INDEPENDENT ASSESSOR,RADIOLOGIST 1,Y,2013-08-09,37
122,TR,CDISCPILOT01,01-701-1028,TARGET,T03,LPERP,Longest Perpendicular,17.1399,mm,17.1399,17.1399,mm,2,WEEK 3,INDEPENDENT ASSESSOR,RADIOLOGIST 1,Y,2013-08-09,38
123,TR,CDISCPILOT01,01-701-1028,TARGET,T04,LPERP,Longest Perpendicular,15.3272,mm,15.3272,15.3272,mm,2,WEEK 3,INDEPENDENT ASSESSOR,RADIOLOGIST 1,Y,2013-08-09,39
124,TR,CDISCPILOT01,01-701-1028,TARGET,T05,LPERP,Longest Perpendicular,16.2162,mm,16.2162,16.2162,mm,2,WEEK 3,INDEPENDENT ASSESSOR,RADIOLOGIST 1,Y,2013-08-09,40
125,TR,CDISCPILOT01,01-701-1028,TARGET,T01,LDIAM,Longest Diameter,15.68,mm,15.68,15.68,mm,2,WEEK 3,INDEPENDENT ASSESSOR,RADIOLOGIST 2,,2013-08-09,41
126,TR,CDISCPILOT01,01-701-1028,TARGET,T02,LDIAM,Longest Diameter,20.79,mm,20.79,20.79,mm,2,WEEK 3,INDEPENDENT ASSESSOR,RADIOLOGIST 2,,2013-08-09,42
127,TR,CDISCPILOT01,01-701-1028,TARGET,T03,LDIAM,Longest Diameter,19,mm,19,19,mm,2,WEEK 3,INDEPENDENT ASSESSOR,RADIOLOGIST 2,,2013-08-09,43
128,TR,CDISCPILOT01,01-701-1028,TARGET,T04,LDIAM,Longest Diameter,17.17,mm,17.17,17.17,mm,2,WEEK 3,INDEPENDENT ASSESSOR,RADIOLOGIST 2,,2013-08-09,44
129,TR,CDISCPILOT01,01-701-1028,TARGET,T05,LDIAM,Longest Diameter,18.36,mm,18.36,18.36,mm,2,WEEK 3,INDEPENDENT ASSESSOR,RADIOLOGIST 2,,2013-08-09,45
130,TR,CDISCPILOT01,01-701-1028,TARGET,T01,LPERP,Longest Perpendicular,14.896,mm,14.896,14.896,mm,2,WEEK 3,INDEPENDENT ASSESSOR,RADIOLOGIST 2,,2013-08-09,46
131,TR,CDISCPILOT01,01-701-1028,TARGET,T02,LPERP,Longest Perpendicular,19.5426,mm,19.5426,19.5426,mm,2,WEEK 3,INDEPENDENT ASSESSOR,RADIOLOGIST 2,,2013-08-09,47
132,TR,CDISCPILOT01,01-701-1028,TARGET,T03,LPERP,Longest Perpendicular,17.67,mm,17.67,17.67,mm,2,WEEK 3,INDEPENDENT ASSESSOR,RADIOLOGIST 2,,2013-08-09,48
133,TR,CDISCPILOT01,01-701-1028,TARGET,T04,LPERP,Longest Perpendicular,15.7964,mm,15.7964,15.7964,mm,2,WEEK 3,INDEPENDENT ASSESSOR,RADIOLOGIST 2,,2013-08-09,49
134,TR,CDISCPILOT01,01-701-1028,TARGET,T05,LPERP,Longest Perpendicular,16.7076,mm,16.7076,16.7076,mm,2,WEEK 3,INDEPENDENT ASSESSOR,RADIOLOGIST 2,,2013-08-09,50
135,TR,CDISCPILOT01,01-701-1028,TARGET,T01,LDIAM,Longest Diameter,16,mm,16,16,mm,2,WEEK 3,INVESTIGATOR,,,2013-08-09,51
136,TR,CDISCPILOT01,01-701-1028,TARGET,T02,LDIAM,Longest Diameter,21,mm,21,21,mm,2,WEEK 3,INVESTIGATOR,,,2013-08-09,52
137,TR,CDISCPILOT01,01-701-1028,TARGET,T03,LDIAM,Longest Diameter,19,mm,19,19,mm,2,WEEK 3,INVESTIGATOR,,,2013-08-09,53
138,TR,CDISCPILOT01,01-701-1028,TARGET,T04,LDIAM,Longest Diameter,17,mm,17,17,mm,2,WEEK 3,INVESTIGATOR,,,2013-08-09,54
139,TR,CDISCPILOT01,01-701-1028,TARGET,T05,LDIAM,Longest Diameter,18,mm,18,18,mm,2,WEEK 3,INVESTIGATOR,,,2013-08-09,55
140,TR,CDISCPILOT01,01-701-1028,TARGET,T01,LPERP,Longest Perpendicular,15.2,mm,15.2,15.2,mm,2,WEEK 3,INVESTIGATOR,,,2013-08-09,56
141,TR,CDISCPILOT01,01-701-1028,TARGET,T02,LPERP,Longest Perpendicular,19.74,mm,19.74,19.74,mm,2,WEEK 3,INVESTIGATOR,,,2013-08-09,57
142,TR,CDISCPILOT01,01-701-1028,TARGET,T03,LPERP,Longest Perpendicular,17.67,mm,17.67,17.67,mm,2,WEEK 3,INVESTIGATOR,,,2013-08-09,58
143,TR,CDISCPILOT01,01-701-1028,TARGET,T04,LPERP,Longest Perpendicular,15.64,mm,15.64,15.64,mm,2,WEEK 3,INVESTIGATOR,,,2013-08-09,59
144,TR,CDISCPILOT01,01-701-1028,TARGET,T05,LPERP,Longest Perpendicular,16.38,mm,16.38,16.38,mm,2,WEEK 3,INVESTIGATOR,,,2013-08-09,60
145,TR,CDISCPILOT01,01-701-1028,TARGET,T02,LDIAM,Longest Diameter,32.98,mm,32.98,32.98,mm,3,WEEK 6,INDEPENDENT ASSESSOR,RADIOLOGIST 1,,2013-08-30,61
146,TR,CDISCPILOT01,01-701-1028,TARGET,T03,LDIAM,Longest Diameter,40.18,mm,40.18,40.18,mm,3,WEEK 6,INDEPENDENT ASSESSOR,RADIOLOGIST 1,,2013-08-30,62
147,TR,CDISCPILOT01,01-701-1028,TARGET,T04,LDIAM,Longest Diameter,25.74,mm,25.74,25.74,mm,3,WEEK 6,INDEPENDENT ASSESSOR,RADIOLOGIST 1,,2013-08-30,63
148,TR,CDISCPILOT01,01-701-1028,TARGET,T05,LDIAM,Longest Diameter,9,mm,9,9,mm,3,WEEK 6,INDEPENDENT ASSESSOR,RADIOLOGIST 1,,2013-08-30,64
149,TR,CDISCPILOT01,01-701-1028,TARGET,T02,LPERP,Longest Perpendicular,30.6714,mm,30.6714,30.6714,mm,3,WEEK 6,INDEPENDENT ASSESSOR,RADIOLOGIST 1,,2013-08-30,65
150,TR,CDISCPILOT01,01-701-1028,TARGET,T03,LPERP,Longest Perpendicular,36.9656,mm,36.9656,36.9656,mm,3,WEEK 6,INDEPENDENT ASSESSOR,RADIOLOGIST 1,,2013-08-30,66
151,TR,CDISCPILOT01,01-701-1028,TARGET,T04,LPERP,Longest Perpendicular,23.4234,mm,23.4234,23.4234,mm,3,WEEK 6,INDEPENDENT ASSESSOR,RADIOLOGIST 1,,2013-08-30,67
152,TR,CDISCPILOT01,01-701-1028,TARGET,T05,LPERP,Longest Perpendicular,8.1,mm,8.1,8.1,mm,3,WEEK 6,INDEPENDENT ASSESSOR,RADIOLOGIST 1,,2013-08-30,68
153,TR,CDISCPILOT01,01-701-1028,TARGET,T02,LDIAM,Longest Diameter,34,mm,34,34,mm,3,WEEK 6,INDEPENDENT ASSESSOR,RADIOLOGIST 2,Y,2013-08-30,69
154,TR,CDISCPILOT01,01-701-1028,TARGET,T03,LDIAM,Longest Diameter,41.41,mm,41.41,41.41,mm,3,WEEK 6,INDEPENDENT ASSESSOR,RADIOLOGIST 2,Y,2013-08-30,70
155,TR,CDISCPILOT01,01-701-1028,TARGET,T04,LDIAM,Longest Diameter,26.52,mm,26.52,26.52,mm,3,WEEK 6,INDEPENDENT ASSESSOR,RADIOLOGIST 2,Y,2013-08-30,71
156,TR,CDISCPILOT01,01-701-1028,TARGET,T05,LDIAM,Longest Diameter,9.27,mm,9.27,9.27,mm,3,WEEK 6,INDEPENDENT ASSESSOR,RADIOLOGIST 2,Y,2013-08-30,72
157,TR,CDISCPILOT01,01-701-1028,TARGET,T02,LPERP,Longest Perpendicular,31.62,mm,31.62,31.62,mm,3,WEEK 6,INDEPENDENT ASSESSOR,RADIOLOGIST 2,Y,2013-08-30,73
158,TR,CDISCPILOT01,01-701-1028,TARGET,T03,LPERP,Longest Perpendicular,38.0972,mm,38.0972,38.0972,mm,3,WEEK 6,INDEPENDENT ASSESSOR,RADIOLOGIST 2,Y,2013-08-30,74
159,TR,CDISCPILOT01,01-701-1028,TARGET,T04,LPERP,Longest Perpendicular,24.1332,mm,24.1332,24.1332,mm,3,WEEK 6,INDEPENDENT ASSESSOR,RADIOLOGIST 2,Y,2013-08-30,75
160,TR,CDISCPILOT01,01-701-1028,TARGET,T05,LPERP,Longest Perpendicular,8.343,mm,8.343,8.343,mm,3,WEEK 6,INDEPENDENT ASSESSOR,RADIOLOGIST 2,Y,2013-08-30,76
161,TR,CDISCPILOT01,01-701-1028,TARGET,T02,LDIAM,Longest Diameter,34,mm,34,34,mm,3,WEEK 6,INVESTIGATOR,,,2013-08-30,77
162,TR,CDISCPILOT01,01-701-1028,TARGET,T03,LDIAM,Longest Diameter,41,mm,41,41,mm,3,WEEK 6,INVESTIGATOR,,,2013-08-30,78
163,TR,CDISCPILOT01,01-701-1028,TARGET,T04,LDIAM,Longest Diameter,26,mm,26,26,mm,3,WEEK 6,INVESTIGATOR,,,2013-08-30,79
164,TR,CDISCPILOT01,01-701-1028,TARGET,T05,LDIAM,Longest Diameter,9,mm,9,9,mm,3,WEEK 6,INVESTIGATOR,,,2013-08-30,80
165,TR,CDISCPILOT01,01-701-1028,TARGET,T02,LPERP,Longest Perpendicular,31.62,mm,31.62,31.62,mm,3,WEEK 6,INVESTIGATOR,,,2013-08-30,81
166,TR,CDISCPILOT01,01-701-1028,TARGET,T03,LPERP,Longest Perpendicular,37.72,mm,37.72,37.72,mm,3,WEEK 6,INVESTIGATOR,,,2013-08-30,82
167,TR,CDISCPILOT01,01-701-1028,TARGET,T04,LPERP,Longest Perpendicular,23.66,mm,23.66,23.66,mm,3,WEEK 6,INVESTIGATOR,,,2013-08-30,83
168,TR,CDISCPILOT01,01-701-1028,TARGET,T05,LPERP,Longest Perpendicular,8.1,mm,8.1,8.1,mm,3,WEEK 6,INVESTIGATOR,,,2013-08-30,84
169,TR,CDISCPILOT01,01-701-1028,TARGET,T01,LDIAM,Longest Diameter,16.49,mm,16.49,16.49,mm,4,WEEK 9,INDEPENDENT ASSESSOR,RADIOLOGIST 1,Y,2013-09-20,85
170,TR,CDISCPILOT01,01-701-1028,TARGET,T02,LDIAM,Longest Diameter,22.54,mm,22.54,22.54,mm,4,WEEK 9,INDEPENDENT ASSESSOR,RADIOLOGIST 1,Y,2013-09-20,86
171,TR,CDISCPILOT01,01-701-1028,TARGET,T03,LDIAM,Longest Diameter,19.8,mm,19.8,19.8,mm,4,WEEK 9,INDEPENDENT ASSESSOR,RADIOLOGIST 1,Y,2013-09-20,87
172,TR,CDISCPILOT01,01-701-1028,TARGET,T04,LDIAM,Longest Diameter,25,mm,25,25,mm,4,WEEK 9,INDEPENDENT ASSESSOR,RADIOLOGIST 1,Y,2013-09-20,88
173,TR,CDISCPILOT01,01-701-1028,TARGET,T05,LDIAM,Longest Diameter,7.07,mm,7.07,7.07,mm,4,WEEK 9,INDEPENDENT ASSESSOR,RADIOLOGIST 1,Y,2013-09-20,89
174,TR,CDISCPILOT01,01-701-1028,TARGET,T01,LPERP,Longest Perpendicular,15.3357,mm,15.3357,15.3357,mm,4,WEEK 9,INDEPENDENT ASSESSOR,RADIOLOGIST 1,Y,2013-09-20,90
175,TR,CDISCPILOT01,01-701-1028,TARGET,T02,LPERP,Longest Perpendicular,20.7368,mm,20.7368,20.7368,mm,4,WEEK 9,INDEPENDENT ASSESSOR,RADIOLOGIST 1,Y,2013-09-20,91
176,TR,CDISCPILOT01,01-701-1028,TARGET,T03,LPERP,Longest Perpendicular,18.018,mm,18.018,18.018,mm,4,WEEK 9,INDEPENDENT ASSESSOR,RADIOLOGIST 1,Y,2013-09-20,92
177,TR,CDISCPILOT01,01-701-1028,TARGET,T04,LPERP,Longest Perpendicular,22.5,mm,22.5,22.5,mm,4,WEEK 9,INDEPENDENT ASSESSOR,RADIOLOGIST 1,Y,2013-09-20,93
178,TR,CDISCPILOT01,01-701-1028,TARGET,T05,LPERP,Longest Perpendicular,7.07,mm,7.07,7.07,mm,4,WEEK 9,INDEPENDENT ASSESSOR,RADIOLOGIST 1,Y,2013-09-20,94
179,TR,CDISCPILOT01,01-701-1028,TARGET,T01,LDIAM,Longest Diameter,17,mm,17,17,mm,4,WEEK 9,INDEPENDENT ASSESSOR,RADIOLOGIST 2,,2013-09-20,95
180,TR,CDISCPILOT01,01-701-1028,TARGET,T02,LDIAM,Longest Diameter,23.23,mm,23.23,23.23,mm,4,WEEK 9,INDEPENDENT ASSESSOR,RADIOLOGIST 2,,2013-09-20,96
181,TR,CDISCPILOT01,01-701-1028,TARGET,T03,LDIAM,Longest Diameter,20.4,mm,20.4,20.4,mm,4,WEEK 9,INDEPENDENT ASSESSOR,RADIOLOGIST 2,,2013-09-20,97
182,TR,CDISCPILOT01,01-701-1028,TARGET,T04,LDIAM,Longest Diameter,25.75,mm,25.75,25.75,mm,4,WEEK 9,INDEPENDENT ASSESSOR,RADIOLOGIST 2,,2013-09-20,98
183,TR,CDISCPILOT01,01-701-1028,TARGET,T05,LDIAM,Longest Diameter,6.79,mm,6.79,6.79,mm,4,WEEK 9,INDEPENDENT ASSESSOR,RADIOLOGIST 2,,2013-09-20,99
184,TR,CDISCPILOT01,01-701-1028,TARGET,T01,LPERP,Longest Perpendicular,15.81,mm,15.81,15.81,mm,4,WEEK 9,INDEPENDENT ASSESSOR,RADIOLOGIST 2,,2013-09-20,100
185,TR,CDISCPILOT01,01-701-1028,TARGET,T02,LPERP,Longest Perpendicular,21.3716,mm,21.3716,21.3716,mm,4,WEEK 9,INDEPENDENT ASSESSOR,RADIOLOGIST 2,,2013-09-20,101
186,TR,CDISCPILOT01,01-701-1028,TARGET,T03,LPERP,Longest Perpendicular,18.564,mm,18.564,18.564,mm,4,WEEK 9,INDEPENDENT ASSESSOR,RADIOLOGIST 2,,2013-09-20,102
187,TR,CDISCPILOT01,01-701-1028,TARGET,T04,LPERP,Longest Perpendicular,23.175,mm,23.175,23.175,mm,4,WEEK 9,INDEPENDENT ASSESSOR,RADIOLOGIST 2,,2013-09-20,103
188,TR,CDISCPILOT01,01-701-1028,TARGET,T05,LPERP,Longest Perpendicular,6.79,mm,6.79,6.79,mm,4,WEEK 9,INDEPENDENT ASSESSOR,RADIOLOGIST 2,,2013-09-20,104
189,TR,CDISCPILOT01,01-701-1028,TARGET,T01,LDIAM,Longest Diameter,17,mm,17,17,mm,4,WEEK 9,INVESTIGATOR,,,2013-09-20,105
190,TR,CDISCPILOT01,01-701-1028,TARGET,T02,LDIAM,Longest Diameter,23,mm,23,23,mm,4,WEEK 9,INVESTIGATOR,,,2013-09-20,106
191,TR,CDISCPILOT01,01-701-1028,TARGET,T03,LDIAM,Longest Diameter,20,mm,20,20,mm,4,WEEK 9,INVESTIGATOR,,,2013-09-20,107
192,TR,CDISCPILOT01,01-701-1028,TARGET,T04,LDIAM,Longest Diameter,25,mm,25,25,mm,4,WEEK 9,INVESTIGATOR,,,2013-09-20,108
193,TR,CDISCPILOT01,01-701-1028,TARGET,T05,LDIAM,Longest Diameter,7,mm,7,7,mm,4,WEEK 9,INVESTIGATOR,,,2013-09-20,109
194,TR,CDISCPILOT01,01-701-1028,TARGET,T01,LPERP,Longest Perpendicular,15.81,mm,15.81,15.81,mm,4,WEEK 9,INVESTIGATOR,,,2013-09-20,110
195,TR,CDISCPILOT01,01-701-1028,TARGET,T02,LPERP,Longest Perpendicular,21.16,mm,21.16,21.16,mm,4,WEEK 9,INVESTIGATOR,,,2013-09-20,111
196,TR,CDISCPILOT01,01-701-1028,TARGET,T03,LPERP,Longest Perpendicular,18.2,mm,18.2,18.2,mm,4,WEEK 9,INVESTIGATOR,,,2013-09-20,112
197,TR,CDISCPILOT01,01-701-1028,TARGET,T04,LPERP,Longest Perpendicular,22.5,mm,22.5,22.5,mm,4,WEEK 9,INVESTIGATOR,,,2013-09-20,113
198,TR,CDISCPILOT01,01-701-1028,TARGET,T05,LPERP,Longest Perpendicular,7,mm,7,7,mm,4,WEEK 9,INVESTIGATOR,,,2013-09-20,114
199,TR,CDISCPILOT01,01-701-1034,NON-TARGET,NT01,TUMSTATE,Tumor State,PRESENT,,PRESENT,,,1,SCREENING,INDEPENDENT ASSESSOR,RADIOLOGIST 1,Y,2014-07-01,1
200,TR,CDISCPILOT01,01-701-1034,NON-TARGET,NT02,TUMSTATE,Tumor State,PRESENT,,PRESENT,,,1,SCREENING,INDEPENDENT ASSESSOR,RADIOLOGIST 1,Y,2014-07-01,2
201,TR,CDISCPILOT01,01-701-1034,NON-TARGET,NT03,TUMSTATE,Tumor State,PRESENT,,PRESENT,,,1,SCREENING,INDEPENDENT ASSESSOR,RADIOLOGIST 1,Y,2014-07-01,3
202,TR,CDISCPILOT01,01-701-1034,NON-TARGET,NT01,TUMSTATE,Tumor State,PRESENT,,PRESENT,,,1,SCREENING,INDEPENDENT ASSESSOR,RADIOLOGIST 1,Y,2014-07-01,4
203,TR,CDISCPILOT01,01-701-1034,NON-TARGET,NT02,TUMSTATE,Tumor State,PRESENT,,PRESENT,,,1,SCREENING,INDEPENDENT ASSESSOR,RADIOLOGIST 1,Y,2014-07-01,5
204,TR,CDISCPILOT01,01-701-1034,NON-TARGET,NT03,TUMSTATE,Tumor State,PRESENT,,PRESENT,,,1,SCREENING,INDEPENDENT ASSESSOR,RADIOLOGIST 1,Y,2014-07-01,6
205,TR,CDISCPILOT01,01-701-1034,NON-TARGET,NT01,TUMSTATE,Tumor State,PRESENT,,PRESENT,,,1,SCREENING,INDEPENDENT ASSESSOR,RADIOLOGIST 2,,2014-07-01,7
206,TR,CDISCPILOT01,01-701-1034,NON-TARGET,NT02,TUMSTATE,Tumor State,PRESENT,,PRESENT,,,1,SCREENING,INDEPENDENT ASSESSOR,RADIOLOGIST 2,,2014-07-01,8
207,TR,CDISCPILOT01,01-701-1034,NON-TARGET,NT03,TUMSTATE,Tumor State,PRESENT,,PRESENT,,,1,SCREENING,INDEPENDENT ASSESSOR,RADIOLOGIST 2,,2014-07-01,9
208,TR,CDISCPILOT01,01-701-1034,NON-TARGET,NT01,TUMSTATE,Tumor State,PRESENT,,PRESENT,,,1,SCREENING,INDEPENDENT ASSESSOR,RADIOLOGIST 2,,2014-07-01,10
209,TR,CDISCPILOT01,01-701-1034,NON-TARGET,NT02,TUMSTATE,Tumor State,PRESENT,,PRESENT,,,1,SCREENING,INDEPENDENT ASSESSOR,RADIOLOGIST 2,,2014-07-01,11
210,TR,CDISCPILOT01,01-701-1034,NON-TARGET,NT03,TUMSTATE,Tumor State,PRESENT,,PRESENT,,,1,SCREENING,INDEPENDENT ASSESSOR,RADIOLOGIST 2,,2014-07-01,12
211,TR,CDISCPILOT01,01-701-1034,NON-TARGET,NT01,TUMSTATE,Tumor State,PRESENT,,PRESENT,,,1,SCREENING,INVESTIGATOR,,,2014-07-01,13
212,TR,CDISCPILOT01,01-701-1034,NON-TARGET,NT02,TUMSTATE,Tumor State,PRESENT,,PRESENT,,,1,SCREENING,INVESTIGATOR,,,2014-07-01,14
213,TR,CDISCPILOT01,01-701-1034,NON-TARGET,NT03,TUMSTATE,Tumor State,PRESENT,,PRESENT,,,1,SCREENING,INVESTIGATOR,,,2014-07-01,15
214,TR,CDISCPILOT01,01-701-1034,NON-TARGET,NT01,TUMSTATE,Tumor State,PRESENT,,PRESENT,,,1,SCREENING,INVESTIGATOR,,,2014-07-01,16
215,TR,CDISCPILOT01,01-701-1034,NON-TARGET,NT02,TUMSTATE,Tumor State,PRESENT,,PRESENT,,,1,SCREENING,INVESTIGATOR,,,2014-07-01,17
216,TR,CDISCPILOT01,01-701-1034,NON-TARGET,NT03,TUMSTATE,Tumor State,PRESENT,,PRESENT,,,1,SCREENING,INVESTIGATOR,,,2014-07-01,18
217,TR,CDISCPILOT01,01-701-1034,NON-TARGET,NT01,TUMSTATE,Tumor State,PRESENT,,PRESENT,,,2,WEEK 3,INDEPENDENT ASSESSOR,RADIOLOGIST 1,,2014-07-22,19
218,TR,CDISCPILOT01,01-701-1034,NON-TARGET,NT02,TUMSTATE,Tumor State,ABSENT,,ABSENT,,,2,WEEK 3,INDEPENDENT ASSESSOR,RADIOLOGIST 1,,2014-07-22,20
219,TR,CDISCPILOT01,01-701-1034,NON-TARGET,NT03,TUMSTATE,Tumor State,PRESENT,,PRESENT,,,2,WEEK 3,INDEPENDENT ASSESSOR,RADIOLOGIST 1,,2014-07-22,21
220,TR,CDISCPILOT01,01-701-1034,NON-TARGET,NT01,TUMSTATE,Tumor State,PRESENT,,PRESENT,,,2,WEEK 3,INDEPENDENT ASSESSOR,RADIOLOGIST 1,,2014-07-22,22
221,TR,CDISCPILOT01,01-701-1034,NON-TARGET,NT02,TUMSTATE,Tumor State,ABSENT,,ABSENT,,,2,WEEK 3,INDEPENDENT ASSESSOR,RADIOLOGIST 1,,2014-07-22,23
222,TR,CDISCPILOT01,01-701-1034,NON-TARGET,NT03,TUMSTATE,Tumor State,PRESENT,,PRESENT,,,2,WEEK 3,INDEPENDENT ASSESSOR,RADIOLOGIST 1,,2014-07-22,24
223,TR,CDISCPILOT01,01-701-1034,NON-TARGET,NT01,TUMSTATE,Tumor State,PRESENT,,PRESENT,,,2,WEEK 3,INDEPENDENT ASSESSOR,RADIOLOGIST 2,Y,2014-07-22,25
224,TR,CDISCPILOT01,01-701-1034,NON-TARGET,NT02,TUMSTATE,Tumor State,ABSENT,,ABSENT,,,2,WEEK 3,INDEPENDENT ASSESSOR,RADIOLOGIST 2,Y,2014-07-22,26
225,TR,CDISCPILOT01,01-701-1034,NON-TARGET,NT03,TUMSTATE,Tumor State,PRESENT,,PRESENT,,,2,WEEK 3,INDEPENDENT ASSESSOR,RADIOLOGIST 2,Y,2014-07-22,27
226,TR,CDISCPILOT01,01-701-1034,NON-TARGET,NT01,TUMSTATE,Tumor State,PRESENT,,PRESENT,,,2,WEEK 3,INDEPENDENT ASSESSOR,RADIOLOGIST 2,Y,2014-07-22,28
227,TR,CDISCPILOT01,01-701-1034,NON-TARGET,NT02,TUMSTATE,Tumor State,ABSENT,,ABSENT,,,2,WEEK 3,INDEPENDENT ASSESSOR,RADIOLOGIST 2,Y,2014-07-22,29
228,TR,CDISCPILOT01,01-701-1034,NON-TARGET,NT03,TUMSTATE,Tumor State,PRESENT,,PRESENT,,,2,WEEK 3,INDEPENDENT ASSESSOR,RADIOLOGIST 2,Y,2014-07-22,30
229,TR,CDISCPILOT01,01-701-1034,NON-TARGET,NT01,TUMSTATE,Tumor State,PRESENT,,PRESENT,,,2,WEEK 3,INVESTIGATOR,,,2014-07-22,31
230,TR,CDISCPILOT01,01-701-1034,NON-TARGET,NT02,TUMSTATE,Tumor State,ABSENT,,ABSENT,,,2,WEEK 3,INVESTIGATOR,,,2014-07-22,32
231,TR,CDISCPILOT01,01-701-1034,NON-TARGET,NT03,TUMSTATE,Tumor State,PRESENT,,PRESENT,,,2,WEEK 3,INVESTIGATOR,,,2014-07-22,33
232,TR,CDISCPILOT01,01-701-1034,NON-TARGET,NT01,TUMSTATE,Tumor State,PRESENT,,PRESENT,,,2,WEEK 3,INVESTIGATOR,,,2014-07-22,34
233,TR,CDISCPILOT01,01-701-1034,NON-TARGET,NT02,TUMSTATE,Tumor State,ABSENT,,ABSENT,,,2,WEEK 3,INVESTIGATOR,,,2014-07-22,35
234,TR,CDISCPILOT01,01-701-1034,NON-TARGET,NT03,TUMSTATE,Tumor State,PRESENT,,PRESENT,,,2,WEEK 3,INVESTIGATOR,,,2014-07-22,36
235,TR,CDISCPILOT01,01-701-1034,NON-TARGET,NT01,TUMSTATE,Tumor State,PRESENT,,PRESENT,,,3,WEEK 6,INDEPENDENT ASSESSOR,RADIOLOGIST 1,Y,2014-08-12,37
236,TR,CDISCPILOT01,01-701-1034,NON-TARGET,NT02,TUMSTATE,Tumor State,ABSENT,,ABSENT,,,3,WEEK 6,INDEPENDENT ASSESSOR,RADIOLOGIST 1,Y,2014-08-12,38
237,TR,CDISCPILOT01,01-701-1034,NON-TARGET,NT03,TUMSTATE,Tumor State,ABSENT,,ABSENT,,,3,WEEK 6,INDEPENDENT ASSESSOR,RADIOLOGIST 1,Y,2014-08-12,39
238,TR,CDISCPILOT01,01-701-1034,NON-TARGET,NT01,TUMSTATE,Tumor State,PRESENT,,PRESENT,,,3,WEEK 6,INDEPENDENT ASSESSOR,RADIOLOGIST 1,Y,2014-08-12,40
239,TR,CDISCPILOT01,01-701-1034,NON-TARGET,NT02,TUMSTATE,Tumor State,ABSENT,,ABSENT,,,3,WEEK 6,INDEPENDENT ASSESSOR,RADIOLOGIST 1,Y,2014-08-12,41
240,TR,CDISCPILOT01,01-701-1034,NON-TARGET,NT03,TUMSTATE,Tumor State,ABSENT,,ABSENT,,,3,WEEK 6,INDEPENDENT ASSESSOR,RADIOLOGIST 1,Y,2014-08-12,42
241,TR,CDISCPILOT01,01-701-1034,NON-TARGET,NT01,TUMSTATE,Tumor State,PRESENT,,PRESENT,,,3,WEEK 6,INDEPENDENT ASSESSOR,RADIOLOGIST 2,,2014-08-12,43
242,TR,CDISCPILOT01,01-701-1034,NON-TARGET,NT02,TUMSTATE,Tumor State,ABSENT,,ABSENT,,,3,WEEK 6,INDEPENDENT ASSESSOR,RADIOLOGIST 2,,2014-08-12,44
243,TR,CDISCPILOT01,01-701-1034,NON-TARGET,NT03,TUMSTATE,Tumor State,ABSENT,,ABSENT,,,3,WEEK 6,INDEPENDENT ASSESSOR,RADIOLOGIST 2,,2014-08-12,45
244,TR,CDISCPILOT01,01-701-1034,NON-TARGET,NT01,TUMSTATE,Tumor State,PRESENT,,PRESENT,,,3,WEEK 6,INDEPENDENT ASSESSOR,RADIOLOGIST 2,,2014-08-12,46
245,TR,CDISCPILOT01,01-701-1034,NON-TARGET,NT02,TUMSTATE,Tumor State,ABSENT,,ABSENT,,,3,WEEK 6,INDEPENDENT ASSESSOR,RADIOLOGIST 2,,2014-08-12,47
246,TR,CDISCPILOT01,01-701-1034,NON-TARGET,NT03,TUMSTATE,Tumor State,ABSENT,,ABSENT,,,3,WEEK 6,INDEPENDENT ASSESSOR,RADIOLOGIST 2,,2014-08-12,48
247,TR,CDISCPILOT01,01-701-1034,NON-TARGET,NT01,TUMSTATE,Tumor State,PRESENT,,PRESENT,,,3,WEEK 6,INVESTIGATOR,,,2014-08-12,49
248,TR,CDISCPILOT01,01-701-1034,NON-TARGET,NT02,TUMSTATE,Tumor State,ABSENT,,ABSENT,,,3,WEEK 6,INVESTIGATOR,,,2014-08-12,50
249,TR,CDISCPILOT01,01-701-1034,NON-TARGET,NT03,TUMSTATE,Tumor State,ABSENT,,ABSENT,,,3,WEEK 6,INVESTIGATOR,,,2014-08-12,51
250,TR,CDISCPILOT01,01-701-1034,NON-TARGET,NT01,TUMSTATE,Tumor State,PRESENT,,PRESENT,,,3,WEEK 6,INVESTIGATOR,,,2014-08-12,52
251,TR,CDISCPILOT01,01-701-1034,NON-TARGET,NT02,TUMSTATE,Tumor State,ABSENT,,ABSENT,,,3,WEEK 6,INVESTIGATOR,,,2014-08-12,53
252,TR,CDISCPILOT01,01-701-1034,NON-TARGET,NT03,TUMSTATE,Tumor State,ABSENT,,ABSENT,,,3,WEEK 6,INVESTIGATOR,,,2014-08-12,54
253,TR,CDISCPILOT01,01-701-1097,NON-TARGET,NT01,TUMSTATE,Tumor State,PRESENT,,PRESENT,,,1,SCREENING,INDEPENDENT ASSESSOR,RADIOLOGIST 1,,2014-01-01,1
254,TR,CDISCPILOT01,01-701-1097,NON-TARGET,NT02,TUMSTATE,Tumor State,PRESENT,,PRESENT,,,1,SCREENING,INDEPENDENT ASSESSOR,RADIOLOGIST 1,,2014-01-01,2
255,TR,CDISCPILOT01,01-701-1097,NON-TARGET,NT01,TUMSTATE,Tumor State,PRESENT,,PRESENT,,,1,SCREENING,INDEPENDENT ASSESSOR,RADIOLOGIST 1,,2014-01-01,3
256,TR,CDISCPILOT01,01-701-1097,NON-TARGET,NT02,TUMSTATE,Tumor State,PRESENT,,PRESENT,,,1,SCREENING,INDEPENDENT ASSESSOR,RADIOLOGIST 1,,2014-01-01,4
257,TR,CDISCPILOT01,01-701-1097,NON-TARGET,NT01,TUMSTATE,Tumor State,PRESENT,,PRESENT,,,1,SCREENING,INDEPENDENT ASSESSOR,RADIOLOGIST 2,Y,2014-01-01,5
258,TR,CDISCPILOT01,01-701-1097,NON-TARGET,NT02,TUMSTATE,Tumor State,PRESENT,,PRESENT,,,1,SCREENING,INDEPENDENT ASSESSOR,RADIOLOGIST 2,Y,2014-01-01,6
259,TR,CDISCPILOT01,01-701-1097,NON-TARGET,NT01,TUMSTATE,Tumor State,PRESENT,,PRESENT,,,1,SCREENING,INDEPENDENT ASSESSOR,RADIOLOGIST 2,Y,2014-01-01,7
260,TR,CDISCPILOT01,01-701-1097,NON-TARGET,NT02,TUMSTATE,Tumor State,PRESENT,,PRESENT,,,1,SCREENING,INDEPENDENT ASSESSOR,RADIOLOGIST 2,Y,2014-01-01,8
261,TR,CDISCPILOT01,01-701-1097,NON-TARGET,NT01,TUMSTATE,Tumor State,PRESENT,,PRESENT,,,1,SCREENING,INVESTIGATOR,,,2014-01-01,9
262,TR,CDISCPILOT01,01-701-1097,NON-TARGET,NT02,TUMSTATE,Tumor State,PRESENT,,PRESENT,,,1,SCREENING,INVESTIGATOR,,,2014-01-01,10
263,TR,CDISCPILOT01,01-701-1097,NON-TARGET,NT01,TUMSTATE,Tumor State,PRESENT,,PRESENT,,,1,SCREENING,INVESTIGATOR,,,2014-01-01,11
264,TR,CDISCPILOT01,01-701-1097,NON-TARGET,NT02,TUMSTATE,Tumor State,PRESENT,,PRESENT,,,1,SCREENING,INVESTIGATOR,,,2014-01-01,12
265,TR,CDISCPILOT01,01-701-1097,NON-TARGET,NT01,TUMSTATE,Tumor State,ABSENT,,ABSENT,,,2,WEEK 3,INDEPENDENT ASSESSOR,RADIOLOGIST 1,Y,2014-01-22,13
266,TR,CDISCPILOT01,01-701-1097,NON-TARGET,NT02,TUMSTATE,Tumor State,PRESENT,,PRESENT,,,2,WEEK 3,INDEPENDENT ASSESSOR,RADIOLOGIST 1,Y,2014-01-22,14
267,TR,CDISCPILOT01,01-701-1097,NON-TARGET,NT01,TUMSTATE,Tumor State,ABSENT,,ABSENT,,,2,WEEK 3,INDEPENDENT ASSESSOR,RADIOLOGIST 1,Y,2014-01-22,15
268,TR,CDISCPILOT01,01-701-1097,NON-TARGET,NT02,TUMSTATE,Tumor State,PRESENT,,PRESENT,,,2,WEEK 3,INDEPENDENT ASSESSOR,RADIOLOGIST 1,Y,2014-01-22,16
269,TR,CDISCPILOT01,01-701-1097,NON-TARGET,NT01,TUMSTATE,Tumor State,ABSENT,,ABSENT,,,2,WEEK 3,INDEPENDENT ASSESSOR,RADIOLOGIST 2,,2014-01-22,17
270,TR,CDISCPILOT01,01-701-1097,NON-TARGET,NT02,TUMSTATE,Tumor State,PRESENT,,PRESENT,,,2,WEEK 3,INDEPENDENT ASSESSOR,RADIOLOGIST 2,,2014-01-22,18
271,TR,CDISCPILOT01,01-701-1097,NON-TARGET,NT01,TUMSTATE,Tumor State,ABSENT,,ABSENT,,,2,WEEK 3,INDEPENDENT ASSESSOR,RADIOLOGIST 2,,2014-01-22,19
272,TR,CDISCPILOT01,01-701-1097,NON-TARGET,NT02,TUMSTATE,Tumor State,PRESENT,,PRESENT,,,2,WEEK 3,INDEPENDENT ASSESSOR,RADIOLOGIST 2,,2014-01-22,20
273,TR,CDISCPILOT01,01-701-1097,NON-TARGET,NT01,TUMSTATE,Tumor State,ABSENT,,ABSENT,,,2,WEEK 3,INVESTIGATOR,,,2014-01-22,21
274,TR,CDISCPILOT01,01-701-1097,NON-TARGET,NT02,TUMSTATE,Tumor State,PRESENT,,PRESENT,,,2,WEEK 3,INVESTIGATOR,,,2014-01-22,22
275,TR,CDISCPILOT01,01-701-1097,NON-TARGET,NT01,TUMSTATE,Tumor State,ABSENT,,ABSENT,,,2,WEEK 3,INVESTIGATOR,,,2014-01-22,23
276,TR,CDISCPILOT01,01-701-1097,NON-TARGET,NT02,TUMSTATE,Tumor State,PRESENT,,PRESENT,,,2,WEEK 3,INVESTIGATOR,,,2014-01-22,24
277,TR,CDISCPILOT01,01-701-1115,TARGET,T01,LPERP,Longest Perpendicular,30.07,mm,30.07,30.07,mm,1,SCREENING,INDEPENDENT ASSESSOR,RADIOLOGIST 1,Y,2012-11-30,1
278,TR,CDISCPILOT01,01-701-1115,TARGET,T02,LDIAM,Longest Diameter,41.16,mm,41.16,41.16,mm,1,SCREENING,INDEPENDENT ASSESSOR,RADIOLOGIST 1,Y,2012-11-30,2
279,TR,CDISCPILOT01,01-701-1115,TARGET,T03,LPERP,Longest Perpendicular,16.83,mm,16.83,16.83,mm,1,SCREENING,INDEPENDENT ASSESSOR,RADIOLOGIST 1,Y,2012-11-30,3
280,TR,CDISCPILOT01,01-701-1115,TARGET,T01,LDIAM,Longest Diameter,32.1749,mm,32.1749,32.1749,mm,1,SCREENING,INDEPENDENT ASSESSOR,RADIOLOGIST 1,Y,2012-11-30,4
281,TR,CDISCPILOT01,01-701-1115,TARGET,T02,LPERP,Longest Perpendicular,37.8672,mm,37.8672,37.8672,mm,1,SCREENING,INDEPENDENT ASSESSOR,RADIOLOGIST 1,Y,2012-11-30,5
282,TR,CDISCPILOT01,01-701-1115,TARGET,T03,LDIAM,Longest Diameter,18.3447,mm,18.3447,18.3447,mm,1,SCREENING,INDEPENDENT ASSESSOR,RADIOLOGIST 1,Y,2012-11-30,6
283,TR,CDISCPILOT01,01-701-1115,TARGET,T01,LPERP,Longest Perpendicular,31,mm,31,31,mm,1,SCREENING,INDEPENDENT ASSESSOR,RADIOLOGIST 2,,2012-11-30,7
284,TR,CDISCPILOT01,01-701-1115,TARGET,T02,LDIAM,Longest Diameter,42.42,mm,42.42,42.42,mm,1,SCREENING,INDEPENDENT ASSESSOR,RADIOLOGIST 2,,2012-11-30,8
285,TR,CDISCPILOT01,01-701-1115,TARGET,T03,LPERP,Longest Perpendicular,17.34,mm,17.34,17.34,mm,1,SCREENING,INDEPENDENT ASSESSOR,RADIOLOGIST 2,,2012-11-30,9
286,TR,CDISCPILOT01,01-701-1115,TARGET,T01,LDIAM,Longest Diameter,33.17,mm,33.17,33.17,mm,1,SCREENING,INDEPENDENT ASSESSOR,RADIOLOGIST 2,,2012-11-30,10
287,TR,CDISCPILOT01,01-701-1115,TARGET,T02,LPERP,Longest Perpendicular,39.0264,mm,39.0264,39.0264,mm,1,SCREENING,INDEPENDENT ASSESSOR,RADIOLOGIST 2,,2012-11-30,11
288,TR,CDISCPILOT01,01-701-1115,TARGET,T03,LDIAM,Longest Diameter,18.9006,mm,18.9006,18.9006,mm,1,SCREENING,INDEPENDENT ASSESSOR,RADIOLOGIST 2,,2012-11-30,12
289,TR,CDISCPILOT01,01-701-1115,TARGET,T01,LPERP,Longest Perpendicular,31,mm,31,31,mm,1,SCREENING,INVESTIGATOR,,,2012-11-30,13
290,TR,CDISCPILOT01,01-701-1115,TARGET,T02,LDIAM,Longest Diameter,42,mm,42,42,mm,1,SCREENING,INVESTIGATOR,,,2012-11-30,14
291,TR,CDISCPILOT01,01-701-1115,TARGET,T03,LPERP,Longest Perpendicular,17,mm,17,17,mm,1,SCREENING,INVESTIGATOR,,,2012-11-30,15
292,TR,CDISCPILOT01,01-701-1115,TARGET,T01,LDIAM,Longest Diameter,33.17,mm,33.17,33.17,mm,1,SCREENING,INVESTIGATOR,,,2012-11-30,16
293,TR,CDISCPILOT01,01-701-1115,TARGET,T02,LPERP,Longest Perpendicular,38.64,mm,38.64,38.64,mm,1,SCREENING,INVESTIGATOR,,,2012-11-30,17
294,TR,CDISCPILOT01,01-701-1115,TARGET,T03,LDIAM,Longest Diameter,18.53,mm,18.53,18.53,mm,1,SCREENING,INVESTIGATOR,,,2012-11-30,18
295,TR,CDISCPILOT01,01-701-1115,TARGET,T01,LPERP,Longest Perpendicular,30.38,mm,30.38,30.38,mm,2,WEEK 3,INDEPENDENT ASSESSOR,RADIOLOGIST 1,,2012-12-21,19
296,TR,CDISCPILOT01,01-701-1115,TARGET,T02,LDIAM,Longest Diameter,33.66,mm,33.66,33.66,mm,2,WEEK 3,INDEPENDENT ASSESSOR,RADIOLOGIST 1,,2012-12-21,20
297,TR,CDISCPILOT01,01-701-1115,TARGET,T03,LPERP,Longest Perpendicular,9,mm,9,9,mm,2,WEEK 3,INDEPENDENT ASSESSOR,RADIOLOGIST 1,,2012-12-21,21
298,TR,CDISCPILOT01,01-701-1115,TARGET,T01,LDIAM,Longest Diameter,32.8104,mm,32.8104,32.8104,mm,2,WEEK 3,INDEPENDENT ASSESSOR,RADIOLOGIST 1,,2012-12-21,22
299,TR,CDISCPILOT01,01-701-1115,TARGET,T02,LPERP,Longest Perpendicular,30.6306,mm,30.6306,30.6306,mm,2,WEEK 3,INDEPENDENT ASSESSOR,RADIOLOGIST 1,,2012-12-21,23
300,TR,CDISCPILOT01,01-701-1115,TARGET,T03,LDIAM,Longest Diameter,9.9,mm,9.9,9.9,mm,2,WEEK 3,INDEPENDENT ASSESSOR,RADIOLOGIST 1,,2012-12-21,24
301,TR,CDISCPILOT01,01-701-1115,TARGET,T01,LPERP,Longest Perpendicular,31.31,mm,31.31,31.31,mm,2,WEEK 3,INDEPENDENT ASSESSOR,RADIOLOGIST 2,Y,2012-12-21,25
302,TR,CDISCPILOT01,01-701-1115,TARGET,T02,LDIAM,Longest Diameter,34.68,mm,34.68,34.68,mm,2,WEEK 3,INDEPENDENT ASSESSOR,RADIOLOGIST 2,Y,2012-12-21,26
303,TR,CDISCPILOT01,01-701-1115,TARGET,T03,LPERP,Longest Perpendicular,9.27,mm,9.27,9.27,mm,2,WEEK 3,INDEPENDENT ASSESSOR,RADIOLOGIST 2,Y,2012-12-21,27
304,TR,CDISCPILOT01,01-701-1115,TARGET,T01,LDIAM,Longest Diameter,33.8148,mm,33.8148,33.8148,mm,2,WEEK 3,INDEPENDENT ASSESSOR,RADIOLOGIST 2,Y,2012-12-21,28
305,TR,CDISCPILOT01,01-701-1115,TARGET,T02,LPERP,Longest Perpendicular,31.5588,mm,31.5588,31.5588,mm,2,WEEK 3,INDEPENDENT ASSESSOR,RADIOLOGIST 2,Y,2012-12-21,29
306,TR,CDISCPILOT01,01-701-1115,TARGET,T03,LDIAM,Longest Diameter,10.197,mm,10.197,10.197,mm,2,WEEK 3,INDEPENDENT ASSESSOR,RADIOLOGIST 2,Y,2012-12-21,30
307,TR,CDISCPILOT01,01-701-1115,TARGET,T01,LPERP,Longest Perpendicular,31,mm,31,31,mm,2,WEEK 3,INVESTIGATOR,,,2012-12-21,31
308,TR,CDISCPILOT01,01-701-1115,TARGET,T02,LDIAM,Longest Diameter,34,mm,34,34,mm,2,WEEK 3,INVESTIGATOR,,,2012-12-21,32
309,TR,CDISCPILOT01,01-701-1115,TARGET,T03,LPERP,Longest Perpendicular,9,mm,9,9,mm,2,WEEK 3,INVESTIGATOR,,,2012-12-21,33
310,TR,CDISCPILOT01,01-701-1115,TARGET,T01,LDIAM,Longest Diameter,33.48,mm,33.48,33.48,mm,2,WEEK 3,INVESTIGATOR,,,2012-12-21,34
311,TR,CDISCPILOT01,01-701-1115,TARGET,T02,LPERP,Longest Perpendicular,30.94,mm,30.94,30.94,mm,2,WEEK 3,INVESTIGATOR,,,2012-12-21,35
312,TR,CDISCPILOT01,01-701-1115,TARGET,T03,LDIAM,Longest Diameter,9.9,mm,9.9,9.9,mm,2,WEEK 3,INVESTIGATOR,,,2012-12-21,36
313,TR,CDISCPILOT01,01-701-1115,TARGET,T01,LPERP,Longest Perpendicular,18.81,mm,18.81,18.81,mm,3,WEEK 6,INDEPENDENT ASSESSOR,RADIOLOGIST 1,Y,2013-01-11,37
314,TR,CDISCPILOT01,01-701-1115,TARGET,T02,LDIAM,Longest Diameter,21,mm,21,21,mm,3,WEEK 6,INDEPENDENT ASSESSOR,RADIOLOGIST 1,Y,2013-01-11,38
315,TR,CDISCPILOT01,01-701-1115,TARGET,T03,LPERP,Longest Perpendicular,4.04,mm,4.04,4.04,mm,3,WEEK 6,INDEPENDENT ASSESSOR,RADIOLOGIST 1,Y,2013-01-11,39
316,TR,CDISCPILOT01,01-701-1115,TARGET,T01,LDIAM,Longest Diameter,20.5029,mm,20.5029,20.5029,mm,3,WEEK 6,INDEPENDENT ASSESSOR,RADIOLOGIST 1,Y,2013-01-11,40
317,TR,CDISCPILOT01,01-701-1115,TARGET,T02,LPERP,Longest Perpendicular,18.9,mm,18.9,18.9,mm,3,WEEK 6,INDEPENDENT ASSESSOR,RADIOLOGIST 1,Y,2013-01-11,41
318,TR,CDISCPILOT01,01-701-1115,TARGET,T03,LDIAM,Longest Diameter,4.04,mm,4.04,4.04,mm,3,WEEK 6,INDEPENDENT ASSESSOR,RADIOLOGIST 1,Y,2013-01-11,42
319,TR,CDISCPILOT01,01-701-1115,TARGET,T01,LPERP,Longest Perpendicular,19.38,mm,19.38,19.38,mm,3,WEEK 6,INDEPENDENT ASSESSOR,RADIOLOGIST 2,,2013-01-11,43
320,TR,CDISCPILOT01,01-701-1115,TARGET,T02,LDIAM,Longest Diameter,21.63,mm,21.63,21.63,mm,3,WEEK 6,INDEPENDENT ASSESSOR,RADIOLOGIST 2,,2013-01-11,44
321,TR,CDISCPILOT01,01-701-1115,TARGET,T03,LPERP,Longest Perpendicular,3.88,mm,3.88,3.88,mm,3,WEEK 6,INDEPENDENT ASSESSOR,RADIOLOGIST 2,,2013-01-11,45
322,TR,CDISCPILOT01,01-701-1115,TARGET,T01,LDIAM,Longest Diameter,21.1242,mm,21.1242,21.1242,mm,3,WEEK 6,INDEPENDENT ASSESSOR,RADIOLOGIST 2,,2013-01-11,46
323,TR,CDISCPILOT01,01-701-1115,TARGET,T02,LPERP,Longest Perpendicular,19.467,mm,19.467,19.467,mm,3,WEEK 6,INDEPENDENT ASSESSOR,RADIOLOGIST 2,,2013-01-11,47
324,TR,CDISCPILOT01,01-701-1115,TARGET,T03,LDIAM,Longest Diameter,3.88,mm,3.88,3.88,mm,3,WEEK 6,INDEPENDENT ASSESSOR,RADIOLOGIST 2,,2013-01-11,48
325,TR,CDISCPILOT01,01-701-1115,TARGET,T01,LPERP,Longest Perpendicular,19,mm,19,19,mm,3,WEEK 6,INVESTIGATOR,,,2013-01-11,49
326,TR,CDISCPILOT01,01-701-1115,TARGET,T02,LDIAM,Longest Diameter,21,mm,21,21,mm,3,WEEK 6,INVESTIGATOR,,,2013-01-11,50
327,TR,CDISCPILOT01,01-701-1115,TARGET,T03,LPERP,Longest Perpendicular,4,mm,4,4,mm,3,WEEK 6,INVESTIGATOR,,,2013-01-11,51
328,TR,CDISCPILOT01,01-701-1115,TARGET,T01,LDIAM,Longest Diameter,20.71,mm,20.71,20.71,mm,3,WEEK 6,INVESTIGATOR,,,2013-01-11,52
329,TR,CDISCPILOT01,01-701-1115,TARGET,T02,LPERP,Longest Perpendicular,18.9,mm,18.9,18.9,mm,3,WEEK 6,INVESTIGATOR,,,2013-01-11,53
330,TR,CDISCPILOT01,01-701-1115,TARGET,T03,LDIAM,Longest Diameter,4,mm,4,4,mm,3,WEEK 6,INVESTIGATOR,,,2013-01-11,54
331,TR,CDISCPILOT01,01-701-1115,TARGET,T01,LPERP,Longest Perpendicular,7,mm,7,7,mm,4,WEEK 9,INDEPENDENT ASSESSOR,RADIOLOGIST 1,,2013-02-01,55
332,TR,CDISCPILOT01,01-701-1115,TARGET,T02,LDIAM,Longest Diameter,0,mm,0,0,mm,4,WEEK 9,INDEPENDENT ASSESSOR,RADIOLOGIST 1,,2013-02-01,56
333,TR,CDISCPILOT01,01-701-1115,TARGET,T03,LPERP,Longest Perpendicular,3.06,mm,3.06,3.06,mm,4,WEEK 9,INDEPENDENT ASSESSOR,RADIOLOGIST 1,,2013-02-01,57
334,TR,CDISCPILOT01,01-701-1115,TARGET,T01,LDIAM,Longest Diameter,7.7,mm,7.7,7.7,mm,4,WEEK 9,INDEPENDENT ASSESSOR,RADIOLOGIST 1,,2013-02-01,58
335,TR,CDISCPILOT01,01-701-1115,TARGET,T02,LPERP,Longest Perpendicular,0,mm,0,0,mm,4,WEEK 9,INDEPENDENT ASSESSOR,RADIOLOGIST 1,,2013-02-01,59
336,TR,CDISCPILOT01,01-701-1115,TARGET,T03,LDIAM,Longest Diameter,3.0906,mm,3.0906,3.0906,mm,4,WEEK 9,INDEPENDENT ASSESSOR,RADIOLOGIST 1,,2013-02-01,60
337,TR,CDISCPILOT01,01-701-1115,TARGET,T01,LPERP,Longest Perpendicular,7.21,mm,7.21,7.21,mm,4,WEEK 9,INDEPENDENT ASSESSOR,RADIOLOGIST 2,Y,2013-02-01,61
338,TR,CDISCPILOT01,01-701-1115,TARGET,T02,LDIAM,Longest Diameter,0,mm,0,0,mm,4,WEEK 9,INDEPENDENT ASSESSOR,RADIOLOGIST 2,Y,2013-02-01,62
339,TR,CDISCPILOT01,01-701-1115,TARGET,T03,LPERP,Longest Perpendicular,2.94,mm,2.94,2.94,mm,4,WEEK 9,INDEPENDENT ASSESSOR,RADIOLOGIST 2,Y,2013-02-01,63
340,TR,CDISCPILOT01,01-701-1115,TARGET,T01,LDIAM,Longest Diameter,7.931,mm,7.931,7.931,mm,4,WEEK 9,INDEPENDENT ASSESSOR,RADIOLOGIST 2,Y,2013-02-01,64
341,TR,CDISCPILOT01,01-701-1115,TARGET,T02,LPERP,Longest Perpendicular,0,mm,0,0,mm,4,WEEK 9,INDEPENDENT ASSESSOR,RADIOLOGIST 2,Y,2013-02-01,65
342,TR,CDISCPILOT01,01-701-1115,TARGET,T03,LDIAM,Longest Diameter,2.9694,mm,2.9694,2.9694,mm,4,WEEK 9,INDEPENDENT ASSESSOR,RADIOLOGIST 2,Y,2013-02-01,66
343,TR,CDISCPILOT01,01-701-1115,TARGET,T01,LPERP,Longest Perpendicular,7,mm,7,7,mm,4,WEEK 9,INVESTIGATOR,,,2013-02-01,67
344,TR,CDISCPILOT01,01-701-1115,TARGET,T02,LDIAM,Longest Diameter,0,mm,0,0,mm,4,WEEK 9,INVESTIGATOR,,,2013-02-01,68
345,TR,CDISCPILOT01,01-701-1115,TARGET,T03,LPERP,Longest Perpendicular,3,mm,3,3,mm,4,WEEK 9,INVESTIGATOR,,,2013-02-01,69
346,TR,CDISCPILOT01,01-701-1115,TARGET,T01,LDIAM,Longest Diameter,7.7,mm,7.7,7.7,mm,4,WEEK 9,INVESTIGATOR,,,2013-02-01,70
347,TR,CDISCPILOT01,01-701-1115,TARGET,T02,LPERP,Longest Perpendicular,0,mm,0,0,mm,4,WEEK 9,INVESTIGATOR,,,2013-02-01,71
348,TR,CDISCPILOT01,01-701-1115,TARGET,T03,LDIAM,Longest Diameter,3.03,mm,3.03,3.03,mm,4,WEEK 9,INVESTIGATOR,,,2013-02-01,72
349,TR,CDISCPILOT01,01-701-1118,TARGET,T01,LDIAM,Longest Diameter,26.46,mm,26.46,26.46,mm,1,SCREENING,INDEPENDENT ASSESSOR,RADIOLOGIST 1,,2014-03-12,1
350,TR,CDISCPILOT01,01-701-1118,TARGET,T02,LDIAM,Longest Diameter,50.49,mm,50.49,50.49,mm,1,SCREENING,INDEPENDENT ASSESSOR,RADIOLOGIST 1,,2014-03-12,2
351,TR,CDISCPILOT01,01-701-1118,TARGET,T01,LPERP,Longest Perpendicular,24.3432,mm,24.3432,24.3432,mm,1,SCREENING,INDEPENDENT ASSESSOR,RADIOLOGIST 1,,2014-03-12,3
352,TR,CDISCPILOT01,01-701-1118,TARGET,T02,LPERP,Longest Perpendicular,45.9459,mm,45.9459,45.9459,mm,1,SCREENING,INDEPENDENT ASSESSOR,RADIOLOGIST 1,,2014-03-12,4
353,TR,CDISCPILOT01,01-701-1118,TARGET,T01,LDIAM,Longest Diameter,27.27,mm,27.27,27.27,mm,1,SCREENING,INDEPENDENT ASSESSOR,RADIOLOGIST 2,Y,2014-03-12,5
354,TR,CDISCPILOT01,01-701-1118,TARGET,T02,LDIAM,Longest Diameter,52.02,mm,52.02,52.02,mm,1,SCREENING,INDEPENDENT ASSESSOR,RADIOLOGIST 2,Y,2014-03-12,6
355,TR,CDISCPILOT01,01-701-1118,TARGET,T01,LPERP,Longest Perpendicular,25.0884,mm,25.0884,25.0884,mm,1,SCREENING,INDEPENDENT ASSESSOR,RADIOLOGIST 2,Y,2014-03-12,7
356,TR,CDISCPILOT01,01-701-1118,TARGET,T02,LPERP,Longest Perpendicular,47.3382,mm,47.3382,47.3382,mm,1,SCREENING,INDEPENDENT ASSESSOR,RADIOLOGIST 2,Y,2014-03-12,8
357,TR,CDISCPILOT01,01-701-1118,TARGET,T01,LDIAM,Longest Diameter,27,mm,27,27,mm,1,SCREENING,INVESTIGATOR,,,2014-03-12,9
358,TR,CDISCPILOT01,01-701-1118,TARGET,T02,LDIAM,Longest Diameter,51,mm,51,51,mm,1,SCREENING,INVESTIGATOR,,,2014-03-12,10
359,TR,CDISCPILOT01,01-701-1118,TARGET,T01,LPERP,Longest Perpendicular,24.84,mm,24.84,24.84,mm,1,SCREENING,INVESTIGATOR,,,2014-03-12,11
360,TR,CDISCPILOT01,01-701-1118,TARGET,T02,LPERP,Longest Perpendicular,46.41,mm,46.41,46.41,mm,1,SCREENING,INVESTIGATOR,,,2014-03-12,12
361,TR,CDISCPILOT01,01-701-1118,TARGET,T01,LDIAM,Longest Diameter,23.76,mm,23.76,23.76,mm,2,WEEK 3,INDEPENDENT ASSESSOR,RADIOLOGIST 1,Y,2014-04-02,13
362,TR,CDISCPILOT01,01-701-1118,TARGET,T02,LDIAM,Longest Diameter,48,mm,48,48,mm,2,WEEK 3,INDEPENDENT ASSESSOR,RADIOLOGIST 1,Y,2014-04-02,14
363,TR,CDISCPILOT01,01-701-1118,TARGET,T01,LPERP,Longest Perpendicular,21.6216,mm,21.6216,21.6216,mm,2,WEEK 3,INDEPENDENT ASSESSOR,RADIOLOGIST 1,Y,2014-04-02,15
364,TR,CDISCPILOT01,01-701-1118,TARGET,T02,LPERP,Longest Perpendicular,43.2,mm,43.2,43.2,mm,2,WEEK 3,INDEPENDENT ASSESSOR,RADIOLOGIST 1,Y,2014-04-02,16
365,TR,CDISCPILOT01,01-701-1118,TARGET,T01,LDIAM,Longest Diameter,24.48,mm,24.48,24.48,mm,2,WEEK 3,INDEPENDENT ASSESSOR,RADIOLOGIST 2,,2014-04-02,17
366,TR,CDISCPILOT01,01-701-1118,TARGET,T02,LDIAM,Longest Diameter,49.44,mm,49.44,49.44,mm,2,WEEK 3,INDEPENDENT ASSESSOR,RADIOLOGIST 2,,2014-04-02,18
367,TR,CDISCPILOT01,01-701-1118,TARGET,T01,LPERP,Longest Perpendicular,22.2768,mm,22.2768,22.2768,mm,2,WEEK 3,INDEPENDENT ASSESSOR,RADIOLOGIST 2,,2014-04-02,19
368,TR,CDISCPILOT01,01-701-1118,TARGET,T02,LPERP,Longest Perpendicular,44.496,mm,44.496,44.496,mm,2,WEEK 3,INDEPENDENT ASSESSOR,RADIOLOGIST 2,,2014-04-02,20
369,TR,CDISCPILOT01,01-701-1118,TARGET,T01,LDIAM,Longest Diameter,24,mm,24,24,mm,2,WEEK 3,INVESTIGATOR,,,2014-04-02,21
370,TR,CDISCPILOT01,01-701-1118,TARGET,T02,LDIAM,Longest Diameter,48,mm,48,48,mm,2,WEEK 3,INVESTIGATOR,,,2014-04-02,22
371,TR,CDISCPILOT01,01-701-1118,TARGET,T01,LPERP,Longest Perpendicular,21.84,mm,21.84,21.84,mm,2,WEEK 3,INVESTIGATOR,,,2014-04-02,23
372,TR,CDISCPILOT01,01-701-1118,TARGET,T02,LPERP,Longest Perpendicular,43.2,mm,43.2,43.2,mm,2,WEEK 3,INVESTIGATOR,,,2014-04-02,24
373,TR,CDISCPILOT01,01-701-1118,TARGET,T01,LDIAM,Longest Diameter,15,mm,15,15,mm,3,WEEK 6,INDEPENDENT ASSESSOR,RADIOLOGIST 1,,2014-04-23,25
374,TR,CDISCPILOT01,01-701-1118,TARGET,T02,LDIAM,Longest Diameter,23.23,mm,23.23,23.23,mm,3,WEEK 6,INDEPENDENT ASSESSOR,RADIOLOGIST 1,,2014-04-23,26
375,TR,CDISCPILOT01,01-701-1118,TARGET,T01,LPERP,Longest Perpendicular,13.5,mm,13.5,13.5,mm,3,WEEK 6,INDEPENDENT ASSESSOR,RADIOLOGIST 1,,2014-04-23,27
376,TR,CDISCPILOT01,01-701-1118,TARGET,T02,LPERP,Longest Perpendicular,23.23,mm,23.23,23.23,mm,3,WEEK 6,INDEPENDENT ASSESSOR,RADIOLOGIST 1,,2014-04-23,28
377,TR,CDISCPILOT01,01-701-1118,TARGET,T01,LDIAM,Longest Diameter,15.45,mm,15.45,15.45,mm,3,WEEK 6,INDEPENDENT ASSESSOR,RADIOLOGIST 2,Y,2014-04-23,29
378,TR,CDISCPILOT01,01-701-1118,TARGET,T02,LDIAM,Longest Diameter,22.31,mm,22.31,22.31,mm,3,WEEK 6,INDEPENDENT ASSESSOR,RADIOLOGIST 2,Y,2014-04-23,30
379,TR,CDISCPILOT01,01-701-1118,TARGET,T01,LPERP,Longest Perpendicular,13.905,mm,13.905,13.905,mm,3,WEEK 6,INDEPENDENT ASSESSOR,RADIOLOGIST 2,Y,2014-04-23,31
380,TR,CDISCPILOT01,01-701-1118,TARGET,T02,LPERP,Longest Perpendicular,22.31,mm,22.31,22.31,mm,3,WEEK 6,INDEPENDENT ASSESSOR,RADIOLOGIST 2,Y,2014-04-23,32
381,TR,CDISCPILOT01,01-701-1118,TARGET,T01,LDIAM,Longest Diameter,15,mm,15,15,mm,3,WEEK 6,INVESTIGATOR,,,2014-04-23,33
382,TR,CDISCPILOT01,01-701-1118,TARGET,T02,LDIAM,Longest Diameter,23,mm,23,23,mm,3,WEEK 6,INVESTIGATOR,,,2014-04-23,34
383,TR,CDISCPILOT01,01-701-1118,TARGET,T01,LPERP,Longest Perpendicular,13.5,mm,13.5,13.5,mm,3,WEEK 6,INVESTIGATOR,,,2014-04-23,35
384,TR,CDISCPILOT01,01-701-1118,TARGET,T02,LPERP,Longest Perpendicular,23,mm,23,23,mm,3,WEEK 6,INVESTIGATOR,,,2014-04-23,36
385,TR,CDISCPILOT01,01-701-1118,TARGET,T01,LDIAM,Longest Diameter,14.14,mm,14.14,14.14,mm,4,WEEK 9,INDEPENDENT ASSESSOR,RADIOLOGIST 1,Y,2014-05-14,37
386,TR,CDISCPILOT01,01-701-1118,TARGET,T01,LPERP,Longest Perpendicular,14.14,mm,14.14,14.14,mm,4,WEEK 9,INDEPENDENT ASSESSOR,RADIOLOGIST 1,Y,2014-05-14,38
387,TR,CDISCPILOT01,01-701-1118,TARGET,T01,LDIAM,Longest Diameter,13.58,mm,13.58,13.58,mm,4,WEEK 9,INDEPENDENT ASSESSOR,RADIOLOGIST 2,,2014-05-14,39
388,TR,CDISCPILOT01,01-701-1118,TARGET,T01,LPERP,Longest Perpendicular,13.58,mm,13.58,13.58,mm,4,WEEK 9,INDEPENDENT ASSESSOR,RADIOLOGIST 2,,2014-05-14,40
389,TR,CDISCPILOT01,01-701-1118,TARGET,T01,LDIAM,Longest Diameter,14,mm,14,14,mm,4,WEEK 9,INVESTIGATOR,,,2014-05-14,41
390,TR,CDISCPILOT01,01-701-1118,TARGET,T01,LPERP,Longest Perpendicular,14,mm,14,14,mm,4,WEEK 9,INVESTIGATOR,,,2014-05-14,42
391,TR,CDISCPILOT01,01-701-1118,TARGET,T01,LDIAM,Longest Diameter,14.28,mm,14.28,14.28,mm,5,WEEK 12,INDEPENDENT ASSESSOR,RADIOLOGIST 1,,2014-06-04,43
392,TR,CDISCPILOT01,01-701-1118,TARGET,T02,LDIAM,Longest Diameter,19.57,mm,19.57,19.57,mm,5,WEEK 12,INDEPENDENT ASSESSOR,RADIOLOGIST 1,,2014-06-04,44
393,TR,CDISCPILOT01,01-701-1118,TARGET,T01,LPERP,Longest Perpendicular,14.1372,mm,14.1372,14.1372,mm,5,WEEK 12,INDEPENDENT ASSESSOR,RADIOLOGIST 1,,2014-06-04,45
394,TR,CDISCPILOT01,01-701-1118,TARGET,T02,LPERP,Longest Perpendicular,19.1786,mm,19.1786,19.1786,mm,5,WEEK 12,INDEPENDENT ASSESSOR,RADIOLOGIST 1,,2014-06-04,46
395,TR,CDISCPILOT01,01-701-1118,TARGET,T01,LDIAM,Longest Diameter,13.72,mm,13.72,13.72,mm,5,WEEK 12,INDEPENDENT ASSESSOR,RADIOLOGIST 2,Y,2014-06-04,47
396,TR,CDISCPILOT01,01-701-1118,TARGET,T02,LDIAM,Longest Diameter,18.81,mm,18.81,18.81,mm,5,WEEK 12,INDEPENDENT ASSESSOR,RADIOLOGIST 2,Y,2014-06-04,48
397,TR,CDISCPILOT01,01-701-1118,TARGET,T01,LPERP,Longest Perpendicular,13.5828,mm,13.5828,13.5828,mm,5,WEEK 12,INDEPENDENT ASSESSOR,RADIOLOGIST 2,Y,2014-06-04,49
398,TR,CDISCPILOT01,01-701-1118,TARGET,T02,LPERP,Longest Perpendicular,18.4338,mm,18.4338,18.4338,mm,5,WEEK 12,INDEPENDENT ASSESSOR,RADIOLOGIST 2,Y,2014-06-04,50
399,TR,CDISCPILOT01,01-701-1118,TARGET,T01,LDIAM,Longest Diameter,14,mm,14,14,mm,5,WEEK 12,INVESTIGATOR,,,2014-06-04,51
400,TR,CDISCPILOT01,01-701-1118,TARGET,T02,LDIAM,Longest Diameter,19,mm,19,19,mm,5,WEEK 12,INVESTIGATOR,,,2014-06-04,52
401,TR,CDISCPILOT01,01-701-1118,TARGET,T01,LPERP,Longest Perpendicular,13.86,mm,13.86,13.86,mm,5,WEEK 12,INVESTIGATOR,,,2014-06-04,53
402,TR,CDISCPILOT01,01-701-1118,TARGET,T02,LPERP,Longest Perpendicular,18.62,mm,18.62,18.62,mm,5,WEEK 12,INVESTIGATOR,,,2014-06-04,54
403,TR,CDISCPILOT01,01-701-1130,TARGET,T01,LDIAM,Longest Diameter,34.65,mm,34.65,34.65,mm,1,SCREENING,INDEPENDENT ASSESSOR,RADIOLOGIST 1,Y,2014-02-15,1
404,TR,CDISCPILOT01,01-701-1130,TARGET,T02,LDIAM,Longest Diameter,22,mm,22,22,mm,1,SCREENING,INDEPENDENT ASSESSOR,RADIOLOGIST 1,Y,2014-02-15,2
405,TR,CDISCPILOT01,01-701-1130,TARGET,T03,LPERP,Longest Perpendicular,33.33,mm,33.33,33.33,mm,1,SCREENING,INDEPENDENT ASSESSOR,RADIOLOGIST 1,Y,2014-02-15,3
406,TR,CDISCPILOT01,01-701-1130,TARGET,T01,LPERP,Longest Perpendicular,31.5315,mm,31.5315,31.5315,mm,1,SCREENING,INDEPENDENT ASSESSOR,RADIOLOGIST 1,Y,2014-02-15,4
407,TR,CDISCPILOT01,01-701-1130,TARGET,T02,LPERP,Longest Perpendicular,19.8,mm,19.8,19.8,mm,1,SCREENING,INDEPENDENT ASSESSOR,RADIOLOGIST 1,Y,2014-02-15,5
408,TR,CDISCPILOT01,01-701-1130,TARGET,T03,LDIAM,Longest Diameter,33.33,mm,33.33,33.33,mm,1,SCREENING,INDEPENDENT ASSESSOR,RADIOLOGIST 1,Y,2014-02-15,6
409,TR,CDISCPILOT01,01-701-1130,TARGET,T01,LDIAM,Longest Diameter,35.7,mm,35.7,35.7,mm,1,SCREENING,INDEPENDENT ASSESSOR,RADIOLOGIST 2,,2014-02-15,7
410,TR,CDISCPILOT01,01-701-1130,TARGET,T02,LDIAM,Longest Diameter,22.66,mm,22.66,22.66,mm,1,SCREENING,INDEPENDENT ASSESSOR,RADIOLOGIST 2,,2014-02-15,8
411,TR,CDISCPILOT01,01-701-1130,TARGET,T03,LPERP,Longest Perpendicular,32.01,mm,32.01,32.01,mm,1,SCREENING,INDEPENDENT ASSESSOR,RADIOLOGIST 2,,2014-02-15,9
412,TR,CDISCPILOT01,01-701-1130,TARGET,T01,LPERP,Longest Perpendicular,32.487,mm,32.487,32.487,mm,1,SCREENING,INDEPENDENT ASSESSOR,RADIOLOGIST 2,,2014-02-15,10
413,TR,CDISCPILOT01,01-701-1130,TARGET,T02,LPERP,Longest Perpendicular,20.394,mm,20.394,20.394,mm,1,SCREENING,INDEPENDENT ASSESSOR,RADIOLOGIST 2,,2014-02-15,11
414,TR,CDISCPILOT01,01-701-1130,TARGET,T03,LDIAM,Longest Diameter,32.01,mm,32.01,32.01,mm,1,SCREENING,INDEPENDENT ASSESSOR,RADIOLOGIST 2,,2014-02-15,12
415,TR,CDISCPILOT01,01-701-1130,TARGET,T01,LDIAM,Longest Diameter,35,mm,35,35,mm,1,SCREENING,INVESTIGATOR,,,2014-02-15,13
416,TR,CDISCPILOT01,01-701-1130,TARGET,T02,LDIAM,Longest Diameter,22,mm,22,22,mm,1,SCREENING,INVESTIGATOR,,,2014-02-15,14
417,TR,CDISCPILOT01,01-701-1130,TARGET,T03,LPERP,Longest Perpendicular,33,mm,33,33,mm,1,SCREENING,INVESTIGATOR,,,2014-02-15,15
418,TR,CDISCPILOT01,01-701-1130,TARGET,T01,LPERP,Longest Perpendicular,31.85,mm,31.85,31.85,mm,1,SCREENING,INVESTIGATOR,,,2014-02-15,16
419,TR,CDISCPILOT01,01-701-1130,TARGET,T02,LPERP,Longest Perpendicular,19.8,mm,19.8,19.8,mm,1,SCREENING,INVESTIGATOR,,,2014-02-15,17
420,TR,CDISCPILOT01,01-701-1130,TARGET,T03,LDIAM,Longest Diameter,33,mm,33,33,mm,1,SCREENING,INVESTIGATOR,,,2014-02-15,18
421,TR,CDISCPILOT01,01-701-1130,TARGET,T01,LDIAM,Longest Diameter,31,mm,31,31,mm,2,WEEK 3,INDEPENDENT ASSESSOR,RADIOLOGIST 1,,2014-03-08,19
422,TR,CDISCPILOT01,01-701-1130,TARGET,T02,LDIAM,Longest Diameter,24.24,mm,24.24,24.24,mm,2,WEEK 3,INDEPENDENT ASSESSOR,RADIOLOGIST 1,,2014-03-08,20
423,TR,CDISCPILOT01,01-701-1130,TARGET,T03,LPERP,Longest Perpendicular,33.66,mm,33.66,33.66,mm,2,WEEK 3,INDEPENDENT ASSESSOR,RADIOLOGIST 1,,2014-03-08,21
424,TR,CDISCPILOT01,01-701-1130,TARGET,T01,LPERP,Longest Perpendicular,27.9,mm,27.9,27.9,mm,2,WEEK 3,INDEPENDENT ASSESSOR,RADIOLOGIST 1,,2014-03-08,22
425,TR,CDISCPILOT01,01-701-1130,TARGET,T02,LPERP,Longest Perpendicular,24.24,mm,24.24,24.24,mm,2,WEEK 3,INDEPENDENT ASSESSOR,RADIOLOGIST 1,,2014-03-08,23
426,TR,CDISCPILOT01,01-701-1130,TARGET,T03,LDIAM,Longest Diameter,33.9966,mm,33.9966,33.9966,mm,2,WEEK 3,INDEPENDENT ASSESSOR,RADIOLOGIST 1,,2014-03-08,24
427,TR,CDISCPILOT01,01-701-1130,TARGET,T01,LDIAM,Longest Diameter,31.93,mm,31.93,31.93,mm,2,WEEK 3,INDEPENDENT ASSESSOR,RADIOLOGIST 2,Y,2014-03-08,25
428,TR,CDISCPILOT01,01-701-1130,TARGET,T02,LDIAM,Longest Diameter,23.28,mm,23.28,23.28,mm,2,WEEK 3,INDEPENDENT ASSESSOR,RADIOLOGIST 2,Y,2014-03-08,26
429,TR,CDISCPILOT01,01-701-1130,TARGET,T03,LPERP,Longest Perpendicular,32.34,mm,32.34,32.34,mm,2,WEEK 3,INDEPENDENT ASSESSOR,RADIOLOGIST 2,Y,2014-03-08,27
430,TR,CDISCPILOT01,01-701-1130,TARGET,T01,LPERP,Longest Perpendicular,28.737,mm,28.737,28.737,mm,2,WEEK 3,INDEPENDENT ASSESSOR,RADIOLOGIST 2,Y,2014-03-08,28
431,TR,CDISCPILOT01,01-701-1130,TARGET,T02,LPERP,Longest Perpendicular,23.28,mm,23.28,23.28,mm,2,WEEK 3,INDEPENDENT ASSESSOR,RADIOLOGIST 2,Y,2014-03-08,29
432,TR,CDISCPILOT01,01-701-1130,TARGET,T03,LDIAM,Longest Diameter,32.6634,mm,32.6634,32.6634,mm,2,WEEK 3,INDEPENDENT ASSESSOR,RADIOLOGIST 2,Y,2014-03-08,30
433,TR,CDISCPILOT01,01-701-1130,TARGET,T01,LDIAM,Longest Diameter,31,mm,31,31,mm,2,WEEK 3,INVESTIGATOR,,,2014-03-08,31
434,TR,CDISCPILOT01,01-701-1130,TARGET,T02,LDIAM,Longest Diameter,24,mm,24,24,mm,2,WEEK 3,INVESTIGATOR,,,2014-03-08,32
435,TR,CDISCPILOT01,01-701-1130,TARGET,T03,LPERP,Longest Perpendicular,33,mm,33,33,mm,2,WEEK 3,INVESTIGATOR,,,2014-03-08,33
436,TR,CDISCPILOT01,01-701-1130,TARGET,T01,LPERP,Longest Perpendicular,27.9,mm,27.9,27.9,mm,2,WEEK 3,INVESTIGATOR,,,2014-03-08,34
437,TR,CDISCPILOT01,01-701-1130,TARGET,T02,LPERP,Longest Perpendicular,24,mm,24,24,mm,2,WEEK 3,INVESTIGATOR,,,2014-03-08,35
438,TR,CDISCPILOT01,01-701-1130,TARGET,T03,LDIAM,Longest Diameter,33.33,mm,33.33,33.33,mm,2,WEEK 3,INVESTIGATOR,,,2014-03-08,36
439,TR,CDISCPILOT01,01-701-1130,TARGET,T01,LDIAM,Longest Diameter,37.37,mm,37.37,37.37,mm,3,WEEK 6,INDEPENDENT ASSESSOR,RADIOLOGIST 1,Y,2014-03-29,37
440,TR,CDISCPILOT01,01-701-1130,TARGET,T02,LDIAM,Longest Diameter,28.56,mm,28.56,28.56,mm,3,WEEK 6,INDEPENDENT ASSESSOR,RADIOLOGIST 1,Y,2014-03-29,38
441,TR,CDISCPILOT01,01-701-1130,TARGET,T03,LPERP,Longest Perpendicular,31.93,mm,31.93,31.93,mm,3,WEEK 6,INDEPENDENT ASSESSOR,RADIOLOGIST 1,Y,2014-03-29,39
442,TR,CDISCPILOT01,01-701-1130,TARGET,T01,LPERP,Longest Perpendicular,37.37,mm,37.37,37.37,mm,3,WEEK 6,INDEPENDENT ASSESSOR,RADIOLOGIST 1,Y,2014-03-29,40
443,TR,CDISCPILOT01,01-701-1130,TARGET,T02,LPERP,Longest Perpendicular,28.2744,mm,28.2744,28.2744,mm,3,WEEK 6,INDEPENDENT ASSESSOR,RADIOLOGIST 1,Y,2014-03-29,41
444,TR,CDISCPILOT01,01-701-1130,TARGET,T03,LDIAM,Longest Diameter,32.5686,mm,32.5686,32.568600000000004,mm,3,WEEK 6,INDEPENDENT ASSESSOR,RADIOLOGIST 1,Y,2014-03-29,42
445,TR,CDISCPILOT01,01-701-1130,TARGET,T01,LDIAM,Longest Diameter,35.89,mm,35.89,35.89,mm,3,WEEK 6,INDEPENDENT ASSESSOR,RADIOLOGIST 2,,2014-03-29,43
446,TR,CDISCPILOT01,01-701-1130,TARGET,T02,LDIAM,Longest Diameter,27.44,mm,27.44,27.44,mm,3,WEEK 6,INDEPENDENT ASSESSOR,RADIOLOGIST 2,,2014-03-29,44
447,TR,CDISCPILOT01,01-701-1130,TARGET,T03,LPERP,Longest Perpendicular,30.69,mm,30.69,30.69,mm,3,WEEK 6,INDEPENDENT ASSESSOR,RADIOLOGIST 2,,2014-03-29,45
448,TR,CDISCPILOT01,01-701-1130,TARGET,T01,LPERP,Longest Perpendicular,35.89,mm,35.89,35.89,mm,3,WEEK 6,INDEPENDENT ASSESSOR,RADIOLOGIST 2,,2014-03-29,46
449,TR,CDISCPILOT01,01-701-1130,TARGET,T02,LPERP,Longest Perpendicular,27.1656,mm,27.1656,27.1656,mm,3,WEEK 6,INDEPENDENT ASSESSOR,RADIOLOGIST 2,,2014-03-29,47
450,TR,CDISCPILOT01,01-701-1130,TARGET,T03,LDIAM,Longest Diameter,31.3038,mm,31.3038,31.3038,mm,3,WEEK 6,INDEPENDENT ASSESSOR,RADIOLOGIST 2,,2014-03-29,48
451,TR,CDISCPILOT01,01-701-1130,TARGET,T01,LDIAM,Longest Diameter,37,mm,37,37,mm,3,WEEK 6,INVESTIGATOR,,,2014-03-29,49
452,TR,CDISCPILOT01,01-701-1130,TARGET,T02,LDIAM,Longest Diameter,28,mm,28,28,mm,3,WEEK 6,INVESTIGATOR,,,2014-03-29,50
453,TR,CDISCPILOT01,01-701-1130,TARGET,T03,LPERP,Longest Perpendicular,31,mm,31,31,mm,3,WEEK 6,INVESTIGATOR,,,2014-03-29,51
454,TR,CDISCPILOT01,01-701-1130,TARGET,T01,LPERP,Longest Perpendicular,37,mm,37,37,mm,3,WEEK 6,INVESTIGATOR,,,2014-03-29,52
455,TR,CDISCPILOT01,01-701-1130,TARGET,T02,LPERP,Longest Perpendicular,27.72,mm,27.72,27.72,mm,3,WEEK 6,INVESTIGATOR,,,2014-03-29,53
456,TR,CDISCPILOT01,01-701-1130,TARGET,T03,LDIAM,Longest Diameter,31.62,mm,31.62,31.62,mm,3,WEEK 6,INVESTIGATOR,,,2014-03-29,54
457,TR,CDISCPILOT01,01-701-1130,TARGET,T01,LDIAM,Longest Diameter,42.84,mm,42.84,42.84,mm,4,WEEK 9,INDEPENDENT ASSESSOR,RADIOLOGIST 1,,2014-04-19,55
458,TR,CDISCPILOT01,01-701-1130,TARGET,T02,LDIAM,Longest Diameter,40.17,mm,40.17,40.17,mm,4,WEEK 9,INDEPENDENT ASSESSOR,RADIOLOGIST 1,,2014-04-19,56
459,TR,CDISCPILOT01,01-701-1130,TARGET,T03,LPERP,Longest Perpendicular,41.71,mm,41.71,41.71,mm,4,WEEK 9,INDEPENDENT ASSESSOR,RADIOLOGIST 1,,2014-04-19,57
460,TR,CDISCPILOT01,01-701-1130,TARGET,T01,LPERP,Longest Perpendicular,42.4116,mm,42.4116,42.4116,mm,4,WEEK 9,INDEPENDENT ASSESSOR,RADIOLOGIST 1,,2014-04-19,58
461,TR,CDISCPILOT01,01-701-1130,TARGET,T02,LPERP,Longest Perpendicular,39.3666,mm,39.3666,39.3666,mm,4,WEEK 9,INDEPENDENT ASSESSOR,RADIOLOGIST 1,,2014-04-19,59
462,TR,CDISCPILOT01,01-701-1130,TARGET,T03,LDIAM,Longest Diameter,42.9613,mm,42.9613,42.9613,mm,4,WEEK 9,INDEPENDENT ASSESSOR,RADIOLOGIST 1,,2014-04-19,60
463,TR,CDISCPILOT01,01-701-1130,TARGET,T01,LDIAM,Longest Diameter,41.16,mm,41.16,41.16,mm,4,WEEK 9,INDEPENDENT ASSESSOR,RADIOLOGIST 2,Y,2014-04-19,61
464,TR,CDISCPILOT01,01-701-1130,TARGET,T02,LDIAM,Longest Diameter,38.61,mm,38.61,38.61,mm,4,WEEK 9,INDEPENDENT ASSESSOR,RADIOLOGIST 2,Y,2014-04-19,62
465,TR,CDISCPILOT01,01-701-1130,TARGET,T03,LPERP,Longest Perpendicular,43,mm,43,43,mm,4,WEEK 9,INDEPENDENT ASSESSOR,RADIOLOGIST 2,Y,2014-04-19,63
466,TR,CDISCPILOT01,01-701-1130,TARGET,T01,LPERP,Longest Perpendicular,40.7484,mm,40.7484,40.7484,mm,4,WEEK 9,INDEPENDENT ASSESSOR,RADIOLOGIST 2,Y,2014-04-19,64
467,TR,CDISCPILOT01,01-701-1130,TARGET,T02,LPERP,Longest Perpendicular,37.8378,mm,37.8378,37.8378,mm,4,WEEK 9,INDEPENDENT ASSESSOR,RADIOLOGIST 2,Y,2014-04-19,65
468,TR,CDISCPILOT01,01-701-1130,TARGET,T03,LDIAM,Longest Diameter,44.29,mm,44.29,44.29,mm,4,WEEK 9,INDEPENDENT ASSESSOR,RADIOLOGIST 2,Y,2014-04-19,66
469,TR,CDISCPILOT01,01-701-1130,TARGET,T01,LDIAM,Longest Diameter,42,mm,42,42,mm,4,WEEK 9,INVESTIGATOR,,,2014-04-19,67
470,TR,CDISCPILOT01,01-701-1130,TARGET,T02,LDIAM,Longest Diameter,39,mm,39,39,mm,4,WEEK 9,INVESTIGATOR,,,2014-04-19,68
471,TR,CDISCPILOT01,01-701-1130,TARGET,T03,LPERP,Longest Perpendicular,43,mm,43,43,mm,4,WEEK 9,INVESTIGATOR,,,2014-04-19,69
472,TR,CDISCPILOT01,01-701-1130,TARGET,T01,LPERP,Longest Perpendicular,41.58,mm,41.58,41.58,mm,4,WEEK 9,INVESTIGATOR,,,2014-04-19,70
473,TR,CDISCPILOT01,01-701-1130,TARGET,T02,LPERP,Longest Perpendicular,38.22,mm,38.22,38.22,mm,4,WEEK 9,INVESTIGATOR,,,2014-04-19,71
474,TR,CDISCPILOT01,01-701-1130,TARGET,T03,LDIAM,Longest Diameter,44.29,mm,44.29,44.29,mm,4,WEEK 9,INVESTIGATOR,,,2014-04-19,72
475,TR,CDISCPILOT01,01-701-1133,TARGET,T01,LDIAM,Longest Diameter,19,mm,19,19,mm,1,SCREENING,INDEPENDENT ASSESSOR,RADIOLOGIST 1,,2012-10-28,1
476,TR,CDISCPILOT01,01-701-1133,TARGET,T02,LDIAM,Longest Diameter,21.21,mm,21.21,21.21,mm,1,SCREENING,INDEPENDENT ASSESSOR,RADIOLOGIST 1,,2012-10-28,2
477,TR,CDISCPILOT01,01-701-1133,TARGET,T03,LDIAM,Longest Diameter,20.4,mm,20.4,20.4,mm,1,SCREENING,INDEPENDENT ASSESSOR,RADIOLOGIST 1,,2012-10-28,3
478,TR,CDISCPILOT01,01-701-1133,TARGET,T01,LPERP,Longest Perpendicular,17.1,mm,17.1,17.1,mm,1,SCREENING,INDEPENDENT ASSESSOR,RADIOLOGIST 1,,2012-10-28,4
479,TR,CDISCPILOT01,01-701-1133,TARGET,T02,LPERP,Longest Perpendicular,21.21,mm,21.21,21.21,mm,1,SCREENING,INDEPENDENT ASSESSOR,RADIOLOGIST 1,,2012-10-28,5
480,TR,CDISCPILOT01,01-701-1133,TARGET,T03,LPERP,Longest Perpendicular,20.196,mm,20.196,20.196,mm,1,SCREENING,INDEPENDENT ASSESSOR,RADIOLOGIST 1,,2012-10-28,6
481,TR,CDISCPILOT01,01-701-1133,TARGET,T01,LDIAM,Longest Diameter,19.57,mm,19.57,19.57,mm,1,SCREENING,INDEPENDENT ASSESSOR,RADIOLOGIST 2,Y,2012-10-28,7
482,TR,CDISCPILOT01,01-701-1133,TARGET,T02,LDIAM,Longest Diameter,20.37,mm,20.37,20.37,mm,1,SCREENING,INDEPENDENT ASSESSOR,RADIOLOGIST 2,Y,2012-10-28,8
483,TR,CDISCPILOT01,01-701-1133,TARGET,T03,LDIAM,Longest Diameter,19.6,mm,19.6,19.6,mm,1,SCREENING,INDEPENDENT ASSESSOR,RADIOLOGIST 2,Y,2012-10-28,9
484,TR,CDISCPILOT01,01-701-1133,TARGET,T01,LPERP,Longest Perpendicular,17.613,mm,17.613,17.613,mm,1,SCREENING,INDEPENDENT ASSESSOR,RADIOLOGIST 2,Y,2012-10-28,10
485,TR,CDISCPILOT01,01-701-1133,TARGET,T02,LPERP,Longest Perpendicular,20.37,mm,20.37,20.37,mm,1,SCREENING,INDEPENDENT ASSESSOR,RADIOLOGIST 2,Y,2012-10-28,11
486,TR,CDISCPILOT01,01-701-1133,TARGET,T03,LPERP,Longest Perpendicular,19.404,mm,19.404,19.404,mm,1,SCREENING,INDEPENDENT ASSESSOR,RADIOLOGIST 2,Y,2012-10-28,12
487,TR,CDISCPILOT01,01-701-1133,TARGET,T01,LDIAM,Longest Diameter,19,mm,19,19,mm,1,SCREENING,INVESTIGATOR,,,2012-10-28,13
488,TR,CDISCPILOT01,01-701-1133,TARGET,T02,LDIAM,Longest Diameter,21,mm,21,21,mm,1,SCREENING,INVESTIGATOR,,,2012-10-28,14
489,TR,CDISCPILOT01,01-701-1133,TARGET,T03,LDIAM,Longest Diameter,20,mm,20,20,mm,1,SCREENING,INVESTIGATOR,,,2012-10-28,15
490,TR,CDISCPILOT01,01-701-1133,TARGET,T01,LPERP,Longest Perpendicular,17.1,mm,17.1,17.1,mm,1,SCREENING,INVESTIGATOR,,,2012-10-28,16
491,TR,CDISCPILOT01,01-701-1133,TARGET,T02,LPERP,Longest Perpendicular,21,mm,21,21,mm,1,SCREENING,INVESTIGATOR,,,2012-10-28,17
492,TR,CDISCPILOT01,01-701-1133,TARGET,T03,LPERP,Longest Perpendicular,19.8,mm,19.8,19.8,mm,1,SCREENING,INVESTIGATOR,,,2012-10-28,18
493,TR,CDISCPILOT01,01-701-1133,TARGET,T01,LDIAM,Longest Diameter,15.15,mm,15.15,15.15,mm,2,WEEK 3,INDEPENDENT ASSESSOR,RADIOLOGIST 1,Y,2012-11-18,19
494,TR,CDISCPILOT01,01-701-1133,TARGET,T02,LDIAM,Longest Diameter,14.28,mm,14.28,14.28,mm,2,WEEK 3,INDEPENDENT ASSESSOR,RADIOLOGIST 1,Y,2012-11-18,20
495,TR,CDISCPILOT01,01-701-1133,TARGET,T03,LDIAM,Longest Diameter,13.39,mm,13.39,13.39,mm,2,WEEK 3,INDEPENDENT ASSESSOR,RADIOLOGIST 1,Y,2012-11-18,21
496,TR,CDISCPILOT01,01-701-1133,TARGET,T01,LPERP,Longest Perpendicular,15.15,mm,15.15,15.15,mm,2,WEEK 3,INDEPENDENT ASSESSOR,RADIOLOGIST 1,Y,2012-11-18,22
497,TR,CDISCPILOT01,01-701-1133,TARGET,T02,LPERP,Longest Perpendicular,14.1372,mm,14.1372,14.1372,mm,2,WEEK 3,INDEPENDENT ASSESSOR,RADIOLOGIST 1,Y,2012-11-18,23
498,TR,CDISCPILOT01,01-701-1133,TARGET,T03,LPERP,Longest Perpendicular,13.1222,mm,13.1222,13.1222,mm,2,WEEK 3,INDEPENDENT ASSESSOR,RADIOLOGIST 1,Y,2012-11-18,24
499,TR,CDISCPILOT01,01-701-1133,TARGET,T01,LDIAM,Longest Diameter,14.55,mm,14.55,14.55,mm,2,WEEK 3,INDEPENDENT ASSESSOR,RADIOLOGIST 2,,2012-11-18,25
500,TR,CDISCPILOT01,01-701-1133,TARGET,T02,LDIAM,Longest Diameter,13.72,mm,13.72,13.72,mm,2,WEEK 3,INDEPENDENT ASSESSOR,RADIOLOGIST 2,,2012-11-18,26
501,TR,CDISCPILOT01,01-701-1133,TARGET,T03,LDIAM,Longest Diameter,12.87,mm,12.87,12.87,mm,2,WEEK 3,INDEPENDENT ASSESSOR,RADIOLOGIST 2,,2012-11-18,27
502,TR,CDISCPILOT01,01-701-1133,TARGET,T01,LPERP,Longest Perpendicular,14.55,mm,14.55,14.55,mm,2,WEEK 3,INDEPENDENT ASSESSOR,RADIOLOGIST 2,,2012-11-18,28
503,TR,CDISCPILOT01,01-701-1133,TARGET,T02,LPERP,Longest Perpendicular,13.5828,mm,13.5828,13.5828,mm,2,WEEK 3,INDEPENDENT ASSESSOR,RADIOLOGIST 2,,2012-11-18,29
504,TR,CDISCPILOT01,01-701-1133,TARGET,T03,LPERP,Longest Perpendicular,12.6126,mm,12.6126,12.6126,mm,2,WEEK 3,INDEPENDENT ASSESSOR,RADIOLOGIST 2,,2012-11-18,30
505,TR,CDISCPILOT01,01-701-1133,TARGET,T01,LDIAM,Longest Diameter,15,mm,15,15,mm,2,WEEK 3,INVESTIGATOR,,,2012-11-18,31
506,TR,CDISCPILOT01,01-701-1133,TARGET,T02,LDIAM,Longest Diameter,14,mm,14,14,mm,2,WEEK 3,INVESTIGATOR,,,2012-11-18,32
507,TR,CDISCPILOT01,01-701-1133,TARGET,T03,LDIAM,Longest Diameter,13,mm,13,13,mm,2,WEEK 3,INVESTIGATOR,,,2012-11-18,33
508,TR,CDISCPILOT01,01-701-1133,TARGET,T01,LPERP,Longest Perpendicular,15,mm,15,15,mm,2,WEEK 3,INVESTIGATOR,,,2012-11-18,34
509,TR,CDISCPILOT01,01-701-1133,TARGET,T02,LPERP,Longest Perpendicular,13.86,mm,13.86,13.86,mm,2,WEEK 3,INVESTIGATOR,,,2012-11-18,35
510,TR,CDISCPILOT01,01-701-1133,TARGET,T03,LPERP,Longest Perpendicular,12.74,mm,12.74,12.74,mm,2,WEEK 3,INVESTIGATOR,,,2012-11-18,36
511,TR,CDISCPILOT01,01-701-1133,TARGET,T01,LDIAM,Longest Diameter,0,mm,0,0,mm,3,WEEK 6,INDEPENDENT ASSESSOR,RADIOLOGIST 1,,2012-12-09,37
512,TR,CDISCPILOT01,01-701-1133,TARGET,T02,LDIAM,Longest Diameter,0,mm,0,0,mm,3,WEEK 6,INDEPENDENT ASSESSOR,RADIOLOGIST 1,,2012-12-09,38
513,TR,CDISCPILOT01,01-701-1133,TARGET,T03,LDIAM,Longest Diameter,0,mm,0,0,mm,3,WEEK 6,INDEPENDENT ASSESSOR,RADIOLOGIST 1,,2012-12-09,39
514,TR,CDISCPILOT01,01-701-1133,TARGET,T01,LPERP,Longest Perpendicular,0,mm,0,0,mm,3,WEEK 6,INDEPENDENT ASSESSOR,RADIOLOGIST 1,,2012-12-09,40
515,TR,CDISCPILOT01,01-701-1133,TARGET,T02,LPERP,Longest Perpendicular,0,mm,0,0,mm,3,WEEK 6,INDEPENDENT ASSESSOR,RADIOLOGIST 1,,2012-12-09,41
516,TR,CDISCPILOT01,01-701-1133,TARGET,T03,LPERP,Longest Perpendicular,0,mm,0,0,mm,3,WEEK 6,INDEPENDENT ASSESSOR,RADIOLOGIST 1,,2012-12-09,42
517,TR,CDISCPILOT01,01-701-1133,TARGET,T01,LDIAM,Longest Diameter,0,mm,0,0,mm,3,WEEK 6,INDEPENDENT ASSESSOR,RADIOLOGIST 2,Y,2012-12-09,43
518,TR,CDISCPILOT01,01-701-1133,TARGET,T02,LDIAM,Longest Diameter,0,mm,0,0,mm,3,WEEK 6,INDEPENDENT ASSESSOR,RADIOLOGIST 2,Y,2012-12-09,44
519,TR,CDISCPILOT01,01-701-1133,TARGET,T03,LDIAM,Longest Diameter,0,mm,0,0,mm,3,WEEK 6,INDEPENDENT ASSESSOR,RADIOLOGIST 2,Y,2012-12-09,45
520,TR,CDISCPILOT01,01-701-1133,TARGET,T01,LPERP,Longest Perpendicular,0,mm,0,0,mm,3,WEEK 6,INDEPENDENT ASSESSOR,RADIOLOGIST 2,Y,2012-12-09,46
521,TR,CDISCPILOT01,01-701-1133,TARGET,T02,LPERP,Longest Perpendicular,0,mm,0,0,mm,3,WEEK 6,INDEPENDENT ASSESSOR,RADIOLOGIST 2,Y,2012-12-09,47
522,TR,CDISCPILOT01,01-701-1133,TARGET,T03,LPERP,Longest Perpendicular,0,mm,0,0,mm,3,WEEK 6,INDEPENDENT ASSESSOR,RADIOLOGIST 2,Y,2012-12-09,48
523,TR,CDISCPILOT01,01-701-1133,TARGET,T01,LDIAM,Longest Diameter,0,mm,0,0,mm,3,WEEK 6,INVESTIGATOR,,,2012-12-09,49
524,TR,CDISCPILOT01,01-701-1133,TARGET,T02,LDIAM,Longest Diameter,0,mm,0,0,mm,3,WEEK 6,INVESTIGATOR,,,2012-12-09,50
525,TR,CDISCPILOT01,01-701-1133,TARGET,T03,LDIAM,Longest Diameter,0,mm,0,0,mm,3,WEEK 6,INVESTIGATOR,,,2012-12-09,51
526,TR,CDISCPILOT01,01-701-1133,TARGET,T01,LPERP,Longest Perpendicular,0,mm,0,0,mm,3,WEEK 6,INVESTIGATOR,,,2012-12-09,52
527,TR,CDISCPILOT01,01-701-1133,TARGET,T02,LPERP,Longest Perpendicular,0,mm,0,0,mm,3,WEEK 6,INVESTIGATOR,,,2012-12-09,53
528,TR,CDISCPILOT01,01-701-1133,TARGET,T03,LPERP,Longest Perpendicular,0,mm,0,0,mm,3,WEEK 6,INVESTIGATOR,,,2012-12-09,54
529,TR,CDISCPILOT01,01-701-1133,TARGET,T01,LDIAM,Longest Diameter,5.15,mm,5.15,5.15,mm,4,WEEK 9,INDEPENDENT ASSESSOR,RADIOLOGIST 1,Y,2012-12-30,55
530,TR,CDISCPILOT01,01-701-1133,TARGET,T02,LDIAM,Longest Diameter,0,mm,0,0,mm,4,WEEK 9,INDEPENDENT ASSESSOR,RADIOLOGIST 1,Y,2012-12-30,56
531,TR,CDISCPILOT01,01-701-1133,TARGET,T03,LDIAM,Longest Diameter,0,mm,0,0,mm,4,WEEK 9,INDEPENDENT ASSESSOR,RADIOLOGIST 1,Y,2012-12-30,57
532,TR,CDISCPILOT01,01-701-1133,TARGET,T01,LPERP,Longest Perpendicular,5.047,mm,5.047,5.047,mm,4,WEEK 9,INDEPENDENT ASSESSOR,RADIOLOGIST 1,Y,2012-12-30,58
533,TR,CDISCPILOT01,01-701-1133,TARGET,T02,LPERP,Longest Perpendicular,0,mm,0,0,mm,4,WEEK 9,INDEPENDENT ASSESSOR,RADIOLOGIST 1,Y,2012-12-30,59
534,TR,CDISCPILOT01,01-701-1133,TARGET,T03,LPERP,Longest Perpendicular,0,mm,0,0,mm,4,WEEK 9,INDEPENDENT ASSESSOR,RADIOLOGIST 1,Y,2012-12-30,60
535,TR,CDISCPILOT01,01-701-1133,TARGET,T01,LDIAM,Longest Diameter,4.95,mm,4.95,4.95,mm,4,WEEK 9,INDEPENDENT ASSESSOR,RADIOLOGIST 2,,2012-12-30,61
536,TR,CDISCPILOT01,01-701-1133,TARGET,T02,LDIAM,Longest Diameter,0,mm,0,0,mm,4,WEEK 9,INDEPENDENT ASSESSOR,RADIOLOGIST 2,,2012-12-30,62
537,TR,CDISCPILOT01,01-701-1133,TARGET,T03,LDIAM,Longest Diameter,0,mm,0,0,mm,4,WEEK 9,INDEPENDENT ASSESSOR,RADIOLOGIST 2,,2012-12-30,63
538,TR,CDISCPILOT01,01-701-1133,TARGET,T01,LPERP,Longest Perpendicular,4.851,mm,4.851,4.851,mm,4,WEEK 9,INDEPENDENT ASSESSOR,RADIOLOGIST 2,,2012-12-30,64
539,TR,CDISCPILOT01,01-701-1133,TARGET,T02,LPERP,Longest Perpendicular,0,mm,0,0,mm,4,WEEK 9,INDEPENDENT ASSESSOR,RADIOLOGIST 2,,2012-12-30,65
540,TR,CDISCPILOT01,01-701-1133,TARGET,T03,LPERP,Longest Perpendicular,0,mm,0,0,mm,4,WEEK 9,INDEPENDENT ASSESSOR,RADIOLOGIST 2,,2012-12-30,66
541,TR,CDISCPILOT01,01-701-1133,TARGET,T01,LDIAM,Longest Diameter,5,mm,5,5,mm,4,WEEK 9,INVESTIGATOR,,,2012-12-30,67
542,TR,CDISCPILOT01,01-701-1133,TARGET,T02,LDIAM,Longest Diameter,0,mm,0,0,mm,4,WEEK 9,INVESTIGATOR,,,2012-12-30,68
543,TR,CDISCPILOT01,01-701-1133,TARGET,T03,LDIAM,Longest Diameter,0,mm,0,0,mm,4,WEEK 9,INVESTIGATOR,,,2012-12-30,69
544,TR,CDISCPILOT01,01-701-1133,TARGET,T01,LPERP,Longest Perpendicular,4.9,mm,4.9,4.9,mm,4,WEEK 9,INVESTIGATOR,,,2012-12-30,70
545,TR,CDISCPILOT01,01-701-1133,TARGET,T02,LPERP,Longest Perpendicular,0,mm,0,0,mm,4,WEEK 9,INVESTIGATOR,,,2012-12-30,71
546,TR,CDISCPILOT01,01-701-1133,TARGET,T03,LPERP,Longest Perpendicular,0,mm,0,0,mm,4,WEEK 9,INVESTIGATOR,,,2012-12-30,72
