rownames,STUDYID,DOMAIN,USUBJID,TUSEQ,TULNKID,TUTESTCD,TUTEST,TUORRES,TUSTRESC,TULOC,TUMETHOD,TUEVAL,TUEVALID,TUACPTFL,VISITNUM,VISIT,TUDTC,TUDY
1,CDISCPILOT01,TU,01-701-1015,1,T01,TUMIDENT,Tumor Identification,TARGET,TARGET,ADRENAL GLAND,CT SCAN,INVESTIGATOR,,,3,BASELINE,2014-01,1
2,CDISCPILOT01,TU,01-701-1015,2,T02,TUMIDENT,Tumor Identification,TARGET,TARGET,LYMPH NODE,CT SCAN,INVESTIGATOR,,,3,BASELINE,2014-01,1
3,CDISCPILOT01,TU,01-701-1015,3,T03,TUMIDENT,Tumor Identification,TARGET,TARGET,BLADDER,CT SCAN,INVESTIGATOR,,,3,BASELINE,2014-01,1
4,CDISCPILOT01,TU,01-701-1015,4,T04,TUMIDENT,Tumor Identification,TARGET,TARGET,BODY,CT SCAN,INVESTIGATOR,,,3,BASELINE,2014-01,1
5,CDISCPILOT01,TU,01-701-1015,5,T05,TUMIDENT,Tumor Identification,TARGET,TARGET,BONE,CT SCAN,INVESTIGATOR,,,3,BASELINE,2014-01,1
6,CDISCPILOT01,TU,01-701-1015,6,NT01,TUMIDENT,Tumor Identification,NON-TARGET,NON-TARGET,,CT SCAN,INVESTIGATOR,,,3,BASELINE,2014-01-02,1
7,CDISCPILOT01,TU,01-701-1015,7,NT02,TUMIDENT,Tumor Identification,NON-TARGET,NON-TARGET,,CT SCAN,INVESTIGATOR,,,3,BASELINE,2014-01-02,1
8,CDISCPILOT01,TU,01-701-1015,8,NT03,TUMIDENT,Tumor Identification,NON-TARGET,NON-TARGET,,CT SCAN,INVESTIGATOR,,,3,BASELINE,2014-01-02,1
9,CDISCPILOT01,TU,01-701-1015,9,NT04,TUMIDENT,Tumor Identification,NON-TARGET,NON-TARGET,,CT SCAN,INVESTIGATOR,,,3,BASELINE,2014-01-02,1
10,CDISCPILOT01,TU,01-701-1015,10,NT05,TUMIDENT,Tumor Identification,NON-TARGET,NON-TARGET,,CT SCAN,INVESTIGATOR,,,3,BASELINE,2014-01-02,1
11,CDISCPILOT01,TU,01-701-1015,11,R1-NT01,TUMIDENT,Tumor Identification,NON-TARGET,NON-TARGET,,CT SCAN,INDEPENDENT ASSESSOR,RADIOLOGIST 1,Y,3,BASELINE,2014-01-02,1
12,CDISCPILOT01,TU,01-701-1015,12,R1-NT02,TUMIDENT,Tumor Identification,NON-TARGET,NON-TARGET,,CT SCAN,INDEPENDENT ASSESSOR,RADIOLOGIST 1,Y,3,BASELINE,2014-01-02,1
13,CDISCPILOT01,TU,01-701-1015,13,R1-NT03,TUMIDENT,Tumor Identification,NON-TARGET,NON-TARGET,,CT SCAN,INDEPENDENT ASSESSOR,RADIOLOGIST 1,Y,3,BASELINE,2014-01-02,1
14,CDISCPILOT01,TU,01-701-1015,14,R1-NT04,TUMIDENT,Tumor Identification,NON-TARGET,NON-TARGET,,CT SCAN,INDEPENDENT ASSESSOR,RADIOLOGIST 1,Y,3,BASELINE,2014-01-02,1
15,CDISCPILOT01,TU,01-701-1015,15,R1-NT05,TUMIDENT,Tumor Identification,NON-TARGET,NON-TARGET,,CT SCAN,INDEPENDENT ASSESSOR,RADIOLOGIST 1,Y,3,BASELINE,2014-01-02,1
16,CDISCPILOT01,TU,01-701-1015,16,R1-T01,TUMIDENT,Tumor Identification,TARGET,TARGET,ADRENAL GLAND,CT SCAN,INDEPENDENT ASSESSOR,RADIOLOGIST 1,Y,3,BASELINE,2014-01-02,1
17,CDISCPILOT01,TU,01-701-1015,17,R1-T02,TUMIDENT,Tumor Identification,TARGET,TARGET,LYMPH NODE,CT SCAN,INDEPENDENT ASSESSOR,RADIOLOGIST 1,Y,3,BASELINE,2014-01-02,1
18,CDISCPILOT01,TU,01-701-1015,18,R1-T03,TUMIDENT,Tumor Identification,TARGET,TARGET,BLADDER,CT SCAN,INDEPENDENT ASSESSOR,RADIOLOGIST 1,Y,3,BASELINE,2014-01-02,1
19,CDISCPILOT01,TU,01-701-1015,19,R1-T04,TUMIDENT,Tumor Identification,TARGET,TARGET,BODY,CT SCAN,INDEPENDENT ASSESSOR,RADIOLOGIST 1,Y,3,BASELINE,2014-01-02,1
20,CDISCPILOT01,TU,01-701-1015,20,R1-T05,TUMIDENT,Tumor Identification,TARGET,TARGET,BONE,CT SCAN,INDEPENDENT ASSESSOR,RADIOLOGIST 1,Y,3,BASELINE,2014-01-02,1
21,CDISCPILOT01,TU,01-701-1015,21,R2-NT01,TUMIDENT,Tumor Identification,NON-TARGET,NON-TARGET,,CT SCAN,INDEPENDENT ASSESSOR,RADIOLOGIST 2,,3,BASELINE,2014-01-02,1
22,CDISCPILOT01,TU,01-701-1015,22,R2-NT02,TUMIDENT,Tumor Identification,NON-TARGET,NON-TARGET,,CT SCAN,INDEPENDENT ASSESSOR,RADIOLOGIST 2,,3,BASELINE,2014-01-02,1
23,CDISCPILOT01,TU,01-701-1015,23,R2-NT03,TUMIDENT,Tumor Identification,NON-TARGET,NON-TARGET,,CT SCAN,INDEPENDENT ASSESSOR,RADIOLOGIST 2,,3,BASELINE,2014-01-02,1
24,CDISCPILOT01,TU,01-701-1015,24,R2-NT04,TUMIDENT,Tumor Identification,NON-TARGET,NON-TARGET,,CT SCAN,INDEPENDENT ASSESSOR,RADIOLOGIST 2,,3,BASELINE,2014-01-02,1
25,CDISCPILOT01,TU,01-701-1015,25,R2-NT05,TUMIDENT,Tumor Identification,NON-TARGET,NON-TARGET,,CT SCAN,INDEPENDENT ASSESSOR,RADIOLOGIST 2,,3,BASELINE,2014-01-02,1
26,CDISCPILOT01,TU,01-701-1015,26,R2-T01,TUMIDENT,Tumor Identification,TARGET,TARGET,BLADDER,CT SCAN,INDEPENDENT ASSESSOR,RADIOLOGIST 2,,3,BASELINE,2014-01-02,1
27,CDISCPILOT01,TU,01-701-1015,27,R2-T02,TUMIDENT,Tumor Identification,TARGET,TARGET,BODY,CT SCAN,INDEPENDENT ASSESSOR,RADIOLOGIST 2,,3,BASELINE,2014-01-02,1
28,CDISCPILOT01,TU,01-701-1015,28,R2-T03,TUMIDENT,Tumor Identification,TARGET,TARGET,BONE,CT SCAN,INDEPENDENT ASSESSOR,RADIOLOGIST 2,,3,BASELINE,2014-01-02,1
29,CDISCPILOT01,TU,01-701-1015,29,R2-T04,TUMIDENT,Tumor Identification,TARGET,TARGET,BREAST,CT SCAN,INDEPENDENT ASSESSOR,RADIOLOGIST 2,,3,BASELINE,2014-01-02,1
30,CDISCPILOT01,TU,01-701-1015,30,R2-T05,TUMIDENT,Tumor Identification,TARGET,TARGET,CHEST,CT SCAN,INDEPENDENT ASSESSOR,RADIOLOGIST 2,,3,BASELINE,2014-01-02,1
31,CDISCPILOT01,TU,01-701-1023,1,NT01,TUMIDENT,Tumor Identification,NON-TARGET,NON-TARGET,,CT SCAN,INVESTIGATOR,,,3,BASELINE,2012-08-05,1
32,CDISCPILOT01,TU,01-701-1023,2,NT02,TUMIDENT,Tumor Identification,NON-TARGET,NON-TARGET,,CT SCAN,INVESTIGATOR,,,3,BASELINE,2012-08-05,1
33,CDISCPILOT01,TU,01-701-1023,3,NT03,TUMIDENT,Tumor Identification,NON-TARGET,NON-TARGET,,CT SCAN,INVESTIGATOR,,,3,BASELINE,2012-08-05,1
34,CDISCPILOT01,TU,01-701-1023,4,NT04,TUMIDENT,Tumor Identification,NON-TARGET,NON-TARGET,,CT SCAN,INVESTIGATOR,,,3,BASELINE,2012-08-05,1
35,CDISCPILOT01,TU,01-701-1023,5,NT05,TUMIDENT,Tumor Identification,NON-TARGET,NON-TARGET,,CT SCAN,INVESTIGATOR,,,3,BASELINE,2012-08-05,1
36,CDISCPILOT01,TU,01-701-1023,6,R1-NT01,TUMIDENT,Tumor Identification,NON-TARGET,NON-TARGET,,CT SCAN,INDEPENDENT ASSESSOR,RADIOLOGIST 1,Y,3,BASELINE,2012-08-05,1
37,CDISCPILOT01,TU,01-701-1023,7,R1-NT02,TUMIDENT,Tumor Identification,NON-TARGET,NON-TARGET,,CT SCAN,INDEPENDENT ASSESSOR,RADIOLOGIST 1,Y,3,BASELINE,2012-08-05,1
38,CDISCPILOT01,TU,01-701-1023,8,R1-NT03,TUMIDENT,Tumor Identification,NON-TARGET,NON-TARGET,,CT SCAN,INDEPENDENT ASSESSOR,RADIOLOGIST 1,Y,3,BASELINE,2012-08-05,1
39,CDISCPILOT01,TU,01-701-1023,9,R1-NT04,TUMIDENT,Tumor Identification,NON-TARGET,NON-TARGET,,CT SCAN,INDEPENDENT ASSESSOR,RADIOLOGIST 1,Y,3,BASELINE,2012-08-05,1
40,CDISCPILOT01,TU,01-701-1023,10,R1-NT05,TUMIDENT,Tumor Identification,NON-TARGET,NON-TARGET,,CT SCAN,INDEPENDENT ASSESSOR,RADIOLOGIST 1,Y,3,BASELINE,2012-08-05,1
41,CDISCPILOT01,TU,01-701-1023,11,R1-T01,TUMIDENT,Tumor Identification,TARGET,TARGET,BLADDER,CT SCAN,INDEPENDENT ASSESSOR,RADIOLOGIST 1,Y,3,BASELINE,2012-08-05,1
42,CDISCPILOT01,TU,01-701-1023,12,R1-T02,TUMIDENT,Tumor Identification,TARGET,TARGET,BODY,CT SCAN,INDEPENDENT ASSESSOR,RADIOLOGIST 1,Y,3,BASELINE,2012-08-05,1
43,CDISCPILOT01,TU,01-701-1023,13,R1-T03,TUMIDENT,Tumor Identification,TARGET,TARGET,BONE,CT SCAN,INDEPENDENT ASSESSOR,RADIOLOGIST 1,Y,3,BASELINE,2012-08-05,1
44,CDISCPILOT01,TU,01-701-1023,14,R1-T04,TUMIDENT,Tumor Identification,TARGET,TARGET,BREAST,CT SCAN,INDEPENDENT ASSESSOR,RADIOLOGIST 1,Y,3,BASELINE,2012-08-05,1
45,CDISCPILOT01,TU,01-701-1023,15,R1-T05,TUMIDENT,Tumor Identification,TARGET,TARGET,CHEST,CT SCAN,INDEPENDENT ASSESSOR,RADIOLOGIST 1,Y,3,BASELINE,2012-08-05,1
46,CDISCPILOT01,TU,01-701-1023,16,R2-NT01,TUMIDENT,Tumor Identification,NON-TARGET,NON-TARGET,,CT SCAN,INDEPENDENT ASSESSOR,RADIOLOGIST 2,,3,BASELINE,2012-08-05,1
47,CDISCPILOT01,TU,01-701-1023,17,R2-NT02,TUMIDENT,Tumor Identification,NON-TARGET,NON-TARGET,,CT SCAN,INDEPENDENT ASSESSOR,RADIOLOGIST 2,,3,BASELINE,2012-08-05,1
48,CDISCPILOT01,TU,01-701-1023,18,R2-NT03,TUMIDENT,Tumor Identification,NON-TARGET,NON-TARGET,,CT SCAN,INDEPENDENT ASSESSOR,RADIOLOGIST 2,,3,BASELINE,2012-08-05,1
49,CDISCPILOT01,TU,01-701-1023,19,R2-NT04,TUMIDENT,Tumor Identification,NON-TARGET,NON-TARGET,,CT SCAN,INDEPENDENT ASSESSOR,RADIOLOGIST 2,,3,BASELINE,2012-08-05,1
50,CDISCPILOT01,TU,01-701-1023,20,R2-NT05,TUMIDENT,Tumor Identification,NON-TARGET,NON-TARGET,,CT SCAN,INDEPENDENT ASSESSOR,RADIOLOGIST 2,,3,BASELINE,2012-08-05,1
51,CDISCPILOT01,TU,01-701-1023,21,R2-T01,TUMIDENT,Tumor Identification,TARGET,TARGET,ABDOMINAL CAVITY,CT SCAN,INDEPENDENT ASSESSOR,RADIOLOGIST 2,,3,BASELINE,2012-08-05,1
52,CDISCPILOT01,TU,01-701-1023,22,R2-T02,TUMIDENT,Tumor Identification,TARGET,TARGET,ADRENAL GLAND,CT SCAN,INDEPENDENT ASSESSOR,RADIOLOGIST 2,,3,BASELINE,2012-08-05,1
53,CDISCPILOT01,TU,01-701-1023,23,R2-T03,TUMIDENT,Tumor Identification,TARGET,TARGET,LYMPH NODE,CT SCAN,INDEPENDENT ASSESSOR,RADIOLOGIST 2,,3,BASELINE,2012-08-05,1
54,CDISCPILOT01,TU,01-701-1023,24,R2-T04,TUMIDENT,Tumor Identification,TARGET,TARGET,BLADDER,CT SCAN,INDEPENDENT ASSESSOR,RADIOLOGIST 2,,3,BASELINE,2012-08-05,1
55,CDISCPILOT01,TU,01-701-1023,25,R2-T05,TUMIDENT,Tumor Identification,TARGET,TARGET,BODY,CT SCAN,INDEPENDENT ASSESSOR,RADIOLOGIST 2,,3,BASELINE,2012-08-05,1
56,CDISCPILOT01,TU,01-701-1023,26,T01,TUMIDENT,Tumor Identification,TARGET,TARGET,ABDOMINAL CAVITY,CT SCAN,INVESTIGATOR,,,3,BASELINE,2012-08-05,1
57,CDISCPILOT01,TU,01-701-1023,27,T02,TUMIDENT,Tumor Identification,TARGET,TARGET,ADRENAL GLAND,CT SCAN,INVESTIGATOR,,,3,BASELINE,2012-08-05,1
58,CDISCPILOT01,TU,01-701-1023,28,T03,TUMIDENT,Tumor Identification,TARGET,TARGET,LYMPH NODE,CT SCAN,INVESTIGATOR,,,3,BASELINE,2012-08-05,1
59,CDISCPILOT01,TU,01-701-1023,29,T04,TUMIDENT,Tumor Identification,TARGET,TARGET,BLADDER,CT SCAN,INVESTIGATOR,,,3,BASELINE,2012-08-05,1
60,CDISCPILOT01,TU,01-701-1023,30,T05,TUMIDENT,Tumor Identification,TARGET,TARGET,BODY,CT SCAN,INVESTIGATOR,,,3,BASELINE,2012-08-05,1
61,CDISCPILOT01,TU,01-701-1028,1,NT01,TUMIDENT,Tumor Identification,NON-TARGET,NON-TARGET,,CT SCAN,INVESTIGATOR,,,3,BASELINE,2013-07-19,1
62,CDISCPILOT01,TU,01-701-1028,2,NT02,TUMIDENT,Tumor Identification,NON-TARGET,NON-TARGET,,CT SCAN,INVESTIGATOR,,,3,BASELINE,2013-07-19,1
63,CDISCPILOT01,TU,01-701-1028,3,NT03,TUMIDENT,Tumor Identification,NON-TARGET,NON-TARGET,,CT SCAN,INVESTIGATOR,,,3,BASELINE,2013-07-19,1
64,CDISCPILOT01,TU,01-701-1028,4,NT04,TUMIDENT,Tumor Identification,NON-TARGET,NON-TARGET,,CT SCAN,INVESTIGATOR,,,3,BASELINE,2013-07-19,1
65,CDISCPILOT01,TU,01-701-1028,5,NT05,TUMIDENT,Tumor Identification,NON-TARGET,NON-TARGET,,CT SCAN,INVESTIGATOR,,,3,BASELINE,2013-07-19,1
66,CDISCPILOT01,TU,01-701-1028,6,R1-NT01,TUMIDENT,Tumor Identification,NON-TARGET,NON-TARGET,,CT SCAN,INDEPENDENT ASSESSOR,RADIOLOGIST 1,Y,3,BASELINE,2013-07-19,1
67,CDISCPILOT01,TU,01-701-1028,7,R1-NT02,TUMIDENT,Tumor Identification,NON-TARGET,NON-TARGET,,CT SCAN,INDEPENDENT ASSESSOR,RADIOLOGIST 1,Y,3,BASELINE,2013-07-19,1
68,CDISCPILOT01,TU,01-701-1028,8,R1-NT03,TUMIDENT,Tumor Identification,NON-TARGET,NON-TARGET,,CT SCAN,INDEPENDENT ASSESSOR,RADIOLOGIST 1,Y,3,BASELINE,2013-07-19,1
69,CDISCPILOT01,TU,01-701-1028,9,R1-NT04,TUMIDENT,Tumor Identification,NON-TARGET,NON-TARGET,,CT SCAN,INDEPENDENT ASSESSOR,RADIOLOGIST 1,Y,3,BASELINE,2013-07-19,1
70,CDISCPILOT01,TU,01-701-1028,10,R1-NT05,TUMIDENT,Tumor Identification,NON-TARGET,NON-TARGET,,CT SCAN,INDEPENDENT ASSESSOR,RADIOLOGIST 1,Y,3,BASELINE,2013-07-19,1
71,CDISCPILOT01,TU,01-701-1028,11,R1-T01,TUMIDENT,Tumor Identification,TARGET,TARGET,ADRENAL GLAND,CT SCAN,INDEPENDENT ASSESSOR,RADIOLOGIST 1,Y,3,BASELINE,2013-07-19,1
72,CDISCPILOT01,TU,01-701-1028,12,R1-T02,TUMIDENT,Tumor Identification,TARGET,TARGET,LYMPH NODE,CT SCAN,INDEPENDENT ASSESSOR,RADIOLOGIST 1,Y,3,BASELINE,2013-07-19,1
73,CDISCPILOT01,TU,01-701-1028,13,R1-T03,TUMIDENT,Tumor Identification,TARGET,TARGET,BLADDER,CT SCAN,INDEPENDENT ASSESSOR,RADIOLOGIST 1,Y,3,BASELINE,2013-07-19,1
74,CDISCPILOT01,TU,01-701-1028,14,R1-T04,TUMIDENT,Tumor Identification,TARGET,TARGET,BODY,CT SCAN,INDEPENDENT ASSESSOR,RADIOLOGIST 1,Y,3,BASELINE,2013-07-19,1
75,CDISCPILOT01,TU,01-701-1028,15,R1-T05,TUMIDENT,Tumor Identification,TARGET,TARGET,BONE,CT SCAN,INDEPENDENT ASSESSOR,RADIOLOGIST 1,Y,3,BASELINE,2013-07-19,1
76,CDISCPILOT01,TU,01-701-1028,16,R2-NT01,TUMIDENT,Tumor Identification,NON-TARGET,NON-TARGET,,CT SCAN,INDEPENDENT ASSESSOR,RADIOLOGIST 2,,3,BASELINE,2013-07-19,1
77,CDISCPILOT01,TU,01-701-1028,17,R2-NT02,TUMIDENT,Tumor Identification,NON-TARGET,NON-TARGET,,CT SCAN,INDEPENDENT ASSESSOR,RADIOLOGIST 2,,3,BASELINE,2013-07-19,1
78,CDISCPILOT01,TU,01-701-1028,18,R2-NT03,TUMIDENT,Tumor Identification,NON-TARGET,NON-TARGET,,CT SCAN,INDEPENDENT ASSESSOR,RADIOLOGIST 2,,3,BASELINE,2013-07-19,1
79,CDISCPILOT01,TU,01-701-1028,19,R2-NT04,TUMIDENT,Tumor Identification,NON-TARGET,NON-TARGET,,CT SCAN,INDEPENDENT ASSESSOR,RADIOLOGIST 2,,3,BASELINE,2013-07-19,1
80,CDISCPILOT01,TU,01-701-1028,20,R2-NT05,TUMIDENT,Tumor Identification,NON-TARGET,NON-TARGET,,CT SCAN,INDEPENDENT ASSESSOR,RADIOLOGIST 2,,3,BASELINE,2013-07-19,1
81,CDISCPILOT01,TU,01-701-1028,21,R2-T01,TUMIDENT,Tumor Identification,TARGET,TARGET,BLADDER,CT SCAN,INDEPENDENT ASSESSOR,RADIOLOGIST 2,,3,BASELINE,2013-07-19,1
82,CDISCPILOT01,TU,01-701-1028,22,R2-T02,TUMIDENT,Tumor Identification,TARGET,TARGET,BODY,CT SCAN,INDEPENDENT ASSESSOR,RADIOLOGIST 2,,3,BASELINE,2013-07-19,1
83,CDISCPILOT01,TU,01-701-1028,23,R2-T03,TUMIDENT,Tumor Identification,TARGET,TARGET,BONE,CT SCAN,INDEPENDENT ASSESSOR,RADIOLOGIST 2,,3,BASELINE,2013-07-19,1
84,CDISCPILOT01,TU,01-701-1028,24,R2-T04,TUMIDENT,Tumor Identification,TARGET,TARGET,BREAST,CT SCAN,INDEPENDENT ASSESSOR,RADIOLOGIST 2,,3,BASELINE,2013-07-19,1
85,CDISCPILOT01,TU,01-701-1028,25,R2-T05,TUMIDENT,Tumor Identification,TARGET,TARGET,CHEST,CT SCAN,INDEPENDENT ASSESSOR,RADIOLOGIST 2,,3,BASELINE,2013-07-19,1
86,CDISCPILOT01,TU,01-701-1028,26,T01,TUMIDENT,Tumor Identification,TARGET,TARGET,BLADDER,CT SCAN,INVESTIGATOR,,,3,BASELINE,2013-07-19,1
87,CDISCPILOT01,TU,01-701-1028,27,T02,TUMIDENT,Tumor Identification,TARGET,TARGET,BODY,CT SCAN,INVESTIGATOR,,,3,BASELINE,2013-07-19,1
88,CDISCPILOT01,TU,01-701-1028,28,T03,TUMIDENT,Tumor Identification,TARGET,TARGET,BONE,CT SCAN,INVESTIGATOR,,,3,BASELINE,2013-07-19,1
89,CDISCPILOT01,TU,01-701-1028,29,T04,TUMIDENT,Tumor Identification,TARGET,TARGET,BREAST,CT SCAN,INVESTIGATOR,,,3,BASELINE,2013-07-19,1
90,CDISCPILOT01,TU,01-701-1028,30,T05,TUMIDENT,Tumor Identification,TARGET,TARGET,CHEST,CT SCAN,INVESTIGATOR,,,3,BASELINE,2013-07-19,1
91,CDISCPILOT01,TU,01-701-1028,31,NEW01,TUMIDENT,Tumor Identification,NEW,NEW,,CT SCAN,INVESTIGATOR,,,12,WEEK 24,2014-01-06,168
92,CDISCPILOT01,TU,01-701-1028,32,R1-NEW01,TUMIDENT,Tumor Identification,NEW,NEW,,CT SCAN,INDEPENDENT ASSESSOR,RADIOLOGIST 1,Y,12,WEEK 24,2014-01-06,168
93,CDISCPILOT01,TU,01-701-1028,33,R2-NEW01,TUMIDENT,Tumor Identification,NEW,NEW,,CT SCAN,INDEPENDENT ASSESSOR,RADIOLOGIST 2,,12,WEEK 24,2014-01-06,168
94,CDISCPILOT01,TU,01-701-1033,1,NT01,TUMIDENT,Tumor Identification,NON-TARGET,NON-TARGET,,CT SCAN,INVESTIGATOR,,,3,BASELINE,2014-03-18,1
95,CDISCPILOT01,TU,01-701-1033,2,NT02,TUMIDENT,Tumor Identification,NON-TARGET,NON-TARGET,,CT SCAN,INVESTIGATOR,,,3,BASELINE,2014-03-18,1
96,CDISCPILOT01,TU,01-701-1033,3,NT03,TUMIDENT,Tumor Identification,NON-TARGET,NON-TARGET,,CT SCAN,INVESTIGATOR,,,3,BASELINE,2014-03-18,1
97,CDISCPILOT01,TU,01-701-1033,4,NT04,TUMIDENT,Tumor Identification,NON-TARGET,NON-TARGET,,CT SCAN,INVESTIGATOR,,,3,BASELINE,2014-03-18,1
98,CDISCPILOT01,TU,01-701-1033,5,NT05,TUMIDENT,Tumor Identification,NON-TARGET,NON-TARGET,,CT SCAN,INVESTIGATOR,,,3,BASELINE,2014-03-18,1
99,CDISCPILOT01,TU,01-701-1033,6,R1-NT01,TUMIDENT,Tumor Identification,NON-TARGET,NON-TARGET,,CT SCAN,INDEPENDENT ASSESSOR,RADIOLOGIST 1,Y,3,BASELINE,2014-03-18,1
100,CDISCPILOT01,TU,01-701-1033,7,R1-NT02,TUMIDENT,Tumor Identification,NON-TARGET,NON-TARGET,,CT SCAN,INDEPENDENT ASSESSOR,RADIOLOGIST 1,Y,3,BASELINE,2014-03-18,1
101,CDISCPILOT01,TU,01-701-1033,8,R1-NT03,TUMIDENT,Tumor Identification,NON-TARGET,NON-TARGET,,CT SCAN,INDEPENDENT ASSESSOR,RADIOLOGIST 1,Y,3,BASELINE,2014-03-18,1
102,CDISCPILOT01,TU,01-701-1033,9,R1-NT04,TUMIDENT,Tumor Identification,NON-TARGET,NON-TARGET,,CT SCAN,INDEPENDENT ASSESSOR,RADIOLOGIST 1,Y,3,BASELINE,2014-03-18,1
103,CDISCPILOT01,TU,01-701-1033,10,R1-NT05,TUMIDENT,Tumor Identification,NON-TARGET,NON-TARGET,,CT SCAN,INDEPENDENT ASSESSOR,RADIOLOGIST 1,Y,3,BASELINE,2014-03-18,1
104,CDISCPILOT01,TU,01-701-1033,11,R1-T01,TUMIDENT,Tumor Identification,TARGET,TARGET,ABDOMINAL CAVITY,CT SCAN,INDEPENDENT ASSESSOR,RADIOLOGIST 1,Y,3,BASELINE,2014-03-18,1
105,CDISCPILOT01,TU,01-701-1033,12,R1-T02,TUMIDENT,Tumor Identification,TARGET,TARGET,ADRENAL GLAND,CT SCAN,INDEPENDENT ASSESSOR,RADIOLOGIST 1,Y,3,BASELINE,2014-03-18,1
106,CDISCPILOT01,TU,01-701-1033,13,R1-T03,TUMIDENT,Tumor Identification,TARGET,TARGET,LYMPH NODE,CT SCAN,INDEPENDENT ASSESSOR,RADIOLOGIST 1,Y,3,BASELINE,2014-03-18,1
107,CDISCPILOT01,TU,01-701-1033,14,R1-T04,TUMIDENT,Tumor Identification,TARGET,TARGET,BLADDER,CT SCAN,INDEPENDENT ASSESSOR,RADIOLOGIST 1,Y,3,BASELINE,2014-03-18,1
108,CDISCPILOT01,TU,01-701-1033,15,R1-T05,TUMIDENT,Tumor Identification,TARGET,TARGET,BODY,CT SCAN,INDEPENDENT ASSESSOR,RADIOLOGIST 1,Y,3,BASELINE,2014-03-18,1
109,CDISCPILOT01,TU,01-701-1033,16,R2-NT01,TUMIDENT,Tumor Identification,NON-TARGET,NON-TARGET,,CT SCAN,INDEPENDENT ASSESSOR,RADIOLOGIST 2,,3,BASELINE,2014-03-18,1
110,CDISCPILOT01,TU,01-701-1033,17,R2-NT02,TUMIDENT,Tumor Identification,NON-TARGET,NON-TARGET,,CT SCAN,INDEPENDENT ASSESSOR,RADIOLOGIST 2,,3,BASELINE,2014-03-18,1
111,CDISCPILOT01,TU,01-701-1033,18,R2-NT03,TUMIDENT,Tumor Identification,NON-TARGET,NON-TARGET,,CT SCAN,INDEPENDENT ASSESSOR,RADIOLOGIST 2,,3,BASELINE,2014-03-18,1
112,CDISCPILOT01,TU,01-701-1033,19,R2-NT04,TUMIDENT,Tumor Identification,NON-TARGET,NON-TARGET,,CT SCAN,INDEPENDENT ASSESSOR,RADIOLOGIST 2,,3,BASELINE,2014-03-18,1
113,CDISCPILOT01,TU,01-701-1033,20,R2-NT05,TUMIDENT,Tumor Identification,NON-TARGET,NON-TARGET,,CT SCAN,INDEPENDENT ASSESSOR,RADIOLOGIST 2,,3,BASELINE,2014-03-18,1
114,CDISCPILOT01,TU,01-701-1033,21,R2-T01,TUMIDENT,Tumor Identification,TARGET,TARGET,BLADDER,CT SCAN,INDEPENDENT ASSESSOR,RADIOLOGIST 2,,3,BASELINE,2014-03-18,1
115,CDISCPILOT01,TU,01-701-1033,22,R2-T02,TUMIDENT,Tumor Identification,TARGET,TARGET,BODY,CT SCAN,INDEPENDENT ASSESSOR,RADIOLOGIST 2,,3,BASELINE,2014-03-18,1
116,CDISCPILOT01,TU,01-701-1033,23,R2-T03,TUMIDENT,Tumor Identification,TARGET,TARGET,BONE,CT SCAN,INDEPENDENT ASSESSOR,RADIOLOGIST 2,,3,BASELINE,2014-03-18,1
117,CDISCPILOT01,TU,01-701-1033,24,R2-T04,TUMIDENT,Tumor Identification,TARGET,TARGET,BREAST,CT SCAN,INDEPENDENT ASSESSOR,RADIOLOGIST 2,,3,BASELINE,2014-03-18,1
118,CDISCPILOT01,TU,01-701-1033,25,R2-T05,TUMIDENT,Tumor Identification,TARGET,TARGET,CHEST,CT SCAN,INDEPENDENT ASSESSOR,RADIOLOGIST 2,,3,BASELINE,2014-03-18,1
119,CDISCPILOT01,TU,01-701-1033,26,T01,TUMIDENT,Tumor Identification,TARGET,TARGET,ABDOMINAL CAVITY,CT SCAN,INVESTIGATOR,,,3,BASELINE,2014-03-18,1
120,CDISCPILOT01,TU,01-701-1033,27,T02,TUMIDENT,Tumor Identification,TARGET,TARGET,ADRENAL GLAND,CT SCAN,INVESTIGATOR,,,3,BASELINE,2014-03-18,1
121,CDISCPILOT01,TU,01-701-1033,28,T03,TUMIDENT,Tumor Identification,TARGET,TARGET,LYMPH NODE,CT SCAN,INVESTIGATOR,,,3,BASELINE,2014-03-18,1
122,CDISCPILOT01,TU,01-701-1033,29,T04,TUMIDENT,Tumor Identification,TARGET,TARGET,BLADDER,CT SCAN,INVESTIGATOR,,,3,BASELINE,2014-03-18,1
123,CDISCPILOT01,TU,01-701-1033,30,T05,TUMIDENT,Tumor Identification,TARGET,TARGET,BODY,CT SCAN,INVESTIGATOR,,,3,BASELINE,2014-03-18,1
124,CDISCPILOT01,TU,01-701-1034,1,NT01,TUMIDENT,Tumor Identification,NON-TARGET,NON-TARGET,,CT SCAN,INVESTIGATOR,,,3,BASELINE,2014-07-01,1
125,CDISCPILOT01,TU,01-701-1034,2,NT02,TUMIDENT,Tumor Identification,NON-TARGET,NON-TARGET,,CT SCAN,INVESTIGATOR,,,3,BASELINE,2014-07-01,1
126,CDISCPILOT01,TU,01-701-1034,3,NT03,TUMIDENT,Tumor Identification,NON-TARGET,NON-TARGET,,CT SCAN,INVESTIGATOR,,,3,BASELINE,2014-07-01,1
127,CDISCPILOT01,TU,01-701-1034,4,NT04,TUMIDENT,Tumor Identification,NON-TARGET,NON-TARGET,,CT SCAN,INVESTIGATOR,,,3,BASELINE,2014-07-01,1
128,CDISCPILOT01,TU,01-701-1034,5,NT05,TUMIDENT,Tumor Identification,NON-TARGET,NON-TARGET,,CT SCAN,INVESTIGATOR,,,3,BASELINE,2014-07-01,1
129,CDISCPILOT01,TU,01-701-1034,6,R1-NT01,TUMIDENT,Tumor Identification,NON-TARGET,NON-TARGET,,CT SCAN,INDEPENDENT ASSESSOR,RADIOLOGIST 1,Y,3,BASELINE,2014-07-01,1
130,CDISCPILOT01,TU,01-701-1034,7,R1-NT02,TUMIDENT,Tumor Identification,NON-TARGET,NON-TARGET,,CT SCAN,INDEPENDENT ASSESSOR,RADIOLOGIST 1,Y,3,BASELINE,2014-07-01,1
131,CDISCPILOT01,TU,01-701-1034,8,R1-NT03,TUMIDENT,Tumor Identification,NON-TARGET,NON-TARGET,,CT SCAN,INDEPENDENT ASSESSOR,RADIOLOGIST 1,Y,3,BASELINE,2014-07-01,1
132,CDISCPILOT01,TU,01-701-1034,9,R1-NT04,TUMIDENT,Tumor Identification,NON-TARGET,NON-TARGET,,CT SCAN,INDEPENDENT ASSESSOR,RADIOLOGIST 1,Y,3,BASELINE,2014-07-01,1
133,CDISCPILOT01,TU,01-701-1034,10,R1-NT05,TUMIDENT,Tumor Identification,NON-TARGET,NON-TARGET,,CT SCAN,INDEPENDENT ASSESSOR,RADIOLOGIST 1,Y,3,BASELINE,2014-07-01,1
134,CDISCPILOT01,TU,01-701-1034,11,R1-T01,TUMIDENT,Tumor Identification,TARGET,TARGET,ADRENAL GLAND,CT SCAN,INDEPENDENT ASSESSOR,RADIOLOGIST 1,Y,3,BASELINE,2014-07-01,1
135,CDISCPILOT01,TU,01-701-1034,12,R1-T02,TUMIDENT,Tumor Identification,TARGET,TARGET,LYMPH NODE,CT SCAN,INDEPENDENT ASSESSOR,RADIOLOGIST 1,Y,3,BASELINE,2014-07-01,1
136,CDISCPILOT01,TU,01-701-1034,13,R1-T03,TUMIDENT,Tumor Identification,TARGET,TARGET,BLADDER,CT SCAN,INDEPENDENT ASSESSOR,RADIOLOGIST 1,Y,3,BASELINE,2014-07-01,1
137,CDISCPILOT01,TU,01-701-1034,14,R1-T04,TUMIDENT,Tumor Identification,TARGET,TARGET,BODY,CT SCAN,INDEPENDENT ASSESSOR,RADIOLOGIST 1,Y,3,BASELINE,2014-07-01,1
138,CDISCPILOT01,TU,01-701-1034,15,R1-T05,TUMIDENT,Tumor Identification,TARGET,TARGET,BONE,CT SCAN,INDEPENDENT ASSESSOR,RADIOLOGIST 1,Y,3,BASELINE,2014-07-01,1
139,CDISCPILOT01,TU,01-701-1034,16,R2-NT01,TUMIDENT,Tumor Identification,NON-TARGET,NON-TARGET,,CT SCAN,INDEPENDENT ASSESSOR,RADIOLOGIST 2,,3,BASELINE,2014-07-01,1
140,CDISCPILOT01,TU,01-701-1034,17,R2-NT02,TUMIDENT,Tumor Identification,NON-TARGET,NON-TARGET,,CT SCAN,INDEPENDENT ASSESSOR,RADIOLOGIST 2,,3,BASELINE,2014-07-01,1
141,CDISCPILOT01,TU,01-701-1034,18,R2-NT03,TUMIDENT,Tumor Identification,NON-TARGET,NON-TARGET,,CT SCAN,INDEPENDENT ASSESSOR,RADIOLOGIST 2,,3,BASELINE,2014-07-01,1
142,CDISCPILOT01,TU,01-701-1034,19,R2-NT04,TUMIDENT,Tumor Identification,NON-TARGET,NON-TARGET,,CT SCAN,INDEPENDENT ASSESSOR,RADIOLOGIST 2,,3,BASELINE,2014-07-01,1
143,CDISCPILOT01,TU,01-701-1034,20,R2-NT05,TUMIDENT,Tumor Identification,NON-TARGET,NON-TARGET,,CT SCAN,INDEPENDENT ASSESSOR,RADIOLOGIST 2,,3,BASELINE,2014-07-01,1
144,CDISCPILOT01,TU,01-701-1034,21,R2-T01,TUMIDENT,Tumor Identification,TARGET,TARGET,ADRENAL GLAND,CT SCAN,INDEPENDENT ASSESSOR,RADIOLOGIST 2,,3,BASELINE,2014-07-01,1
145,CDISCPILOT01,TU,01-701-1034,22,R2-T02,TUMIDENT,Tumor Identification,TARGET,TARGET,LYMPH NODE,CT SCAN,INDEPENDENT ASSESSOR,RADIOLOGIST 2,,3,BASELINE,2014-07-01,1
146,CDISCPILOT01,TU,01-701-1034,23,R2-T03,TUMIDENT,Tumor Identification,TARGET,TARGET,BLADDER,CT SCAN,INDEPENDENT ASSESSOR,RADIOLOGIST 2,,3,BASELINE,2014-07-01,1
147,CDISCPILOT01,TU,01-701-1034,24,R2-T04,TUMIDENT,Tumor Identification,TARGET,TARGET,BODY,CT SCAN,INDEPENDENT ASSESSOR,RADIOLOGIST 2,,3,BASELINE,2014-07-01,1
148,CDISCPILOT01,TU,01-701-1034,25,R2-T05,TUMIDENT,Tumor Identification,TARGET,TARGET,BONE,CT SCAN,INDEPENDENT ASSESSOR,RADIOLOGIST 2,,3,BASELINE,2014-07-01,1
149,CDISCPILOT01,TU,01-701-1034,26,T01,TUMIDENT,Tumor Identification,TARGET,TARGET,ABDOMINAL CAVITY,CT SCAN,INVESTIGATOR,,,3,BASELINE,2014-07-01,1
150,CDISCPILOT01,TU,01-701-1034,27,T02,TUMIDENT,Tumor Identification,TARGET,TARGET,ADRENAL GLAND,CT SCAN,INVESTIGATOR,,,3,BASELINE,2014-07-01,1
151,CDISCPILOT01,TU,01-701-1034,28,T03,TUMIDENT,Tumor Identification,TARGET,TARGET,LYMPH NODE,CT SCAN,INVESTIGATOR,,,3,BASELINE,2014-07-01,1
152,CDISCPILOT01,TU,01-701-1034,29,T04,TUMIDENT,Tumor Identification,TARGET,TARGET,BLADDER,CT SCAN,INVESTIGATOR,,,3,BASELINE,2014-07-01,1
153,CDISCPILOT01,TU,01-701-1034,30,T05,TUMIDENT,Tumor Identification,TARGET,TARGET,BODY,CT SCAN,INVESTIGATOR,,,3,BASELINE,2014-07-01,1
154,CDISCPILOT01,TU,01-701-1047,1,NT01,TUMIDENT,Tumor Identification,NON-TARGET,NON-TARGET,,CT SCAN,INVESTIGATOR,,,3,BASELINE,2013-02-12,1
155,CDISCPILOT01,TU,01-701-1047,2,NT02,TUMIDENT,Tumor Identification,NON-TARGET,NON-TARGET,,CT SCAN,INVESTIGATOR,,,3,BASELINE,2013-02-12,1
156,CDISCPILOT01,TU,01-701-1047,3,NT03,TUMIDENT,Tumor Identification,NON-TARGET,NON-TARGET,,CT SCAN,INVESTIGATOR,,,3,BASELINE,2013-02-12,1
157,CDISCPILOT01,TU,01-701-1047,4,NT04,TUMIDENT,Tumor Identification,NON-TARGET,NON-TARGET,,CT SCAN,INVESTIGATOR,,,3,BASELINE,2013-02-12,1
158,CDISCPILOT01,TU,01-701-1047,5,NT05,TUMIDENT,Tumor Identification,NON-TARGET,NON-TARGET,,CT SCAN,INVESTIGATOR,,,3,BASELINE,2013-02-12,1
159,CDISCPILOT01,TU,01-701-1047,6,R1-NT01,TUMIDENT,Tumor Identification,NON-TARGET,NON-TARGET,,CT SCAN,INDEPENDENT ASSESSOR,RADIOLOGIST 1,Y,3,BASELINE,2013-02-12,1
160,CDISCPILOT01,TU,01-701-1047,7,R1-NT02,TUMIDENT,Tumor Identification,NON-TARGET,NON-TARGET,,CT SCAN,INDEPENDENT ASSESSOR,RADIOLOGIST 1,Y,3,BASELINE,2013-02-12,1
161,CDISCPILOT01,TU,01-701-1047,8,R1-NT03,TUMIDENT,Tumor Identification,NON-TARGET,NON-TARGET,,CT SCAN,INDEPENDENT ASSESSOR,RADIOLOGIST 1,Y,3,BASELINE,2013-02-12,1
162,CDISCPILOT01,TU,01-701-1047,9,R1-NT04,TUMIDENT,Tumor Identification,NON-TARGET,NON-TARGET,,CT SCAN,INDEPENDENT ASSESSOR,RADIOLOGIST 1,Y,3,BASELINE,2013-02-12,1
163,CDISCPILOT01,TU,01-701-1047,10,R1-NT05,TUMIDENT,Tumor Identification,NON-TARGET,NON-TARGET,,CT SCAN,INDEPENDENT ASSESSOR,RADIOLOGIST 1,Y,3,BASELINE,2013-02-12,1
164,CDISCPILOT01,TU,01-701-1047,11,R1-T01,TUMIDENT,Tumor Identification,TARGET,TARGET,ABDOMINAL CAVITY,CT SCAN,INDEPENDENT ASSESSOR,RADIOLOGIST 1,Y,3,BASELINE,2013-02-12,1
165,CDISCPILOT01,TU,01-701-1047,12,R1-T02,TUMIDENT,Tumor Identification,TARGET,TARGET,ADRENAL GLAND,CT SCAN,INDEPENDENT ASSESSOR,RADIOLOGIST 1,Y,3,BASELINE,2013-02-12,1
166,CDISCPILOT01,TU,01-701-1047,13,R1-T03,TUMIDENT,Tumor Identification,TARGET,TARGET,LYMPH NODE,CT SCAN,INDEPENDENT ASSESSOR,RADIOLOGIST 1,Y,3,BASELINE,2013-02-12,1
167,CDISCPILOT01,TU,01-701-1047,14,R1-T04,TUMIDENT,Tumor Identification,TARGET,TARGET,BLADDER,CT SCAN,INDEPENDENT ASSESSOR,RADIOLOGIST 1,Y,3,BASELINE,2013-02-12,1
168,CDISCPILOT01,TU,01-701-1047,15,R1-T05,TUMIDENT,Tumor Identification,TARGET,TARGET,BODY,CT SCAN,INDEPENDENT ASSESSOR,RADIOLOGIST 1,Y,3,BASELINE,2013-02-12,1
169,CDISCPILOT01,TU,01-701-1047,16,R2-NT01,TUMIDENT,Tumor Identification,NON-TARGET,NON-TARGET,,CT SCAN,INDEPENDENT ASSESSOR,RADIOLOGIST 2,,3,BASELINE,2013-02-12,1
170,CDISCPILOT01,TU,01-701-1047,17,R2-NT02,TUMIDENT,Tumor Identification,NON-TARGET,NON-TARGET,,CT SCAN,INDEPENDENT ASSESSOR,RADIOLOGIST 2,,3,BASELINE,2013-02-12,1
171,CDISCPILOT01,TU,01-701-1047,18,R2-NT03,TUMIDENT,Tumor Identification,NON-TARGET,NON-TARGET,,CT SCAN,INDEPENDENT ASSESSOR,RADIOLOGIST 2,,3,BASELINE,2013-02-12,1
172,CDISCPILOT01,TU,01-701-1047,19,R2-NT04,TUMIDENT,Tumor Identification,NON-TARGET,NON-TARGET,,CT SCAN,INDEPENDENT ASSESSOR,RADIOLOGIST 2,,3,BASELINE,2013-02-12,1
173,CDISCPILOT01,TU,01-701-1047,20,R2-NT05,TUMIDENT,Tumor Identification,NON-TARGET,NON-TARGET,,CT SCAN,INDEPENDENT ASSESSOR,RADIOLOGIST 2,,3,BASELINE,2013-02-12,1
174,CDISCPILOT01,TU,01-701-1047,21,R2-T01,TUMIDENT,Tumor Identification,TARGET,TARGET,LYMPH NODE,CT SCAN,INDEPENDENT ASSESSOR,RADIOLOGIST 2,,3,BASELINE,2013-02-12,1
175,CDISCPILOT01,TU,01-701-1047,22,R2-T02,TUMIDENT,Tumor Identification,TARGET,TARGET,BLADDER,CT SCAN,INDEPENDENT ASSESSOR,RADIOLOGIST 2,,3,BASELINE,2013-02-12,1
176,CDISCPILOT01,TU,01-701-1047,23,R2-T03,TUMIDENT,Tumor Identification,TARGET,TARGET,BODY,CT SCAN,INDEPENDENT ASSESSOR,RADIOLOGIST 2,,3,BASELINE,2013-02-12,1
177,CDISCPILOT01,TU,01-701-1047,24,R2-T04,TUMIDENT,Tumor Identification,TARGET,TARGET,BONE,CT SCAN,INDEPENDENT ASSESSOR,RADIOLOGIST 2,,3,BASELINE,2013-02-12,1
178,CDISCPILOT01,TU,01-701-1047,25,R2-T05,TUMIDENT,Tumor Identification,TARGET,TARGET,BREAST,CT SCAN,INDEPENDENT ASSESSOR,RADIOLOGIST 2,,3,BASELINE,2013-02-12,1
179,CDISCPILOT01,TU,01-701-1047,26,T01,TUMIDENT,Tumor Identification,TARGET,TARGET,LYMPH NODE,CT SCAN,INVESTIGATOR,,,3,BASELINE,2013-02-12,1
180,CDISCPILOT01,TU,01-701-1047,27,T02,TUMIDENT,Tumor Identification,TARGET,TARGET,BLADDER,CT SCAN,INVESTIGATOR,,,3,BASELINE,2013-02-12,1
181,CDISCPILOT01,TU,01-701-1047,28,T03,TUMIDENT,Tumor Identification,TARGET,TARGET,BODY,CT SCAN,INVESTIGATOR,,,3,BASELINE,2013-02-12,1
182,CDISCPILOT01,TU,01-701-1047,29,T04,TUMIDENT,Tumor Identification,TARGET,TARGET,BONE,CT SCAN,INVESTIGATOR,,,3,BASELINE,2013-02-12,1
183,CDISCPILOT01,TU,01-701-1047,30,T05,TUMIDENT,Tumor Identification,TARGET,TARGET,BREAST,CT SCAN,INVESTIGATOR,,,3,BASELINE,2013-02-12,1
184,CDISCPILOT01,TU,01-701-1097,1,NT01,TUMIDENT,Tumor Identification,NON-TARGET,NON-TARGET,,CT SCAN,INVESTIGATOR,,,3,BASELINE,2014-01-01,1
185,CDISCPILOT01,TU,01-701-1097,2,NT02,TUMIDENT,Tumor Identification,NON-TARGET,NON-TARGET,,CT SCAN,INVESTIGATOR,,,3,BASELINE,2014-01-01,1
186,CDISCPILOT01,TU,01-701-1097,3,NT03,TUMIDENT,Tumor Identification,NON-TARGET,NON-TARGET,,CT SCAN,INVESTIGATOR,,,3,BASELINE,2014-01-01,1
187,CDISCPILOT01,TU,01-701-1097,4,NT04,TUMIDENT,Tumor Identification,NON-TARGET,NON-TARGET,,CT SCAN,INVESTIGATOR,,,3,BASELINE,2014-01-01,1
188,CDISCPILOT01,TU,01-701-1097,5,NT05,TUMIDENT,Tumor Identification,NON-TARGET,NON-TARGET,,CT SCAN,INVESTIGATOR,,,3,BASELINE,2014-01-01,1
189,CDISCPILOT01,TU,01-701-1097,6,R1-NT01,TUMIDENT,Tumor Identification,NON-TARGET,NON-TARGET,,CT SCAN,INDEPENDENT ASSESSOR,RADIOLOGIST 1,Y,3,BASELINE,2014-01-01,1
190,CDISCPILOT01,TU,01-701-1097,7,R1-NT02,TUMIDENT,Tumor Identification,NON-TARGET,NON-TARGET,,CT SCAN,INDEPENDENT ASSESSOR,RADIOLOGIST 1,Y,3,BASELINE,2014-01-01,1
191,CDISCPILOT01,TU,01-701-1097,8,R1-NT03,TUMIDENT,Tumor Identification,NON-TARGET,NON-TARGET,,CT SCAN,INDEPENDENT ASSESSOR,RADIOLOGIST 1,Y,3,BASELINE,2014-01-01,1
192,CDISCPILOT01,TU,01-701-1097,9,R1-NT04,TUMIDENT,Tumor Identification,NON-TARGET,NON-TARGET,,CT SCAN,INDEPENDENT ASSESSOR,RADIOLOGIST 1,Y,3,BASELINE,2014-01-01,1
193,CDISCPILOT01,TU,01-701-1097,10,R1-NT05,TUMIDENT,Tumor Identification,NON-TARGET,NON-TARGET,,CT SCAN,INDEPENDENT ASSESSOR,RADIOLOGIST 1,Y,3,BASELINE,2014-01-01,1
194,CDISCPILOT01,TU,01-701-1097,11,R1-T01,TUMIDENT,Tumor Identification,TARGET,TARGET,BLADDER,CT SCAN,INDEPENDENT ASSESSOR,RADIOLOGIST 1,Y,3,BASELINE,2014-01-01,1
195,CDISCPILOT01,TU,01-701-1097,12,R1-T02,TUMIDENT,Tumor Identification,TARGET,TARGET,BODY,CT SCAN,INDEPENDENT ASSESSOR,RADIOLOGIST 1,Y,3,BASELINE,2014-01-01,1
196,CDISCPILOT01,TU,01-701-1097,13,R1-T03,TUMIDENT,Tumor Identification,TARGET,TARGET,BONE,CT SCAN,INDEPENDENT ASSESSOR,RADIOLOGIST 1,Y,3,BASELINE,2014-01-01,1
197,CDISCPILOT01,TU,01-701-1097,14,R1-T04,TUMIDENT,Tumor Identification,TARGET,TARGET,BREAST,CT SCAN,INDEPENDENT ASSESSOR,RADIOLOGIST 1,Y,3,BASELINE,2014-01-01,1
198,CDISCPILOT01,TU,01-701-1097,15,R1-T05,TUMIDENT,Tumor Identification,TARGET,TARGET,CHEST,CT SCAN,INDEPENDENT ASSESSOR,RADIOLOGIST 1,Y,3,BASELINE,2014-01-01,1
199,CDISCPILOT01,TU,01-701-1097,16,R2-NT01,TUMIDENT,Tumor Identification,NON-TARGET,NON-TARGET,,CT SCAN,INDEPENDENT ASSESSOR,RADIOLOGIST 2,,3,BASELINE,2014-01-01,1
200,CDISCPILOT01,TU,01-701-1097,17,R2-NT02,TUMIDENT,Tumor Identification,NON-TARGET,NON-TARGET,,CT SCAN,INDEPENDENT ASSESSOR,RADIOLOGIST 2,,3,BASELINE,2014-01-01,1
201,CDISCPILOT01,TU,01-701-1097,18,R2-NT03,TUMIDENT,Tumor Identification,NON-TARGET,NON-TARGET,,CT SCAN,INDEPENDENT ASSESSOR,RADIOLOGIST 2,,3,BASELINE,2014-01-01,1
202,CDISCPILOT01,TU,01-701-1097,19,R2-NT04,TUMIDENT,Tumor Identification,NON-TARGET,NON-TARGET,,CT SCAN,INDEPENDENT ASSESSOR,RADIOLOGIST 2,,3,BASELINE,2014-01-01,1
203,CDISCPILOT01,TU,01-701-1097,20,R2-NT05,TUMIDENT,Tumor Identification,NON-TARGET,NON-TARGET,,CT SCAN,INDEPENDENT ASSESSOR,RADIOLOGIST 2,,3,BASELINE,2014-01-01,1
204,CDISCPILOT01,TU,01-701-1097,21,R2-T01,TUMIDENT,Tumor Identification,TARGET,TARGET,BLADDER,CT SCAN,INDEPENDENT ASSESSOR,RADIOLOGIST 2,,3,BASELINE,2014-01-01,1
205,CDISCPILOT01,TU,01-701-1097,22,R2-T02,TUMIDENT,Tumor Identification,TARGET,TARGET,BODY,CT SCAN,INDEPENDENT ASSESSOR,RADIOLOGIST 2,,3,BASELINE,2014-01-01,1
206,CDISCPILOT01,TU,01-701-1097,23,R2-T03,TUMIDENT,Tumor Identification,TARGET,TARGET,BONE,CT SCAN,INDEPENDENT ASSESSOR,RADIOLOGIST 2,,3,BASELINE,2014-01-01,1
207,CDISCPILOT01,TU,01-701-1097,24,R2-T04,TUMIDENT,Tumor Identification,TARGET,TARGET,BREAST,CT SCAN,INDEPENDENT ASSESSOR,RADIOLOGIST 2,,3,BASELINE,2014-01-01,1
208,CDISCPILOT01,TU,01-701-1097,25,R2-T05,TUMIDENT,Tumor Identification,TARGET,TARGET,CHEST,CT SCAN,INDEPENDENT ASSESSOR,RADIOLOGIST 2,,3,BASELINE,2014-01-01,1
209,CDISCPILOT01,TU,01-701-1097,26,T01,TUMIDENT,Tumor Identification,TARGET,TARGET,BLADDER,CT SCAN,INVESTIGATOR,,,3,BASELINE,2014-01-01,1
210,CDISCPILOT01,TU,01-701-1097,27,T02,TUMIDENT,Tumor Identification,TARGET,TARGET,BODY,CT SCAN,INVESTIGATOR,,,3,BASELINE,2014-01-01,1
211,CDISCPILOT01,TU,01-701-1097,28,T03,TUMIDENT,Tumor Identification,TARGET,TARGET,BONE,CT SCAN,INVESTIGATOR,,,3,BASELINE,2014-01-01,1
212,CDISCPILOT01,TU,01-701-1097,29,T04,TUMIDENT,Tumor Identification,TARGET,TARGET,BREAST,CT SCAN,INVESTIGATOR,,,3,BASELINE,2014-01-01,1
213,CDISCPILOT01,TU,01-701-1097,30,T05,TUMIDENT,Tumor Identification,TARGET,TARGET,CHEST,CT SCAN,INVESTIGATOR,,,3,BASELINE,2014-01-01,1
214,CDISCPILOT01,TU,01-701-1111,1,NT01,TUMIDENT,Tumor Identification,NON-TARGET,NON-TARGET,,CT SCAN,INVESTIGATOR,,,3,BASELINE,2012-09-07,1
215,CDISCPILOT01,TU,01-701-1111,2,NT02,TUMIDENT,Tumor Identification,NON-TARGET,NON-TARGET,,CT SCAN,INVESTIGATOR,,,3,BASELINE,2012-09-07,1
216,CDISCPILOT01,TU,01-701-1111,3,NT03,TUMIDENT,Tumor Identification,NON-TARGET,NON-TARGET,,CT SCAN,INVESTIGATOR,,,3,BASELINE,2012-09-07,1
217,CDISCPILOT01,TU,01-701-1111,4,NT04,TUMIDENT,Tumor Identification,NON-TARGET,NON-TARGET,,CT SCAN,INVESTIGATOR,,,3,BASELINE,2012-09-07,1
218,CDISCPILOT01,TU,01-701-1111,5,NT05,TUMIDENT,Tumor Identification,NON-TARGET,NON-TARGET,,CT SCAN,INVESTIGATOR,,,3,BASELINE,2012-09-07,1
219,CDISCPILOT01,TU,01-701-1111,6,R1-NT01,TUMIDENT,Tumor Identification,NON-TARGET,NON-TARGET,,CT SCAN,INDEPENDENT ASSESSOR,RADIOLOGIST 1,Y,3,BASELINE,2012-09-07,1
220,CDISCPILOT01,TU,01-701-1111,7,R1-NT02,TUMIDENT,Tumor Identification,NON-TARGET,NON-TARGET,,CT SCAN,INDEPENDENT ASSESSOR,RADIOLOGIST 1,Y,3,BASELINE,2012-09-07,1
221,CDISCPILOT01,TU,01-701-1111,8,R1-NT03,TUMIDENT,Tumor Identification,NON-TARGET,NON-TARGET,,CT SCAN,INDEPENDENT ASSESSOR,RADIOLOGIST 1,Y,3,BASELINE,2012-09-07,1
222,CDISCPILOT01,TU,01-701-1111,9,R1-NT04,TUMIDENT,Tumor Identification,NON-TARGET,NON-TARGET,,CT SCAN,INDEPENDENT ASSESSOR,RADIOLOGIST 1,Y,3,BASELINE,2012-09-07,1
223,CDISCPILOT01,TU,01-701-1111,10,R1-NT05,TUMIDENT,Tumor Identification,NON-TARGET,NON-TARGET,,CT SCAN,INDEPENDENT ASSESSOR,RADIOLOGIST 1,Y,3,BASELINE,2012-09-07,1
224,CDISCPILOT01,TU,01-701-1111,11,R1-T01,TUMIDENT,Tumor Identification,TARGET,TARGET,LYMPH NODE,CT SCAN,INDEPENDENT ASSESSOR,RADIOLOGIST 1,Y,3,BASELINE,2012-09-07,1
225,CDISCPILOT01,TU,01-701-1111,12,R1-T02,TUMIDENT,Tumor Identification,TARGET,TARGET,BLADDER,CT SCAN,INDEPENDENT ASSESSOR,RADIOLOGIST 1,Y,3,BASELINE,2012-09-07,1
226,CDISCPILOT01,TU,01-701-1111,13,R1-T03,TUMIDENT,Tumor Identification,TARGET,TARGET,BODY,CT SCAN,INDEPENDENT ASSESSOR,RADIOLOGIST 1,Y,3,BASELINE,2012-09-07,1
227,CDISCPILOT01,TU,01-701-1111,14,R1-T04,TUMIDENT,Tumor Identification,TARGET,TARGET,BONE,CT SCAN,INDEPENDENT ASSESSOR,RADIOLOGIST 1,Y,3,BASELINE,2012-09-07,1
228,CDISCPILOT01,TU,01-701-1111,15,R1-T05,TUMIDENT,Tumor Identification,TARGET,TARGET,BREAST,CT SCAN,INDEPENDENT ASSESSOR,RADIOLOGIST 1,Y,3,BASELINE,2012-09-07,1
229,CDISCPILOT01,TU,01-701-1111,16,R2-NT01,TUMIDENT,Tumor Identification,NON-TARGET,NON-TARGET,,CT SCAN,INDEPENDENT ASSESSOR,RADIOLOGIST 2,,3,BASELINE,2012-09-07,1
230,CDISCPILOT01,TU,01-701-1111,17,R2-NT02,TUMIDENT,Tumor Identification,NON-TARGET,NON-TARGET,,CT SCAN,INDEPENDENT ASSESSOR,RADIOLOGIST 2,,3,BASELINE,2012-09-07,1
231,CDISCPILOT01,TU,01-701-1111,18,R2-NT03,TUMIDENT,Tumor Identification,NON-TARGET,NON-TARGET,,CT SCAN,INDEPENDENT ASSESSOR,RADIOLOGIST 2,,3,BASELINE,2012-09-07,1
232,CDISCPILOT01,TU,01-701-1111,19,R2-NT04,TUMIDENT,Tumor Identification,NON-TARGET,NON-TARGET,,CT SCAN,INDEPENDENT ASSESSOR,RADIOLOGIST 2,,3,BASELINE,2012-09-07,1
233,CDISCPILOT01,TU,01-701-1111,20,R2-NT05,TUMIDENT,Tumor Identification,NON-TARGET,NON-TARGET,,CT SCAN,INDEPENDENT ASSESSOR,RADIOLOGIST 2,,3,BASELINE,2012-09-07,1
234,CDISCPILOT01,TU,01-701-1111,21,R2-T01,TUMIDENT,Tumor Identification,TARGET,TARGET,BLADDER,CT SCAN,INDEPENDENT ASSESSOR,RADIOLOGIST 2,,3,BASELINE,2012-09-07,1
235,CDISCPILOT01,TU,01-701-1111,22,R2-T02,TUMIDENT,Tumor Identification,TARGET,TARGET,BODY,CT SCAN,INDEPENDENT ASSESSOR,RADIOLOGIST 2,,3,BASELINE,2012-09-07,1
236,CDISCPILOT01,TU,01-701-1111,23,R2-T03,TUMIDENT,Tumor Identification,TARGET,TARGET,BONE,CT SCAN,INDEPENDENT ASSESSOR,RADIOLOGIST 2,,3,BASELINE,2012-09-07,1
237,CDISCPILOT01,TU,01-701-1111,24,R2-T04,TUMIDENT,Tumor Identification,TARGET,TARGET,BREAST,CT SCAN,INDEPENDENT ASSESSOR,RADIOLOGIST 2,,3,BASELINE,2012-09-07,1
238,CDISCPILOT01,TU,01-701-1111,25,R2-T05,TUMIDENT,Tumor Identification,TARGET,TARGET,CHEST,CT SCAN,INDEPENDENT ASSESSOR,RADIOLOGIST 2,,3,BASELINE,2012-09-07,1
239,CDISCPILOT01,TU,01-701-1111,26,T01,TUMIDENT,Tumor Identification,TARGET,TARGET,LYMPH NODE,CT SCAN,INVESTIGATOR,,,3,BASELINE,2012-09-07,1
240,CDISCPILOT01,TU,01-701-1111,27,T02,TUMIDENT,Tumor Identification,TARGET,TARGET,BLADDER,CT SCAN,INVESTIGATOR,,,3,BASELINE,2012-09-07,1
241,CDISCPILOT01,TU,01-701-1111,28,T03,TUMIDENT,Tumor Identification,TARGET,TARGET,BODY,CT SCAN,INVESTIGATOR,,,3,BASELINE,2012-09-07,1
242,CDISCPILOT01,TU,01-701-1111,29,T04,TUMIDENT,Tumor Identification,TARGET,TARGET,BONE,CT SCAN,INVESTIGATOR,,,3,BASELINE,2012-09-07,1
243,CDISCPILOT01,TU,01-701-1111,30,T05,TUMIDENT,Tumor Identification,TARGET,TARGET,BREAST,CT SCAN,INVESTIGATOR,,,3,BASELINE,2012-09-07,1
244,CDISCPILOT01,TU,01-701-1115,1,NT01,TUMIDENT,Tumor Identification,NON-TARGET,NON-TARGET,,CT SCAN,INVESTIGATOR,,,3,BASELINE,2012-11-30,1
245,CDISCPILOT01,TU,01-701-1115,2,NT02,TUMIDENT,Tumor Identification,NON-TARGET,NON-TARGET,,CT SCAN,INVESTIGATOR,,,3,BASELINE,2012-11-30,1
246,CDISCPILOT01,TU,01-701-1115,3,NT03,TUMIDENT,Tumor Identification,NON-TARGET,NON-TARGET,,CT SCAN,INVESTIGATOR,,,3,BASELINE,2012-11-30,1
247,CDISCPILOT01,TU,01-701-1115,4,NT04,TUMIDENT,Tumor Identification,NON-TARGET,NON-TARGET,,CT SCAN,INVESTIGATOR,,,3,BASELINE,2012-11-30,1
248,CDISCPILOT01,TU,01-701-1115,5,NT05,TUMIDENT,Tumor Identification,NON-TARGET,NON-TARGET,,CT SCAN,INVESTIGATOR,,,3,BASELINE,2012-11-30,1
249,CDISCPILOT01,TU,01-701-1115,6,R1-NT01,TUMIDENT,Tumor Identification,NON-TARGET,NON-TARGET,,CT SCAN,INDEPENDENT ASSESSOR,RADIOLOGIST 1,Y,3,BASELINE,2012-11-30,1
250,CDISCPILOT01,TU,01-701-1115,7,R1-NT02,TUMIDENT,Tumor Identification,NON-TARGET,NON-TARGET,,CT SCAN,INDEPENDENT ASSESSOR,RADIOLOGIST 1,Y,3,BASELINE,2012-11-30,1
251,CDISCPILOT01,TU,01-701-1115,8,R1-NT03,TUMIDENT,Tumor Identification,NON-TARGET,NON-TARGET,,CT SCAN,INDEPENDENT ASSESSOR,RADIOLOGIST 1,Y,3,BASELINE,2012-11-30,1
252,CDISCPILOT01,TU,01-701-1115,9,R1-NT04,TUMIDENT,Tumor Identification,NON-TARGET,NON-TARGET,,CT SCAN,INDEPENDENT ASSESSOR,RADIOLOGIST 1,Y,3,BASELINE,2012-11-30,1
253,CDISCPILOT01,TU,01-701-1115,10,R1-NT05,TUMIDENT,Tumor Identification,NON-TARGET,NON-TARGET,,CT SCAN,INDEPENDENT ASSESSOR,RADIOLOGIST 1,Y,3,BASELINE,2012-11-30,1
254,CDISCPILOT01,TU,01-701-1115,11,R1-T01,TUMIDENT,Tumor Identification,TARGET,TARGET,ABDOMINAL CAVITY,CT SCAN,INDEPENDENT ASSESSOR,RADIOLOGIST 1,Y,3,BASELINE,2012-11-30,1
255,CDISCPILOT01,TU,01-701-1115,12,R1-T02,TUMIDENT,Tumor Identification,TARGET,TARGET,ADRENAL GLAND,CT SCAN,INDEPENDENT ASSESSOR,RADIOLOGIST 1,Y,3,BASELINE,2012-11-30,1
256,CDISCPILOT01,TU,01-701-1115,13,R1-T03,TUMIDENT,Tumor Identification,TARGET,TARGET,LYMPH NODE,CT SCAN,INDEPENDENT ASSESSOR,RADIOLOGIST 1,Y,3,BASELINE,2012-11-30,1
257,CDISCPILOT01,TU,01-701-1115,14,R1-T04,TUMIDENT,Tumor Identification,TARGET,TARGET,BLADDER,CT SCAN,INDEPENDENT ASSESSOR,RADIOLOGIST 1,Y,3,BASELINE,2012-11-30,1
258,CDISCPILOT01,TU,01-701-1115,15,R1-T05,TUMIDENT,Tumor Identification,TARGET,TARGET,BODY,CT SCAN,INDEPENDENT ASSESSOR,RADIOLOGIST 1,Y,3,BASELINE,2012-11-30,1
259,CDISCPILOT01,TU,01-701-1115,16,R2-NT01,TUMIDENT,Tumor Identification,NON-TARGET,NON-TARGET,,CT SCAN,INDEPENDENT ASSESSOR,RADIOLOGIST 2,,3,BASELINE,2012-11-30,1
260,CDISCPILOT01,TU,01-701-1115,17,R2-NT02,TUMIDENT,Tumor Identification,NON-TARGET,NON-TARGET,,CT SCAN,INDEPENDENT ASSESSOR,RADIOLOGIST 2,,3,BASELINE,2012-11-30,1
261,CDISCPILOT01,TU,01-701-1115,18,R2-NT03,TUMIDENT,Tumor Identification,NON-TARGET,NON-TARGET,,CT SCAN,INDEPENDENT ASSESSOR,RADIOLOGIST 2,,3,BASELINE,2012-11-30,1
262,CDISCPILOT01,TU,01-701-1115,19,R2-NT04,TUMIDENT,Tumor Identification,NON-TARGET,NON-TARGET,,CT SCAN,INDEPENDENT ASSESSOR,RADIOLOGIST 2,,3,BASELINE,2012-11-30,1
263,CDISCPILOT01,TU,01-701-1115,20,R2-NT05,TUMIDENT,Tumor Identification,NON-TARGET,NON-TARGET,,CT SCAN,INDEPENDENT ASSESSOR,RADIOLOGIST 2,,3,BASELINE,2012-11-30,1
264,CDISCPILOT01,TU,01-701-1115,21,R2-T01,TUMIDENT,Tumor Identification,TARGET,TARGET,ABDOMINAL CAVITY,CT SCAN,INDEPENDENT ASSESSOR,RADIOLOGIST 2,,3,BASELINE,2012-11-30,1
265,CDISCPILOT01,TU,01-701-1115,22,R2-T02,TUMIDENT,Tumor Identification,TARGET,TARGET,ADRENAL GLAND,CT SCAN,INDEPENDENT ASSESSOR,RADIOLOGIST 2,,3,BASELINE,2012-11-30,1
266,CDISCPILOT01,TU,01-701-1115,23,R2-T03,TUMIDENT,Tumor Identification,TARGET,TARGET,LYMPH NODE,CT SCAN,INDEPENDENT ASSESSOR,RADIOLOGIST 2,,3,BASELINE,2012-11-30,1
267,CDISCPILOT01,TU,01-701-1115,24,R2-T04,TUMIDENT,Tumor Identification,TARGET,TARGET,BLADDER,CT SCAN,INDEPENDENT ASSESSOR,RADIOLOGIST 2,,3,BASELINE,2012-11-30,1
268,CDISCPILOT01,TU,01-701-1115,25,R2-T05,TUMIDENT,Tumor Identification,TARGET,TARGET,BODY,CT SCAN,INDEPENDENT ASSESSOR,RADIOLOGIST 2,,3,BASELINE,2012-11-30,1
269,CDISCPILOT01,TU,01-701-1115,26,T01,TUMIDENT,Tumor Identification,TARGET,TARGET,ABDOMINAL CAVITY,CT SCAN,INVESTIGATOR,,,3,BASELINE,2012-11-30,1
270,CDISCPILOT01,TU,01-701-1115,27,T02,TUMIDENT,Tumor Identification,TARGET,TARGET,ADRENAL GLAND,CT SCAN,INVESTIGATOR,,,3,BASELINE,2012-11-30,1
271,CDISCPILOT01,TU,01-701-1115,28,T03,TUMIDENT,Tumor Identification,TARGET,TARGET,LYMPH NODE,CT SCAN,INVESTIGATOR,,,3,BASELINE,2012-11-30,1
272,CDISCPILOT01,TU,01-701-1115,29,T04,TUMIDENT,Tumor Identification,TARGET,TARGET,BLADDER,CT SCAN,INVESTIGATOR,,,3,BASELINE,2012-11-30,1
273,CDISCPILOT01,TU,01-701-1115,30,T05,TUMIDENT,Tumor Identification,TARGET,TARGET,BODY,CT SCAN,INVESTIGATOR,,,3,BASELINE,2012-11-30,1
274,CDISCPILOT01,TU,01-701-1118,1,NT01,TUMIDENT,Tumor Identification,NON-TARGET,NON-TARGET,,CT SCAN,INVESTIGATOR,,,3,BASELINE,2014-03-12,1
275,CDISCPILOT01,TU,01-701-1118,2,NT02,TUMIDENT,Tumor Identification,NON-TARGET,NON-TARGET,,CT SCAN,INVESTIGATOR,,,3,BASELINE,2014-03-12,1
276,CDISCPILOT01,TU,01-701-1118,3,NT03,TUMIDENT,Tumor Identification,NON-TARGET,NON-TARGET,,CT SCAN,INVESTIGATOR,,,3,BASELINE,2014-03-12,1
277,CDISCPILOT01,TU,01-701-1118,4,NT04,TUMIDENT,Tumor Identification,NON-TARGET,NON-TARGET,,CT SCAN,INVESTIGATOR,,,3,BASELINE,2014-03-12,1
278,CDISCPILOT01,TU,01-701-1118,5,NT05,TUMIDENT,Tumor Identification,NON-TARGET,NON-TARGET,,CT SCAN,INVESTIGATOR,,,3,BASELINE,2014-03-12,1
279,CDISCPILOT01,TU,01-701-1118,6,R1-NT01,TUMIDENT,Tumor Identification,NON-TARGET,NON-TARGET,,CT SCAN,INDEPENDENT ASSESSOR,RADIOLOGIST 1,Y,3,BASELINE,2014-03-12,1
280,CDISCPILOT01,TU,01-701-1118,7,R1-NT02,TUMIDENT,Tumor Identification,NON-TARGET,NON-TARGET,,CT SCAN,INDEPENDENT ASSESSOR,RADIOLOGIST 1,Y,3,BASELINE,2014-03-12,1
281,CDISCPILOT01,TU,01-701-1118,8,R1-NT03,TUMIDENT,Tumor Identification,NON-TARGET,NON-TARGET,,CT SCAN,INDEPENDENT ASSESSOR,RADIOLOGIST 1,Y,3,BASELINE,2014-03-12,1
282,CDISCPILOT01,TU,01-701-1118,9,R1-NT04,TUMIDENT,Tumor Identification,NON-TARGET,NON-TARGET,,CT SCAN,INDEPENDENT ASSESSOR,RADIOLOGIST 1,Y,3,BASELINE,2014-03-12,1
283,CDISCPILOT01,TU,01-701-1118,10,R1-NT05,TUMIDENT,Tumor Identification,NON-TARGET,NON-TARGET,,CT SCAN,INDEPENDENT ASSESSOR,RADIOLOGIST 1,Y,3,BASELINE,2014-03-12,1
284,CDISCPILOT01,TU,01-701-1118,11,R1-T01,TUMIDENT,Tumor Identification,TARGET,TARGET,ABDOMINAL CAVITY,CT SCAN,INDEPENDENT ASSESSOR,RADIOLOGIST 1,Y,3,BASELINE,2014-03-12,1
285,CDISCPILOT01,TU,01-701-1118,12,R1-T02,TUMIDENT,Tumor Identification,TARGET,TARGET,ADRENAL GLAND,CT SCAN,INDEPENDENT ASSESSOR,RADIOLOGIST 1,Y,3,BASELINE,2014-03-12,1
286,CDISCPILOT01,TU,01-701-1118,13,R1-T03,TUMIDENT,Tumor Identification,TARGET,TARGET,LYMPH NODE,CT SCAN,INDEPENDENT ASSESSOR,RADIOLOGIST 1,Y,3,BASELINE,2014-03-12,1
287,CDISCPILOT01,TU,01-701-1118,14,R1-T04,TUMIDENT,Tumor Identification,TARGET,TARGET,BLADDER,CT SCAN,INDEPENDENT ASSESSOR,RADIOLOGIST 1,Y,3,BASELINE,2014-03-12,1
288,CDISCPILOT01,TU,01-701-1118,15,R1-T05,TUMIDENT,Tumor Identification,TARGET,TARGET,BODY,CT SCAN,INDEPENDENT ASSESSOR,RADIOLOGIST 1,Y,3,BASELINE,2014-03-12,1
289,CDISCPILOT01,TU,01-701-1118,16,R2-NT01,TUMIDENT,Tumor Identification,NON-TARGET,NON-TARGET,,CT SCAN,INDEPENDENT ASSESSOR,RADIOLOGIST 2,,3,BASELINE,2014-03-12,1
290,CDISCPILOT01,TU,01-701-1118,17,R2-NT02,TUMIDENT,Tumor Identification,NON-TARGET,NON-TARGET,,CT SCAN,INDEPENDENT ASSESSOR,RADIOLOGIST 2,,3,BASELINE,2014-03-12,1
291,CDISCPILOT01,TU,01-701-1118,18,R2-NT03,TUMIDENT,Tumor Identification,NON-TARGET,NON-TARGET,,CT SCAN,INDEPENDENT ASSESSOR,RADIOLOGIST 2,,3,BASELINE,2014-03-12,1
292,CDISCPILOT01,TU,01-701-1118,19,R2-NT04,TUMIDENT,Tumor Identification,NON-TARGET,NON-TARGET,,CT SCAN,INDEPENDENT ASSESSOR,RADIOLOGIST 2,,3,BASELINE,2014-03-12,1
293,CDISCPILOT01,TU,01-701-1118,20,R2-NT05,TUMIDENT,Tumor Identification,NON-TARGET,NON-TARGET,,CT SCAN,INDEPENDENT ASSESSOR,RADIOLOGIST 2,,3,BASELINE,2014-03-12,1
294,CDISCPILOT01,TU,01-701-1118,21,R2-T01,TUMIDENT,Tumor Identification,TARGET,TARGET,ADRENAL GLAND,CT SCAN,INDEPENDENT ASSESSOR,RADIOLOGIST 2,,3,BASELINE,2014-03-12,1
295,CDISCPILOT01,TU,01-701-1118,22,R2-T02,TUMIDENT,Tumor Identification,TARGET,TARGET,LYMPH NODE,CT SCAN,INDEPENDENT ASSESSOR,RADIOLOGIST 2,,3,BASELINE,2014-03-12,1
296,CDISCPILOT01,TU,01-701-1118,23,R2-T03,TUMIDENT,Tumor Identification,TARGET,TARGET,BLADDER,CT SCAN,INDEPENDENT ASSESSOR,RADIOLOGIST 2,,3,BASELINE,2014-03-12,1
297,CDISCPILOT01,TU,01-701-1118,24,R2-T04,TUMIDENT,Tumor Identification,TARGET,TARGET,BODY,CT SCAN,INDEPENDENT ASSESSOR,RADIOLOGIST 2,,3,BASELINE,2014-03-12,1
298,CDISCPILOT01,TU,01-701-1118,25,R2-T05,TUMIDENT,Tumor Identification,TARGET,TARGET,BONE,CT SCAN,INDEPENDENT ASSESSOR,RADIOLOGIST 2,,3,BASELINE,2014-03-12,1
299,CDISCPILOT01,TU,01-701-1118,26,T01,TUMIDENT,Tumor Identification,TARGET,TARGET,ADRENAL GLAND,CT SCAN,INVESTIGATOR,,,3,BASELINE,2014-03-12,1
300,CDISCPILOT01,TU,01-701-1118,27,T02,TUMIDENT,Tumor Identification,TARGET,TARGET,LYMPH NODE,CT SCAN,INVESTIGATOR,,,3,BASELINE,2014-03-12,1
301,CDISCPILOT01,TU,01-701-1118,28,T03,TUMIDENT,Tumor Identification,TARGET,TARGET,BLADDER,CT SCAN,INVESTIGATOR,,,3,BASELINE,2014-03-12,1
302,CDISCPILOT01,TU,01-701-1118,29,T04,TUMIDENT,Tumor Identification,TARGET,TARGET,BODY,CT SCAN,INVESTIGATOR,,,3,BASELINE,2014-03-12,1
303,CDISCPILOT01,TU,01-701-1118,30,T05,TUMIDENT,Tumor Identification,TARGET,TARGET,BONE,CT SCAN,INVESTIGATOR,,,3,BASELINE,2014-03-12,1
304,CDISCPILOT01,TU,01-701-1130,1,NT01,TUMIDENT,Tumor Identification,NON-TARGET,NON-TARGET,,CT SCAN,INVESTIGATOR,,,3,BASELINE,2014-02-15,1
305,CDISCPILOT01,TU,01-701-1130,2,NT02,TUMIDENT,Tumor Identification,NON-TARGET,NON-TARGET,,CT SCAN,INVESTIGATOR,,,3,BASELINE,2014-02-15,1
306,CDISCPILOT01,TU,01-701-1130,3,NT03,TUMIDENT,Tumor Identification,NON-TARGET,NON-TARGET,,CT SCAN,INVESTIGATOR,,,3,BASELINE,2014-02-15,1
307,CDISCPILOT01,TU,01-701-1130,4,NT04,TUMIDENT,Tumor Identification,NON-TARGET,NON-TARGET,,CT SCAN,INVESTIGATOR,,,3,BASELINE,2014-02-15,1
308,CDISCPILOT01,TU,01-701-1130,5,NT05,TUMIDENT,Tumor Identification,NON-TARGET,NON-TARGET,,CT SCAN,INVESTIGATOR,,,3,BASELINE,2014-02-15,1
309,CDISCPILOT01,TU,01-701-1130,6,R1-NT01,TUMIDENT,Tumor Identification,NON-TARGET,NON-TARGET,,CT SCAN,INDEPENDENT ASSESSOR,RADIOLOGIST 1,Y,3,BASELINE,2014-02-15,1
310,CDISCPILOT01,TU,01-701-1130,7,R1-NT02,TUMIDENT,Tumor Identification,NON-TARGET,NON-TARGET,,CT SCAN,INDEPENDENT ASSESSOR,RADIOLOGIST 1,Y,3,BASELINE,2014-02-15,1
311,CDISCPILOT01,TU,01-701-1130,8,R1-NT03,TUMIDENT,Tumor Identification,NON-TARGET,NON-TARGET,,CT SCAN,INDEPENDENT ASSESSOR,RADIOLOGIST 1,Y,3,BASELINE,2014-02-15,1
312,CDISCPILOT01,TU,01-701-1130,9,R1-NT04,TUMIDENT,Tumor Identification,NON-TARGET,NON-TARGET,,CT SCAN,INDEPENDENT ASSESSOR,RADIOLOGIST 1,Y,3,BASELINE,2014-02-15,1
313,CDISCPILOT01,TU,01-701-1130,10,R1-NT05,TUMIDENT,Tumor Identification,NON-TARGET,NON-TARGET,,CT SCAN,INDEPENDENT ASSESSOR,RADIOLOGIST 1,Y,3,BASELINE,2014-02-15,1
314,CDISCPILOT01,TU,01-701-1130,11,R1-T01,TUMIDENT,Tumor Identification,TARGET,TARGET,LYMPH NODE,CT SCAN,INDEPENDENT ASSESSOR,RADIOLOGIST 1,Y,3,BASELINE,2014-02-15,1
315,CDISCPILOT01,TU,01-701-1130,12,R1-T02,TUMIDENT,Tumor Identification,TARGET,TARGET,BLADDER,CT SCAN,INDEPENDENT ASSESSOR,RADIOLOGIST 1,Y,3,BASELINE,2014-02-15,1
316,CDISCPILOT01,TU,01-701-1130,13,R1-T03,TUMIDENT,Tumor Identification,TARGET,TARGET,BODY,CT SCAN,INDEPENDENT ASSESSOR,RADIOLOGIST 1,Y,3,BASELINE,2014-02-15,1
317,CDISCPILOT01,TU,01-701-1130,14,R1-T04,TUMIDENT,Tumor Identification,TARGET,TARGET,BONE,CT SCAN,INDEPENDENT ASSESSOR,RADIOLOGIST 1,Y,3,BASELINE,2014-02-15,1
318,CDISCPILOT01,TU,01-701-1130,15,R1-T05,TUMIDENT,Tumor Identification,TARGET,TARGET,BREAST,CT SCAN,INDEPENDENT ASSESSOR,RADIOLOGIST 1,Y,3,BASELINE,2014-02-15,1
319,CDISCPILOT01,TU,01-701-1130,16,R2-NT01,TUMIDENT,Tumor Identification,NON-TARGET,NON-TARGET,,CT SCAN,INDEPENDENT ASSESSOR,RADIOLOGIST 2,,3,BASELINE,2014-02-15,1
320,CDISCPILOT01,TU,01-701-1130,17,R2-NT02,TUMIDENT,Tumor Identification,NON-TARGET,NON-TARGET,,CT SCAN,INDEPENDENT ASSESSOR,RADIOLOGIST 2,,3,BASELINE,2014-02-15,1
321,CDISCPILOT01,TU,01-701-1130,18,R2-NT03,TUMIDENT,Tumor Identification,NON-TARGET,NON-TARGET,,CT SCAN,INDEPENDENT ASSESSOR,RADIOLOGIST 2,,3,BASELINE,2014-02-15,1
322,CDISCPILOT01,TU,01-701-1130,19,R2-NT04,TUMIDENT,Tumor Identification,NON-TARGET,NON-TARGET,,CT SCAN,INDEPENDENT ASSESSOR,RADIOLOGIST 2,,3,BASELINE,2014-02-15,1
323,CDISCPILOT01,TU,01-701-1130,20,R2-NT05,TUMIDENT,Tumor Identification,NON-TARGET,NON-TARGET,,CT SCAN,INDEPENDENT ASSESSOR,RADIOLOGIST 2,,3,BASELINE,2014-02-15,1
324,CDISCPILOT01,TU,01-701-1130,21,R2-T01,TUMIDENT,Tumor Identification,TARGET,TARGET,LYMPH NODE,CT SCAN,INDEPENDENT ASSESSOR,RADIOLOGIST 2,,3,BASELINE,2014-02-15,1
325,CDISCPILOT01,TU,01-701-1130,22,R2-T02,TUMIDENT,Tumor Identification,TARGET,TARGET,BLADDER,CT SCAN,INDEPENDENT ASSESSOR,RADIOLOGIST 2,,3,BASELINE,2014-02-15,1
326,CDISCPILOT01,TU,01-701-1130,23,R2-T03,TUMIDENT,Tumor Identification,TARGET,TARGET,BODY,CT SCAN,INDEPENDENT ASSESSOR,RADIOLOGIST 2,,3,BASELINE,2014-02-15,1
327,CDISCPILOT01,TU,01-701-1130,24,R2-T04,TUMIDENT,Tumor Identification,TARGET,TARGET,BONE,CT SCAN,INDEPENDENT ASSESSOR,RADIOLOGIST 2,,3,BASELINE,2014-02-15,1
328,CDISCPILOT01,TU,01-701-1130,25,R2-T05,TUMIDENT,Tumor Identification,TARGET,TARGET,BREAST,CT SCAN,INDEPENDENT ASSESSOR,RADIOLOGIST 2,,3,BASELINE,2014-02-15,1
329,CDISCPILOT01,TU,01-701-1130,26,T01,TUMIDENT,Tumor Identification,TARGET,TARGET,ADRENAL GLAND,CT SCAN,INVESTIGATOR,,,3,BASELINE,2014-02-15,1
330,CDISCPILOT01,TU,01-701-1130,27,T02,TUMIDENT,Tumor Identification,TARGET,TARGET,LYMPH NODE,CT SCAN,INVESTIGATOR,,,3,BASELINE,2014-02-15,1
331,CDISCPILOT01,TU,01-701-1130,28,T03,TUMIDENT,Tumor Identification,TARGET,TARGET,BLADDER,CT SCAN,INVESTIGATOR,,,3,BASELINE,2014-02-15,1
332,CDISCPILOT01,TU,01-701-1130,29,T04,TUMIDENT,Tumor Identification,TARGET,TARGET,BODY,CT SCAN,INVESTIGATOR,,,3,BASELINE,2014-02-15,1
333,CDISCPILOT01,TU,01-701-1130,30,T05,TUMIDENT,Tumor Identification,TARGET,TARGET,BONE,CT SCAN,INVESTIGATOR,,,3,BASELINE,2014-02-15,1
334,CDISCPILOT01,TU,01-701-1133,1,NT01,TUMIDENT,Tumor Identification,NON-TARGET,NON-TARGET,,CT SCAN,INVESTIGATOR,,,3,BASELINE,2012-10-28,1
335,CDISCPILOT01,TU,01-701-1133,2,NT02,TUMIDENT,Tumor Identification,NON-TARGET,NON-TARGET,,CT SCAN,INVESTIGATOR,,,3,BASELINE,2012-10-28,1
336,CDISCPILOT01,TU,01-701-1133,3,NT03,TUMIDENT,Tumor Identification,NON-TARGET,NON-TARGET,,CT SCAN,INVESTIGATOR,,,3,BASELINE,2012-10-28,1
337,CDISCPILOT01,TU,01-701-1133,4,NT04,TUMIDENT,Tumor Identification,NON-TARGET,NON-TARGET,,CT SCAN,INVESTIGATOR,,,3,BASELINE,2012-10-28,1
338,CDISCPILOT01,TU,01-701-1133,5,NT05,TUMIDENT,Tumor Identification,NON-TARGET,NON-TARGET,,CT SCAN,INVESTIGATOR,,,3,BASELINE,2012-10-28,1
339,CDISCPILOT01,TU,01-701-1133,6,R1-NT01,TUMIDENT,Tumor Identification,NON-TARGET,NON-TARGET,,CT SCAN,INDEPENDENT ASSESSOR,RADIOLOGIST 1,Y,3,BASELINE,2012-10-28,1
340,CDISCPILOT01,TU,01-701-1133,7,R1-NT02,TUMIDENT,Tumor Identification,NON-TARGET,NON-TARGET,,CT SCAN,INDEPENDENT ASSESSOR,RADIOLOGIST 1,Y,3,BASELINE,2012-10-28,1
341,CDISCPILOT01,TU,01-701-1133,8,R1-NT03,TUMIDENT,Tumor Identification,NON-TARGET,NON-TARGET,,CT SCAN,INDEPENDENT ASSESSOR,RADIOLOGIST 1,Y,3,BASELINE,2012-10-28,1
342,CDISCPILOT01,TU,01-701-1133,9,R1-NT04,TUMIDENT,Tumor Identification,NON-TARGET,NON-TARGET,,CT SCAN,INDEPENDENT ASSESSOR,RADIOLOGIST 1,Y,3,BASELINE,2012-10-28,1
343,CDISCPILOT01,TU,01-701-1133,10,R1-NT05,TUMIDENT,Tumor Identification,NON-TARGET,NON-TARGET,,CT SCAN,INDEPENDENT ASSESSOR,RADIOLOGIST 1,Y,3,BASELINE,2012-10-28,1
344,CDISCPILOT01,TU,01-701-1133,11,R1-T01,TUMIDENT,Tumor Identification,TARGET,TARGET,LYMPH NODE,CT SCAN,INDEPENDENT ASSESSOR,RADIOLOGIST 1,Y,3,BASELINE,2012-10-28,1
345,CDISCPILOT01,TU,01-701-1133,12,R1-T02,TUMIDENT,Tumor Identification,TARGET,TARGET,BLADDER,CT SCAN,INDEPENDENT ASSESSOR,RADIOLOGIST 1,Y,3,BASELINE,2012-10-28,1
346,CDISCPILOT01,TU,01-701-1133,13,R1-T03,TUMIDENT,Tumor Identification,TARGET,TARGET,BODY,CT SCAN,INDEPENDENT ASSESSOR,RADIOLOGIST 1,Y,3,BASELINE,2012-10-28,1
347,CDISCPILOT01,TU,01-701-1133,14,R1-T04,TUMIDENT,Tumor Identification,TARGET,TARGET,BONE,CT SCAN,INDEPENDENT ASSESSOR,RADIOLOGIST 1,Y,3,BASELINE,2012-10-28,1
348,CDISCPILOT01,TU,01-701-1133,15,R1-T05,TUMIDENT,Tumor Identification,TARGET,TARGET,BREAST,CT SCAN,INDEPENDENT ASSESSOR,RADIOLOGIST 1,Y,3,BASELINE,2012-10-28,1
349,CDISCPILOT01,TU,01-701-1133,16,R2-NT01,TUMIDENT,Tumor Identification,NON-TARGET,NON-TARGET,,CT SCAN,INDEPENDENT ASSESSOR,RADIOLOGIST 2,,3,BASELINE,2012-10-28,1
350,CDISCPILOT01,TU,01-701-1133,17,R2-NT02,TUMIDENT,Tumor Identification,NON-TARGET,NON-TARGET,,CT SCAN,INDEPENDENT ASSESSOR,RADIOLOGIST 2,,3,BASELINE,2012-10-28,1
351,CDISCPILOT01,TU,01-701-1133,18,R2-NT03,TUMIDENT,Tumor Identification,NON-TARGET,NON-TARGET,,CT SCAN,INDEPENDENT ASSESSOR,RADIOLOGIST 2,,3,BASELINE,2012-10-28,1
352,CDISCPILOT01,TU,01-701-1133,19,R2-NT04,TUMIDENT,Tumor Identification,NON-TARGET,NON-TARGET,,CT SCAN,INDEPENDENT ASSESSOR,RADIOLOGIST 2,,3,BASELINE,2012-10-28,1
353,CDISCPILOT01,TU,01-701-1133,20,R2-NT05,TUMIDENT,Tumor Identification,NON-TARGET,NON-TARGET,,CT SCAN,INDEPENDENT ASSESSOR,RADIOLOGIST 2,,3,BASELINE,2012-10-28,1
354,CDISCPILOT01,TU,01-701-1133,21,R2-T01,TUMIDENT,Tumor Identification,TARGET,TARGET,ABDOMINAL CAVITY,CT SCAN,INDEPENDENT ASSESSOR,RADIOLOGIST 2,,3,BASELINE,2012-10-28,1
355,CDISCPILOT01,TU,01-701-1133,22,R2-T02,TUMIDENT,Tumor Identification,TARGET,TARGET,ADRENAL GLAND,CT SCAN,INDEPENDENT ASSESSOR,RADIOLOGIST 2,,3,BASELINE,2012-10-28,1
356,CDISCPILOT01,TU,01-701-1133,23,R2-T03,TUMIDENT,Tumor Identification,TARGET,TARGET,LYMPH NODE,CT SCAN,INDEPENDENT ASSESSOR,RADIOLOGIST 2,,3,BASELINE,2012-10-28,1
357,CDISCPILOT01,TU,01-701-1133,24,R2-T04,TUMIDENT,Tumor Identification,TARGET,TARGET,BLADDER,CT SCAN,INDEPENDENT ASSESSOR,RADIOLOGIST 2,,3,BASELINE,2012-10-28,1
358,CDISCPILOT01,TU,01-701-1133,25,R2-T05,TUMIDENT,Tumor Identification,TARGET,TARGET,BODY,CT SCAN,INDEPENDENT ASSESSOR,RADIOLOGIST 2,,3,BASELINE,2012-10-28,1
359,CDISCPILOT01,TU,01-701-1133,26,T01,TUMIDENT,Tumor Identification,TARGET,TARGET,LYMPH NODE,CT SCAN,INVESTIGATOR,,,3,BASELINE,2012-10-28,1
360,CDISCPILOT01,TU,01-701-1133,27,T02,TUMIDENT,Tumor Identification,TARGET,TARGET,BLADDER,CT SCAN,INVESTIGATOR,,,3,BASELINE,2012-10-28,1
361,CDISCPILOT01,TU,01-701-1133,28,T03,TUMIDENT,Tumor Identification,TARGET,TARGET,BODY,CT SCAN,INVESTIGATOR,,,3,BASELINE,2012-10-28,1
362,CDISCPILOT01,TU,01-701-1133,29,T04,TUMIDENT,Tumor Identification,TARGET,TARGET,BONE,CT SCAN,INVESTIGATOR,,,3,BASELINE,2012-10-28,1
363,CDISCPILOT01,TU,01-701-1133,30,T05,TUMIDENT,Tumor Identification,TARGET,TARGET,BREAST,CT SCAN,INVESTIGATOR,,,3,BASELINE,2012-10-28,1
364,CDISCPILOT01,TU,01-701-1146,1,NT01,TUMIDENT,Tumor Identification,NON-TARGET,NON-TARGET,,CT SCAN,INVESTIGATOR,,,3,BASELINE,2013-05-20,1
365,CDISCPILOT01,TU,01-701-1146,2,NT02,TUMIDENT,Tumor Identification,NON-TARGET,NON-TARGET,,CT SCAN,INVESTIGATOR,,,3,BASELINE,2013-05-20,1
366,CDISCPILOT01,TU,01-701-1146,3,NT03,TUMIDENT,Tumor Identification,NON-TARGET,NON-TARGET,,CT SCAN,INVESTIGATOR,,,3,BASELINE,2013-05-20,1
367,CDISCPILOT01,TU,01-701-1146,4,NT04,TUMIDENT,Tumor Identification,NON-TARGET,NON-TARGET,,CT SCAN,INVESTIGATOR,,,3,BASELINE,2013-05-20,1
368,CDISCPILOT01,TU,01-701-1146,5,NT05,TUMIDENT,Tumor Identification,NON-TARGET,NON-TARGET,,CT SCAN,INVESTIGATOR,,,3,BASELINE,2013-05-20,1
369,CDISCPILOT01,TU,01-701-1146,6,R1-NT01,TUMIDENT,Tumor Identification,NON-TARGET,NON-TARGET,,CT SCAN,INDEPENDENT ASSESSOR,RADIOLOGIST 1,Y,3,BASELINE,2013-05-20,1
370,CDISCPILOT01,TU,01-701-1146,7,R1-NT02,TUMIDENT,Tumor Identification,NON-TARGET,NON-TARGET,,CT SCAN,INDEPENDENT ASSESSOR,RADIOLOGIST 1,Y,3,BASELINE,2013-05-20,1
371,CDISCPILOT01,TU,01-701-1146,8,R1-NT03,TUMIDENT,Tumor Identification,NON-TARGET,NON-TARGET,,CT SCAN,INDEPENDENT ASSESSOR,RADIOLOGIST 1,Y,3,BASELINE,2013-05-20,1
372,CDISCPILOT01,TU,01-701-1146,9,R1-NT04,TUMIDENT,Tumor Identification,NON-TARGET,NON-TARGET,,CT SCAN,INDEPENDENT ASSESSOR,RADIOLOGIST 1,Y,3,BASELINE,2013-05-20,1
373,CDISCPILOT01,TU,01-701-1146,10,R1-NT05,TUMIDENT,Tumor Identification,NON-TARGET,NON-TARGET,,CT SCAN,INDEPENDENT ASSESSOR,RADIOLOGIST 1,Y,3,BASELINE,2013-05-20,1
374,CDISCPILOT01,TU,01-701-1146,11,R1-T01,TUMIDENT,Tumor Identification,TARGET,TARGET,ADRENAL GLAND,CT SCAN,INDEPENDENT ASSESSOR,RADIOLOGIST 1,Y,3,BASELINE,2013-05-20,1
375,CDISCPILOT01,TU,01-701-1146,12,R1-T02,TUMIDENT,Tumor Identification,TARGET,TARGET,LYMPH NODE,CT SCAN,INDEPENDENT ASSESSOR,RADIOLOGIST 1,Y,3,BASELINE,2013-05-20,1
376,CDISCPILOT01,TU,01-701-1146,13,R1-T03,TUMIDENT,Tumor Identification,TARGET,TARGET,BLADDER,CT SCAN,INDEPENDENT ASSESSOR,RADIOLOGIST 1,Y,3,BASELINE,2013-05-20,1
377,CDISCPILOT01,TU,01-701-1146,14,R1-T04,TUMIDENT,Tumor Identification,TARGET,TARGET,BODY,CT SCAN,INDEPENDENT ASSESSOR,RADIOLOGIST 1,Y,3,BASELINE,2013-05-20,1
378,CDISCPILOT01,TU,01-701-1146,15,R1-T05,TUMIDENT,Tumor Identification,TARGET,TARGET,BONE,CT SCAN,INDEPENDENT ASSESSOR,RADIOLOGIST 1,Y,3,BASELINE,2013-05-20,1
379,CDISCPILOT01,TU,01-701-1146,16,R2-NT01,TUMIDENT,Tumor Identification,NON-TARGET,NON-TARGET,,CT SCAN,INDEPENDENT ASSESSOR,RADIOLOGIST 2,,3,BASELINE,2013-05-20,1
380,CDISCPILOT01,TU,01-701-1146,17,R2-NT02,TUMIDENT,Tumor Identification,NON-TARGET,NON-TARGET,,CT SCAN,INDEPENDENT ASSESSOR,RADIOLOGIST 2,,3,BASELINE,2013-05-20,1
381,CDISCPILOT01,TU,01-701-1146,18,R2-NT03,TUMIDENT,Tumor Identification,NON-TARGET,NON-TARGET,,CT SCAN,INDEPENDENT ASSESSOR,RADIOLOGIST 2,,3,BASELINE,2013-05-20,1
382,CDISCPILOT01,TU,01-701-1146,19,R2-NT04,TUMIDENT,Tumor Identification,NON-TARGET,NON-TARGET,,CT SCAN,INDEPENDENT ASSESSOR,RADIOLOGIST 2,,3,BASELINE,2013-05-20,1
383,CDISCPILOT01,TU,01-701-1146,20,R2-NT05,TUMIDENT,Tumor Identification,NON-TARGET,NON-TARGET,,CT SCAN,INDEPENDENT ASSESSOR,RADIOLOGIST 2,,3,BASELINE,2013-05-20,1
384,CDISCPILOT01,TU,01-701-1146,21,R2-T01,TUMIDENT,Tumor Identification,TARGET,TARGET,BLADDER,CT SCAN,INDEPENDENT ASSESSOR,RADIOLOGIST 2,,3,BASELINE,2013-05-20,1
385,CDISCPILOT01,TU,01-701-1146,22,R2-T02,TUMIDENT,Tumor Identification,TARGET,TARGET,BODY,CT SCAN,INDEPENDENT ASSESSOR,RADIOLOGIST 2,,3,BASELINE,2013-05-20,1
386,CDISCPILOT01,TU,01-701-1146,23,R2-T03,TUMIDENT,Tumor Identification,TARGET,TARGET,BONE,CT SCAN,INDEPENDENT ASSESSOR,RADIOLOGIST 2,,3,BASELINE,2013-05-20,1
387,CDISCPILOT01,TU,01-701-1146,24,R2-T04,TUMIDENT,Tumor Identification,TARGET,TARGET,BREAST,CT SCAN,INDEPENDENT ASSESSOR,RADIOLOGIST 2,,3,BASELINE,2013-05-20,1
388,CDISCPILOT01,TU,01-701-1146,25,R2-T05,TUMIDENT,Tumor Identification,TARGET,TARGET,CHEST,CT SCAN,INDEPENDENT ASSESSOR,RADIOLOGIST 2,,3,BASELINE,2013-05-20,1
389,CDISCPILOT01,TU,01-701-1146,26,T01,TUMIDENT,Tumor Identification,TARGET,TARGET,BLADDER,CT SCAN,INVESTIGATOR,,,3,BASELINE,2013-05-20,1
390,CDISCPILOT01,TU,01-701-1146,27,T02,TUMIDENT,Tumor Identification,TARGET,TARGET,BODY,CT SCAN,INVESTIGATOR,,,3,BASELINE,2013-05-20,1
391,CDISCPILOT01,TU,01-701-1146,28,T03,TUMIDENT,Tumor Identification,TARGET,TARGET,BONE,CT SCAN,INVESTIGATOR,,,3,BASELINE,2013-05-20,1
392,CDISCPILOT01,TU,01-701-1146,29,T04,TUMIDENT,Tumor Identification,TARGET,TARGET,BREAST,CT SCAN,INVESTIGATOR,,,3,BASELINE,2013-05-20,1
393,CDISCPILOT01,TU,01-701-1146,30,T05,TUMIDENT,Tumor Identification,TARGET,TARGET,CHEST,CT SCAN,INVESTIGATOR,,,3,BASELINE,2013-05-20,1
394,CDISCPILOT01,TU,01-701-1148,1,NT01,TUMIDENT,Tumor Identification,NON-TARGET,NON-TARGET,,CT SCAN,INVESTIGATOR,,,3,BASELINE,2013-08-23,1
395,CDISCPILOT01,TU,01-701-1148,2,NT02,TUMIDENT,Tumor Identification,NON-TARGET,NON-TARGET,,CT SCAN,INVESTIGATOR,,,3,BASELINE,2013-08-23,1
396,CDISCPILOT01,TU,01-701-1148,3,NT03,TUMIDENT,Tumor Identification,NON-TARGET,NON-TARGET,,CT SCAN,INVESTIGATOR,,,3,BASELINE,2013-08-23,1
397,CDISCPILOT01,TU,01-701-1148,4,NT04,TUMIDENT,Tumor Identification,NON-TARGET,NON-TARGET,,CT SCAN,INVESTIGATOR,,,3,BASELINE,2013-08-23,1
398,CDISCPILOT01,TU,01-701-1148,5,NT05,TUMIDENT,Tumor Identification,NON-TARGET,NON-TARGET,,CT SCAN,INVESTIGATOR,,,3,BASELINE,2013-08-23,1
399,CDISCPILOT01,TU,01-701-1148,6,R1-NT01,TUMIDENT,Tumor Identification,NON-TARGET,NON-TARGET,,CT SCAN,INDEPENDENT ASSESSOR,RADIOLOGIST 1,Y,3,BASELINE,2013-08-23,1
400,CDISCPILOT01,TU,01-701-1148,7,R1-NT02,TUMIDENT,Tumor Identification,NON-TARGET,NON-TARGET,,CT SCAN,INDEPENDENT ASSESSOR,RADIOLOGIST 1,Y,3,BASELINE,2013-08-23,1
401,CDISCPILOT01,TU,01-701-1148,8,R1-NT03,TUMIDENT,Tumor Identification,NON-TARGET,NON-TARGET,,CT SCAN,INDEPENDENT ASSESSOR,RADIOLOGIST 1,Y,3,BASELINE,2013-08-23,1
402,CDISCPILOT01,TU,01-701-1148,9,R1-NT04,TUMIDENT,Tumor Identification,NON-TARGET,NON-TARGET,,CT SCAN,INDEPENDENT ASSESSOR,RADIOLOGIST 1,Y,3,BASELINE,2013-08-23,1
403,CDISCPILOT01,TU,01-701-1148,10,R1-NT05,TUMIDENT,Tumor Identification,NON-TARGET,NON-TARGET,,CT SCAN,INDEPENDENT ASSESSOR,RADIOLOGIST 1,Y,3,BASELINE,2013-08-23,1
404,CDISCPILOT01,TU,01-701-1148,11,R1-T01,TUMIDENT,Tumor Identification,TARGET,TARGET,ADRENAL GLAND,CT SCAN,INDEPENDENT ASSESSOR,RADIOLOGIST 1,Y,3,BASELINE,2013-08-23,1
405,CDISCPILOT01,TU,01-701-1148,12,R1-T02,TUMIDENT,Tumor Identification,TARGET,TARGET,LYMPH NODE,CT SCAN,INDEPENDENT ASSESSOR,RADIOLOGIST 1,Y,3,BASELINE,2013-08-23,1
406,CDISCPILOT01,TU,01-701-1148,13,R1-T03,TUMIDENT,Tumor Identification,TARGET,TARGET,BLADDER,CT SCAN,INDEPENDENT ASSESSOR,RADIOLOGIST 1,Y,3,BASELINE,2013-08-23,1
407,CDISCPILOT01,TU,01-701-1148,14,R1-T04,TUMIDENT,Tumor Identification,TARGET,TARGET,BODY,CT SCAN,INDEPENDENT ASSESSOR,RADIOLOGIST 1,Y,3,BASELINE,2013-08-23,1
408,CDISCPILOT01,TU,01-701-1148,15,R1-T05,TUMIDENT,Tumor Identification,TARGET,TARGET,BONE,CT SCAN,INDEPENDENT ASSESSOR,RADIOLOGIST 1,Y,3,BASELINE,2013-08-23,1
409,CDISCPILOT01,TU,01-701-1148,16,R2-NT01,TUMIDENT,Tumor Identification,NON-TARGET,NON-TARGET,,CT SCAN,INDEPENDENT ASSESSOR,RADIOLOGIST 2,,3,BASELINE,2013-08-23,1
410,CDISCPILOT01,TU,01-701-1148,17,R2-NT02,TUMIDENT,Tumor Identification,NON-TARGET,NON-TARGET,,CT SCAN,INDEPENDENT ASSESSOR,RADIOLOGIST 2,,3,BASELINE,2013-08-23,1
411,CDISCPILOT01,TU,01-701-1148,18,R2-NT03,TUMIDENT,Tumor Identification,NON-TARGET,NON-TARGET,,CT SCAN,INDEPENDENT ASSESSOR,RADIOLOGIST 2,,3,BASELINE,2013-08-23,1
412,CDISCPILOT01,TU,01-701-1148,19,R2-NT04,TUMIDENT,Tumor Identification,NON-TARGET,NON-TARGET,,CT SCAN,INDEPENDENT ASSESSOR,RADIOLOGIST 2,,3,BASELINE,2013-08-23,1
413,CDISCPILOT01,TU,01-701-1148,20,R2-NT05,TUMIDENT,Tumor Identification,NON-TARGET,NON-TARGET,,CT SCAN,INDEPENDENT ASSESSOR,RADIOLOGIST 2,,3,BASELINE,2013-08-23,1
414,CDISCPILOT01,TU,01-701-1148,21,R2-T01,TUMIDENT,Tumor Identification,TARGET,TARGET,LYMPH NODE,CT SCAN,INDEPENDENT ASSESSOR,RADIOLOGIST 2,,3,BASELINE,2013-08-23,1
415,CDISCPILOT01,TU,01-701-1148,22,R2-T02,TUMIDENT,Tumor Identification,TARGET,TARGET,BLADDER,CT SCAN,INDEPENDENT ASSESSOR,RADIOLOGIST 2,,3,BASELINE,2013-08-23,1
416,CDISCPILOT01,TU,01-701-1148,23,R2-T03,TUMIDENT,Tumor Identification,TARGET,TARGET,BODY,CT SCAN,INDEPENDENT ASSESSOR,RADIOLOGIST 2,,3,BASELINE,2013-08-23,1
417,CDISCPILOT01,TU,01-701-1148,24,R2-T04,TUMIDENT,Tumor Identification,TARGET,TARGET,BONE,CT SCAN,INDEPENDENT ASSESSOR,RADIOLOGIST 2,,3,BASELINE,2013-08-23,1
418,CDISCPILOT01,TU,01-701-1148,25,R2-T05,TUMIDENT,Tumor Identification,TARGET,TARGET,BREAST,CT SCAN,INDEPENDENT ASSESSOR,RADIOLOGIST 2,,3,BASELINE,2013-08-23,1
419,CDISCPILOT01,TU,01-701-1148,26,T01,TUMIDENT,Tumor Identification,TARGET,TARGET,BLADDER,CT SCAN,INVESTIGATOR,,,3,BASELINE,2013-08-23,1
420,CDISCPILOT01,TU,01-701-1148,27,T02,TUMIDENT,Tumor Identification,TARGET,TARGET,BODY,CT SCAN,INVESTIGATOR,,,3,BASELINE,2013-08-23,1
421,CDISCPILOT01,TU,01-701-1148,28,T03,TUMIDENT,Tumor Identification,TARGET,TARGET,BONE,CT SCAN,INVESTIGATOR,,,3,BASELINE,2013-08-23,1
422,CDISCPILOT01,TU,01-701-1148,29,T04,TUMIDENT,Tumor Identification,TARGET,TARGET,BREAST,CT SCAN,INVESTIGATOR,,,3,BASELINE,2013-08-23,1
423,CDISCPILOT01,TU,01-701-1148,30,T05,TUMIDENT,Tumor Identification,TARGET,TARGET,CHEST,CT SCAN,INVESTIGATOR,,,3,BASELINE,2013-08-23,1
424,CDISCPILOT01,TU,01-701-1148,31,NEW01,TUMIDENT,Tumor Identification,NEW,NEW,,CT SCAN,INVESTIGATOR,,,12,WEEK 24,2014-02-08,168
425,CDISCPILOT01,TU,01-701-1148,32,R1-NEW01,TUMIDENT,Tumor Identification,NEW,NEW,,CT SCAN,INDEPENDENT ASSESSOR,RADIOLOGIST 1,Y,12,WEEK 24,2014-02-08,168
426,CDISCPILOT01,TU,01-701-1148,33,R2-NEW01,TUMIDENT,Tumor Identification,NEW,NEW,,CT SCAN,INDEPENDENT ASSESSOR,RADIOLOGIST 2,,12,WEEK 24,2014-02-08,168
427,CDISCPILOT01,TU,01-701-1153,1,NT01,TUMIDENT,Tumor Identification,NON-TARGET,NON-TARGET,,CT SCAN,INVESTIGATOR,,,3,BASELINE,2013-09-23,1
428,CDISCPILOT01,TU,01-701-1153,2,NT02,TUMIDENT,Tumor Identification,NON-TARGET,NON-TARGET,,CT SCAN,INVESTIGATOR,,,3,BASELINE,2013-09-23,1
429,CDISCPILOT01,TU,01-701-1153,3,NT03,TUMIDENT,Tumor Identification,NON-TARGET,NON-TARGET,,CT SCAN,INVESTIGATOR,,,3,BASELINE,2013-09-23,1
430,CDISCPILOT01,TU,01-701-1153,4,NT04,TUMIDENT,Tumor Identification,NON-TARGET,NON-TARGET,,CT SCAN,INVESTIGATOR,,,3,BASELINE,2013-09-23,1
431,CDISCPILOT01,TU,01-701-1153,5,NT05,TUMIDENT,Tumor Identification,NON-TARGET,NON-TARGET,,CT SCAN,INVESTIGATOR,,,3,BASELINE,2013-09-23,1
432,CDISCPILOT01,TU,01-701-1153,6,R1-NT01,TUMIDENT,Tumor Identification,NON-TARGET,NON-TARGET,,CT SCAN,INDEPENDENT ASSESSOR,RADIOLOGIST 1,Y,3,BASELINE,2013-09-23,1
433,CDISCPILOT01,TU,01-701-1153,7,R1-NT02,TUMIDENT,Tumor Identification,NON-TARGET,NON-TARGET,,CT SCAN,INDEPENDENT ASSESSOR,RADIOLOGIST 1,Y,3,BASELINE,2013-09-23,1
434,CDISCPILOT01,TU,01-701-1153,8,R1-NT03,TUMIDENT,Tumor Identification,NON-TARGET,NON-TARGET,,CT SCAN,INDEPENDENT ASSESSOR,RADIOLOGIST 1,Y,3,BASELINE,2013-09-23,1
435,CDISCPILOT01,TU,01-701-1153,9,R1-NT04,TUMIDENT,Tumor Identification,NON-TARGET,NON-TARGET,,CT SCAN,INDEPENDENT ASSESSOR,RADIOLOGIST 1,Y,3,BASELINE,2013-09-23,1
436,CDISCPILOT01,TU,01-701-1153,10,R1-NT05,TUMIDENT,Tumor Identification,NON-TARGET,NON-TARGET,,CT SCAN,INDEPENDENT ASSESSOR,RADIOLOGIST 1,Y,3,BASELINE,2013-09-23,1
437,CDISCPILOT01,TU,01-701-1153,11,R1-T01,TUMIDENT,Tumor Identification,TARGET,TARGET,LYMPH NODE,CT SCAN,INDEPENDENT ASSESSOR,RADIOLOGIST 1,Y,3,BASELINE,2013-09-23,1
438,CDISCPILOT01,TU,01-701-1153,12,R1-T02,TUMIDENT,Tumor Identification,TARGET,TARGET,BLADDER,CT SCAN,INDEPENDENT ASSESSOR,RADIOLOGIST 1,Y,3,BASELINE,2013-09-23,1
439,CDISCPILOT01,TU,01-701-1153,13,R1-T03,TUMIDENT,Tumor Identification,TARGET,TARGET,BODY,CT SCAN,INDEPENDENT ASSESSOR,RADIOLOGIST 1,Y,3,BASELINE,2013-09-23,1
440,CDISCPILOT01,TU,01-701-1153,14,R1-T04,TUMIDENT,Tumor Identification,TARGET,TARGET,BONE,CT SCAN,INDEPENDENT ASSESSOR,RADIOLOGIST 1,Y,3,BASELINE,2013-09-23,1
441,CDISCPILOT01,TU,01-701-1153,15,R1-T05,TUMIDENT,Tumor Identification,TARGET,TARGET,BREAST,CT SCAN,INDEPENDENT ASSESSOR,RADIOLOGIST 1,Y,3,BASELINE,2013-09-23,1
442,CDISCPILOT01,TU,01-701-1153,16,R2-NT01,TUMIDENT,Tumor Identification,NON-TARGET,NON-TARGET,,CT SCAN,INDEPENDENT ASSESSOR,RADIOLOGIST 2,,3,BASELINE,2013-09-23,1
443,CDISCPILOT01,TU,01-701-1153,17,R2-NT02,TUMIDENT,Tumor Identification,NON-TARGET,NON-TARGET,,CT SCAN,INDEPENDENT ASSESSOR,RADIOLOGIST 2,,3,BASELINE,2013-09-23,1
444,CDISCPILOT01,TU,01-701-1153,18,R2-NT03,TUMIDENT,Tumor Identification,NON-TARGET,NON-TARGET,,CT SCAN,INDEPENDENT ASSESSOR,RADIOLOGIST 2,,3,BASELINE,2013-09-23,1
445,CDISCPILOT01,TU,01-701-1153,19,R2-NT04,TUMIDENT,Tumor Identification,NON-TARGET,NON-TARGET,,CT SCAN,INDEPENDENT ASSESSOR,RADIOLOGIST 2,,3,BASELINE,2013-09-23,1
446,CDISCPILOT01,TU,01-701-1153,20,R2-NT05,TUMIDENT,Tumor Identification,NON-TARGET,NON-TARGET,,CT SCAN,INDEPENDENT ASSESSOR,RADIOLOGIST 2,,3,BASELINE,2013-09-23,1
447,CDISCPILOT01,TU,01-701-1153,21,R2-T01,TUMIDENT,Tumor Identification,TARGET,TARGET,ABDOMINAL CAVITY,CT SCAN,INDEPENDENT ASSESSOR,RADIOLOGIST 2,,3,BASELINE,2013-09-23,1
448,CDISCPILOT01,TU,01-701-1153,22,R2-T02,TUMIDENT,Tumor Identification,TARGET,TARGET,ADRENAL GLAND,CT SCAN,INDEPENDENT ASSESSOR,RADIOLOGIST 2,,3,BASELINE,2013-09-23,1
449,CDISCPILOT01,TU,01-701-1153,23,R2-T03,TUMIDENT,Tumor Identification,TARGET,TARGET,LYMPH NODE,CT SCAN,INDEPENDENT ASSESSOR,RADIOLOGIST 2,,3,BASELINE,2013-09-23,1
450,CDISCPILOT01,TU,01-701-1153,24,R2-T04,TUMIDENT,Tumor Identification,TARGET,TARGET,BLADDER,CT SCAN,INDEPENDENT ASSESSOR,RADIOLOGIST 2,,3,BASELINE,2013-09-23,1
451,CDISCPILOT01,TU,01-701-1153,25,R2-T05,TUMIDENT,Tumor Identification,TARGET,TARGET,BODY,CT SCAN,INDEPENDENT ASSESSOR,RADIOLOGIST 2,,3,BASELINE,2013-09-23,1
452,CDISCPILOT01,TU,01-701-1153,26,T01,TUMIDENT,Tumor Identification,TARGET,TARGET,ADRENAL GLAND,CT SCAN,INVESTIGATOR,,,3,BASELINE,2013-09-23,1
453,CDISCPILOT01,TU,01-701-1153,27,T02,TUMIDENT,Tumor Identification,TARGET,TARGET,LYMPH NODE,CT SCAN,INVESTIGATOR,,,3,BASELINE,2013-09-23,1
454,CDISCPILOT01,TU,01-701-1153,28,T03,TUMIDENT,Tumor Identification,TARGET,TARGET,BLADDER,CT SCAN,INVESTIGATOR,,,3,BASELINE,2013-09-23,1
455,CDISCPILOT01,TU,01-701-1153,29,T04,TUMIDENT,Tumor Identification,TARGET,TARGET,BODY,CT SCAN,INVESTIGATOR,,,3,BASELINE,2013-09-23,1
456,CDISCPILOT01,TU,01-701-1153,30,T05,TUMIDENT,Tumor Identification,TARGET,TARGET,BONE,CT SCAN,INVESTIGATOR,,,3,BASELINE,2013-09-23,1
457,CDISCPILOT01,TU,01-701-1180,1,NT01,TUMIDENT,Tumor Identification,NON-TARGET,NON-TARGET,,CT SCAN,INVESTIGATOR,,,3,BASELINE,2013-02-12,1
458,CDISCPILOT01,TU,01-701-1180,2,NT02,TUMIDENT,Tumor Identification,NON-TARGET,NON-TARGET,,CT SCAN,INVESTIGATOR,,,3,BASELINE,2013-02-12,1
459,CDISCPILOT01,TU,01-701-1180,3,NT03,TUMIDENT,Tumor Identification,NON-TARGET,NON-TARGET,,CT SCAN,INVESTIGATOR,,,3,BASELINE,2013-02-12,1
460,CDISCPILOT01,TU,01-701-1180,4,NT04,TUMIDENT,Tumor Identification,NON-TARGET,NON-TARGET,,CT SCAN,INVESTIGATOR,,,3,BASELINE,2013-02-12,1
461,CDISCPILOT01,TU,01-701-1180,5,NT05,TUMIDENT,Tumor Identification,NON-TARGET,NON-TARGET,,CT SCAN,INVESTIGATOR,,,3,BASELINE,2013-02-12,1
462,CDISCPILOT01,TU,01-701-1180,6,R1-NT01,TUMIDENT,Tumor Identification,NON-TARGET,NON-TARGET,,CT SCAN,INDEPENDENT ASSESSOR,RADIOLOGIST 1,Y,3,BASELINE,2013-02-12,1
463,CDISCPILOT01,TU,01-701-1180,7,R1-NT02,TUMIDENT,Tumor Identification,NON-TARGET,NON-TARGET,,CT SCAN,INDEPENDENT ASSESSOR,RADIOLOGIST 1,Y,3,BASELINE,2013-02-12,1
464,CDISCPILOT01,TU,01-701-1180,8,R1-NT03,TUMIDENT,Tumor Identification,NON-TARGET,NON-TARGET,,CT SCAN,INDEPENDENT ASSESSOR,RADIOLOGIST 1,Y,3,BASELINE,2013-02-12,1
465,CDISCPILOT01,TU,01-701-1180,9,R1-NT04,TUMIDENT,Tumor Identification,NON-TARGET,NON-TARGET,,CT SCAN,INDEPENDENT ASSESSOR,RADIOLOGIST 1,Y,3,BASELINE,2013-02-12,1
466,CDISCPILOT01,TU,01-701-1180,10,R1-NT05,TUMIDENT,Tumor Identification,NON-TARGET,NON-TARGET,,CT SCAN,INDEPENDENT ASSESSOR,RADIOLOGIST 1,Y,3,BASELINE,2013-02-12,1
467,CDISCPILOT01,TU,01-701-1180,11,R1-T01,TUMIDENT,Tumor Identification,TARGET,TARGET,BLADDER,CT SCAN,INDEPENDENT ASSESSOR,RADIOLOGIST 1,Y,3,BASELINE,2013-02-12,1
468,CDISCPILOT01,TU,01-701-1180,12,R1-T02,TUMIDENT,Tumor Identification,TARGET,TARGET,BODY,CT SCAN,INDEPENDENT ASSESSOR,RADIOLOGIST 1,Y,3,BASELINE,2013-02-12,1
469,CDISCPILOT01,TU,01-701-1180,13,R1-T03,TUMIDENT,Tumor Identification,TARGET,TARGET,BONE,CT SCAN,INDEPENDENT ASSESSOR,RADIOLOGIST 1,Y,3,BASELINE,2013-02-12,1
470,CDISCPILOT01,TU,01-701-1180,14,R1-T04,TUMIDENT,Tumor Identification,TARGET,TARGET,BREAST,CT SCAN,INDEPENDENT ASSESSOR,RADIOLOGIST 1,Y,3,BASELINE,2013-02-12,1
471,CDISCPILOT01,TU,01-701-1180,15,R1-T05,TUMIDENT,Tumor Identification,TARGET,TARGET,CHEST,CT SCAN,INDEPENDENT ASSESSOR,RADIOLOGIST 1,Y,3,BASELINE,2013-02-12,1
472,CDISCPILOT01,TU,01-701-1180,16,R2-NT01,TUMIDENT,Tumor Identification,NON-TARGET,NON-TARGET,,CT SCAN,INDEPENDENT ASSESSOR,RADIOLOGIST 2,,3,BASELINE,2013-02-12,1
473,CDISCPILOT01,TU,01-701-1180,17,R2-NT02,TUMIDENT,Tumor Identification,NON-TARGET,NON-TARGET,,CT SCAN,INDEPENDENT ASSESSOR,RADIOLOGIST 2,,3,BASELINE,2013-02-12,1
474,CDISCPILOT01,TU,01-701-1180,18,R2-NT03,TUMIDENT,Tumor Identification,NON-TARGET,NON-TARGET,,CT SCAN,INDEPENDENT ASSESSOR,RADIOLOGIST 2,,3,BASELINE,2013-02-12,1
475,CDISCPILOT01,TU,01-701-1180,19,R2-NT04,TUMIDENT,Tumor Identification,NON-TARGET,NON-TARGET,,CT SCAN,INDEPENDENT ASSESSOR,RADIOLOGIST 2,,3,BASELINE,2013-02-12,1
476,CDISCPILOT01,TU,01-701-1180,20,R2-NT05,TUMIDENT,Tumor Identification,NON-TARGET,NON-TARGET,,CT SCAN,INDEPENDENT ASSESSOR,RADIOLOGIST 2,,3,BASELINE,2013-02-12,1
477,CDISCPILOT01,TU,01-701-1180,21,R2-T01,TUMIDENT,Tumor Identification,TARGET,TARGET,ADRENAL GLAND,CT SCAN,INDEPENDENT ASSESSOR,RADIOLOGIST 2,,3,BASELINE,2013-02-12,1
478,CDISCPILOT01,TU,01-701-1180,22,R2-T02,TUMIDENT,Tumor Identification,TARGET,TARGET,LYMPH NODE,CT SCAN,INDEPENDENT ASSESSOR,RADIOLOGIST 2,,3,BASELINE,2013-02-12,1
479,CDISCPILOT01,TU,01-701-1180,23,R2-T03,TUMIDENT,Tumor Identification,TARGET,TARGET,BLADDER,CT SCAN,INDEPENDENT ASSESSOR,RADIOLOGIST 2,,3,BASELINE,2013-02-12,1
480,CDISCPILOT01,TU,01-701-1180,24,R2-T04,TUMIDENT,Tumor Identification,TARGET,TARGET,BODY,CT SCAN,INDEPENDENT ASSESSOR,RADIOLOGIST 2,,3,BASELINE,2013-02-12,1
481,CDISCPILOT01,TU,01-701-1180,25,R2-T05,TUMIDENT,Tumor Identification,TARGET,TARGET,BONE,CT SCAN,INDEPENDENT ASSESSOR,RADIOLOGIST 2,,3,BASELINE,2013-02-12,1
482,CDISCPILOT01,TU,01-701-1180,26,T01,TUMIDENT,Tumor Identification,TARGET,TARGET,ABDOMINAL CAVITY,CT SCAN,INVESTIGATOR,,,3,BASELINE,2013-02-12,1
483,CDISCPILOT01,TU,01-701-1180,27,T02,TUMIDENT,Tumor Identification,TARGET,TARGET,ADRENAL GLAND,CT SCAN,INVESTIGATOR,,,3,BASELINE,2013-02-12,1
484,CDISCPILOT01,TU,01-701-1180,28,T03,TUMIDENT,Tumor Identification,TARGET,TARGET,LYMPH NODE,CT SCAN,INVESTIGATOR,,,3,BASELINE,2013-02-12,1
485,CDISCPILOT01,TU,01-701-1180,29,T04,TUMIDENT,Tumor Identification,TARGET,TARGET,BLADDER,CT SCAN,INVESTIGATOR,,,3,BASELINE,2013-02-12,1
486,CDISCPILOT01,TU,01-701-1180,30,T05,TUMIDENT,Tumor Identification,TARGET,TARGET,BODY,CT SCAN,INVESTIGATOR,,,3,BASELINE,2013-02-12,1
487,CDISCPILOT01,TU,01-701-1181,1,NT01,TUMIDENT,Tumor Identification,NON-TARGET,NON-TARGET,,CT SCAN,INVESTIGATOR,,,3,BASELINE,2013-12-05,1
488,CDISCPILOT01,TU,01-701-1181,2,NT02,TUMIDENT,Tumor Identification,NON-TARGET,NON-TARGET,,CT SCAN,INVESTIGATOR,,,3,BASELINE,2013-12-05,1
489,CDISCPILOT01,TU,01-701-1181,3,NT03,TUMIDENT,Tumor Identification,NON-TARGET,NON-TARGET,,CT SCAN,INVESTIGATOR,,,3,BASELINE,2013-12-05,1
490,CDISCPILOT01,TU,01-701-1181,4,NT04,TUMIDENT,Tumor Identification,NON-TARGET,NON-TARGET,,CT SCAN,INVESTIGATOR,,,3,BASELINE,2013-12-05,1
491,CDISCPILOT01,TU,01-701-1181,5,NT05,TUMIDENT,Tumor Identification,NON-TARGET,NON-TARGET,,CT SCAN,INVESTIGATOR,,,3,BASELINE,2013-12-05,1
492,CDISCPILOT01,TU,01-701-1181,6,R1-NT01,TUMIDENT,Tumor Identification,NON-TARGET,NON-TARGET,,CT SCAN,INDEPENDENT ASSESSOR,RADIOLOGIST 1,Y,3,BASELINE,2013-12-05,1
493,CDISCPILOT01,TU,01-701-1181,7,R1-NT02,TUMIDENT,Tumor Identification,NON-TARGET,NON-TARGET,,CT SCAN,INDEPENDENT ASSESSOR,RADIOLOGIST 1,Y,3,BASELINE,2013-12-05,1
494,CDISCPILOT01,TU,01-701-1181,8,R1-NT03,TUMIDENT,Tumor Identification,NON-TARGET,NON-TARGET,,CT SCAN,INDEPENDENT ASSESSOR,RADIOLOGIST 1,Y,3,BASELINE,2013-12-05,1
495,CDISCPILOT01,TU,01-701-1181,9,R1-NT04,TUMIDENT,Tumor Identification,NON-TARGET,NON-TARGET,,CT SCAN,INDEPENDENT ASSESSOR,RADIOLOGIST 1,Y,3,BASELINE,2013-12-05,1
496,CDISCPILOT01,TU,01-701-1181,10,R1-NT05,TUMIDENT,Tumor Identification,NON-TARGET,NON-TARGET,,CT SCAN,INDEPENDENT ASSESSOR,RADIOLOGIST 1,Y,3,BASELINE,2013-12-05,1
497,CDISCPILOT01,TU,01-701-1181,11,R1-T01,TUMIDENT,Tumor Identification,TARGET,TARGET,ABDOMINAL CAVITY,CT SCAN,INDEPENDENT ASSESSOR,RADIOLOGIST 1,Y,3,BASELINE,2013-12-05,1
498,CDISCPILOT01,TU,01-701-1181,12,R1-T02,TUMIDENT,Tumor Identification,TARGET,TARGET,ADRENAL GLAND,CT SCAN,INDEPENDENT ASSESSOR,RADIOLOGIST 1,Y,3,BASELINE,2013-12-05,1
499,CDISCPILOT01,TU,01-701-1181,13,R1-T03,TUMIDENT,Tumor Identification,TARGET,TARGET,LYMPH NODE,CT SCAN,INDEPENDENT ASSESSOR,RADIOLOGIST 1,Y,3,BASELINE,2013-12-05,1
500,CDISCPILOT01,TU,01-701-1181,14,R1-T04,TUMIDENT,Tumor Identification,TARGET,TARGET,BLADDER,CT SCAN,INDEPENDENT ASSESSOR,RADIOLOGIST 1,Y,3,BASELINE,2013-12-05,1
501,CDISCPILOT01,TU,01-701-1181,15,R1-T05,TUMIDENT,Tumor Identification,TARGET,TARGET,BODY,CT SCAN,INDEPENDENT ASSESSOR,RADIOLOGIST 1,Y,3,BASELINE,2013-12-05,1
502,CDISCPILOT01,TU,01-701-1181,16,R2-NT01,TUMIDENT,Tumor Identification,NON-TARGET,NON-TARGET,,CT SCAN,INDEPENDENT ASSESSOR,RADIOLOGIST 2,,3,BASELINE,2013-12-05,1
503,CDISCPILOT01,TU,01-701-1181,17,R2-NT02,TUMIDENT,Tumor Identification,NON-TARGET,NON-TARGET,,CT SCAN,INDEPENDENT ASSESSOR,RADIOLOGIST 2,,3,BASELINE,2013-12-05,1
504,CDISCPILOT01,TU,01-701-1181,18,R2-NT03,TUMIDENT,Tumor Identification,NON-TARGET,NON-TARGET,,CT SCAN,INDEPENDENT ASSESSOR,RADIOLOGIST 2,,3,BASELINE,2013-12-05,1
505,CDISCPILOT01,TU,01-701-1181,19,R2-NT04,TUMIDENT,Tumor Identification,NON-TARGET,NON-TARGET,,CT SCAN,INDEPENDENT ASSESSOR,RADIOLOGIST 2,,3,BASELINE,2013-12-05,1
506,CDISCPILOT01,TU,01-701-1181,20,R2-NT05,TUMIDENT,Tumor Identification,NON-TARGET,NON-TARGET,,CT SCAN,INDEPENDENT ASSESSOR,RADIOLOGIST 2,,3,BASELINE,2013-12-05,1
507,CDISCPILOT01,TU,01-701-1181,21,R2-T01,TUMIDENT,Tumor Identification,TARGET,TARGET,LYMPH NODE,CT SCAN,INDEPENDENT ASSESSOR,RADIOLOGIST 2,,3,BASELINE,2013-12-05,1
508,CDISCPILOT01,TU,01-701-1181,22,R2-T02,TUMIDENT,Tumor Identification,TARGET,TARGET,BLADDER,CT SCAN,INDEPENDENT ASSESSOR,RADIOLOGIST 2,,3,BASELINE,2013-12-05,1
509,CDISCPILOT01,TU,01-701-1181,23,R2-T03,TUMIDENT,Tumor Identification,TARGET,TARGET,BODY,CT SCAN,INDEPENDENT ASSESSOR,RADIOLOGIST 2,,3,BASELINE,2013-12-05,1
510,CDISCPILOT01,TU,01-701-1181,24,R2-T04,TUMIDENT,Tumor Identification,TARGET,TARGET,BONE,CT SCAN,INDEPENDENT ASSESSOR,RADIOLOGIST 2,,3,BASELINE,2013-12-05,1
511,CDISCPILOT01,TU,01-701-1181,25,R2-T05,TUMIDENT,Tumor Identification,TARGET,TARGET,BREAST,CT SCAN,INDEPENDENT ASSESSOR,RADIOLOGIST 2,,3,BASELINE,2013-12-05,1
512,CDISCPILOT01,TU,01-701-1181,26,T01,TUMIDENT,Tumor Identification,TARGET,TARGET,ABDOMINAL CAVITY,CT SCAN,INVESTIGATOR,,,3,BASELINE,2013-12-05,1
513,CDISCPILOT01,TU,01-701-1181,27,T02,TUMIDENT,Tumor Identification,TARGET,TARGET,ADRENAL GLAND,CT SCAN,INVESTIGATOR,,,3,BASELINE,2013-12-05,1
514,CDISCPILOT01,TU,01-701-1181,28,T03,TUMIDENT,Tumor Identification,TARGET,TARGET,LYMPH NODE,CT SCAN,INVESTIGATOR,,,3,BASELINE,2013-12-05,1
515,CDISCPILOT01,TU,01-701-1181,29,T04,TUMIDENT,Tumor Identification,TARGET,TARGET,BLADDER,CT SCAN,INVESTIGATOR,,,3,BASELINE,2013-12-05,1
516,CDISCPILOT01,TU,01-701-1181,30,T05,TUMIDENT,Tumor Identification,TARGET,TARGET,BODY,CT SCAN,INVESTIGATOR,,,3,BASELINE,2013-12-05,1
517,CDISCPILOT01,TU,01-701-1188,1,NT01,TUMIDENT,Tumor Identification,NON-TARGET,NON-TARGET,,CT SCAN,INVESTIGATOR,,,3,BASELINE,2013-02-15,1
518,CDISCPILOT01,TU,01-701-1188,2,NT02,TUMIDENT,Tumor Identification,NON-TARGET,NON-TARGET,,CT SCAN,INVESTIGATOR,,,3,BASELINE,2013-02-15,1
519,CDISCPILOT01,TU,01-701-1188,3,NT03,TUMIDENT,Tumor Identification,NON-TARGET,NON-TARGET,,CT SCAN,INVESTIGATOR,,,3,BASELINE,2013-02-15,1
520,CDISCPILOT01,TU,01-701-1188,4,NT04,TUMIDENT,Tumor Identification,NON-TARGET,NON-TARGET,,CT SCAN,INVESTIGATOR,,,3,BASELINE,2013-02-15,1
521,CDISCPILOT01,TU,01-701-1188,5,NT05,TUMIDENT,Tumor Identification,NON-TARGET,NON-TARGET,,CT SCAN,INVESTIGATOR,,,3,BASELINE,2013-02-15,1
522,CDISCPILOT01,TU,01-701-1188,6,R1-NT01,TUMIDENT,Tumor Identification,NON-TARGET,NON-TARGET,,CT SCAN,INDEPENDENT ASSESSOR,RADIOLOGIST 1,Y,3,BASELINE,2013-02-15,1
523,CDISCPILOT01,TU,01-701-1188,7,R1-NT02,TUMIDENT,Tumor Identification,NON-TARGET,NON-TARGET,,CT SCAN,INDEPENDENT ASSESSOR,RADIOLOGIST 1,Y,3,BASELINE,2013-02-15,1
524,CDISCPILOT01,TU,01-701-1188,8,R1-NT03,TUMIDENT,Tumor Identification,NON-TARGET,NON-TARGET,,CT SCAN,INDEPENDENT ASSESSOR,RADIOLOGIST 1,Y,3,BASELINE,2013-02-15,1
525,CDISCPILOT01,TU,01-701-1188,9,R1-NT04,TUMIDENT,Tumor Identification,NON-TARGET,NON-TARGET,,CT SCAN,INDEPENDENT ASSESSOR,RADIOLOGIST 1,Y,3,BASELINE,2013-02-15,1
526,CDISCPILOT01,TU,01-701-1188,10,R1-NT05,TUMIDENT,Tumor Identification,NON-TARGET,NON-TARGET,,CT SCAN,INDEPENDENT ASSESSOR,RADIOLOGIST 1,Y,3,BASELINE,2013-02-15,1
527,CDISCPILOT01,TU,01-701-1188,11,R1-T01,TUMIDENT,Tumor Identification,TARGET,TARGET,ABDOMINAL CAVITY,CT SCAN,INDEPENDENT ASSESSOR,RADIOLOGIST 1,Y,3,BASELINE,2013-02-15,1
528,CDISCPILOT01,TU,01-701-1188,12,R1-T02,TUMIDENT,Tumor Identification,TARGET,TARGET,ADRENAL GLAND,CT SCAN,INDEPENDENT ASSESSOR,RADIOLOGIST 1,Y,3,BASELINE,2013-02-15,1
529,CDISCPILOT01,TU,01-701-1188,13,R1-T03,TUMIDENT,Tumor Identification,TARGET,TARGET,LYMPH NODE,CT SCAN,INDEPENDENT ASSESSOR,RADIOLOGIST 1,Y,3,BASELINE,2013-02-15,1
530,CDISCPILOT01,TU,01-701-1188,14,R1-T04,TUMIDENT,Tumor Identification,TARGET,TARGET,BLADDER,CT SCAN,INDEPENDENT ASSESSOR,RADIOLOGIST 1,Y,3,BASELINE,2013-02-15,1
531,CDISCPILOT01,TU,01-701-1188,15,R1-T05,TUMIDENT,Tumor Identification,TARGET,TARGET,BODY,CT SCAN,INDEPENDENT ASSESSOR,RADIOLOGIST 1,Y,3,BASELINE,2013-02-15,1
532,CDISCPILOT01,TU,01-701-1188,16,R2-NT01,TUMIDENT,Tumor Identification,NON-TARGET,NON-TARGET,,CT SCAN,INDEPENDENT ASSESSOR,RADIOLOGIST 2,,3,BASELINE,2013-02-15,1
533,CDISCPILOT01,TU,01-701-1188,17,R2-NT02,TUMIDENT,Tumor Identification,NON-TARGET,NON-TARGET,,CT SCAN,INDEPENDENT ASSESSOR,RADIOLOGIST 2,,3,BASELINE,2013-02-15,1
534,CDISCPILOT01,TU,01-701-1188,18,R2-NT03,TUMIDENT,Tumor Identification,NON-TARGET,NON-TARGET,,CT SCAN,INDEPENDENT ASSESSOR,RADIOLOGIST 2,,3,BASELINE,2013-02-15,1
535,CDISCPILOT01,TU,01-701-1188,19,R2-NT04,TUMIDENT,Tumor Identification,NON-TARGET,NON-TARGET,,CT SCAN,INDEPENDENT ASSESSOR,RADIOLOGIST 2,,3,BASELINE,2013-02-15,1
536,CDISCPILOT01,TU,01-701-1188,20,R2-NT05,TUMIDENT,Tumor Identification,NON-TARGET,NON-TARGET,,CT SCAN,INDEPENDENT ASSESSOR,RADIOLOGIST 2,,3,BASELINE,2013-02-15,1
537,CDISCPILOT01,TU,01-701-1188,21,R2-T01,TUMIDENT,Tumor Identification,TARGET,TARGET,BLADDER,CT SCAN,INDEPENDENT ASSESSOR,RADIOLOGIST 2,,3,BASELINE,2013-02-15,1
538,CDISCPILOT01,TU,01-701-1188,22,R2-T02,TUMIDENT,Tumor Identification,TARGET,TARGET,BODY,CT SCAN,INDEPENDENT ASSESSOR,RADIOLOGIST 2,,3,BASELINE,2013-02-15,1
539,CDISCPILOT01,TU,01-701-1188,23,R2-T03,TUMIDENT,Tumor Identification,TARGET,TARGET,BONE,CT SCAN,INDEPENDENT ASSESSOR,RADIOLOGIST 2,,3,BASELINE,2013-02-15,1
540,CDISCPILOT01,TU,01-701-1188,24,R2-T04,TUMIDENT,Tumor Identification,TARGET,TARGET,BREAST,CT SCAN,INDEPENDENT ASSESSOR,RADIOLOGIST 2,,3,BASELINE,2013-02-15,1
541,CDISCPILOT01,TU,01-701-1188,25,R2-T05,TUMIDENT,Tumor Identification,TARGET,TARGET,CHEST,CT SCAN,INDEPENDENT ASSESSOR,RADIOLOGIST 2,,3,BASELINE,2013-02-15,1
542,CDISCPILOT01,TU,01-701-1188,26,T01,TUMIDENT,Tumor Identification,TARGET,TARGET,ADRENAL GLAND,CT SCAN,INVESTIGATOR,,,3,BASELINE,2013-02-15,1
543,CDISCPILOT01,TU,01-701-1188,27,T02,TUMIDENT,Tumor Identification,TARGET,TARGET,LYMPH NODE,CT SCAN,INVESTIGATOR,,,3,BASELINE,2013-02-15,1
544,CDISCPILOT01,TU,01-701-1188,28,T03,TUMIDENT,Tumor Identification,TARGET,TARGET,BLADDER,CT SCAN,INVESTIGATOR,,,3,BASELINE,2013-02-15,1
545,CDISCPILOT01,TU,01-701-1188,29,T04,TUMIDENT,Tumor Identification,TARGET,TARGET,BODY,CT SCAN,INVESTIGATOR,,,3,BASELINE,2013-02-15,1
546,CDISCPILOT01,TU,01-701-1188,30,T05,TUMIDENT,Tumor Identification,TARGET,TARGET,BONE,CT SCAN,INVESTIGATOR,,,3,BASELINE,2013-02-15,1
547,CDISCPILOT01,TU,01-701-1192,1,NT01,TUMIDENT,Tumor Identification,NON-TARGET,NON-TARGET,,CT SCAN,INVESTIGATOR,,,3,BASELINE,2012-07-22,1
548,CDISCPILOT01,TU,01-701-1192,2,NT02,TUMIDENT,Tumor Identification,NON-TARGET,NON-TARGET,,CT SCAN,INVESTIGATOR,,,3,BASELINE,2012-07-22,1
549,CDISCPILOT01,TU,01-701-1192,3,NT03,TUMIDENT,Tumor Identification,NON-TARGET,NON-TARGET,,CT SCAN,INVESTIGATOR,,,3,BASELINE,2012-07-22,1
550,CDISCPILOT01,TU,01-701-1192,4,NT04,TUMIDENT,Tumor Identification,NON-TARGET,NON-TARGET,,CT SCAN,INVESTIGATOR,,,3,BASELINE,2012-07-22,1
551,CDISCPILOT01,TU,01-701-1192,5,NT05,TUMIDENT,Tumor Identification,NON-TARGET,NON-TARGET,,CT SCAN,INVESTIGATOR,,,3,BASELINE,2012-07-22,1
552,CDISCPILOT01,TU,01-701-1192,6,R1-NT01,TUMIDENT,Tumor Identification,NON-TARGET,NON-TARGET,,CT SCAN,INDEPENDENT ASSESSOR,RADIOLOGIST 1,Y,3,BASELINE,2012-07-22,1
553,CDISCPILOT01,TU,01-701-1192,7,R1-NT02,TUMIDENT,Tumor Identification,NON-TARGET,NON-TARGET,,CT SCAN,INDEPENDENT ASSESSOR,RADIOLOGIST 1,Y,3,BASELINE,2012-07-22,1
554,CDISCPILOT01,TU,01-701-1192,8,R1-NT03,TUMIDENT,Tumor Identification,NON-TARGET,NON-TARGET,,CT SCAN,INDEPENDENT ASSESSOR,RADIOLOGIST 1,Y,3,BASELINE,2012-07-22,1
555,CDISCPILOT01,TU,01-701-1192,9,R1-NT04,TUMIDENT,Tumor Identification,NON-TARGET,NON-TARGET,,CT SCAN,INDEPENDENT ASSESSOR,RADIOLOGIST 1,Y,3,BASELINE,2012-07-22,1
556,CDISCPILOT01,TU,01-701-1192,10,R1-NT05,TUMIDENT,Tumor Identification,NON-TARGET,NON-TARGET,,CT SCAN,INDEPENDENT ASSESSOR,RADIOLOGIST 1,Y,3,BASELINE,2012-07-22,1
557,CDISCPILOT01,TU,01-701-1192,11,R1-T01,TUMIDENT,Tumor Identification,TARGET,TARGET,LYMPH NODE,CT SCAN,INDEPENDENT ASSESSOR,RADIOLOGIST 1,Y,3,BASELINE,2012-07-22,1
558,CDISCPILOT01,TU,01-701-1192,12,R1-T02,TUMIDENT,Tumor Identification,TARGET,TARGET,BLADDER,CT SCAN,INDEPENDENT ASSESSOR,RADIOLOGIST 1,Y,3,BASELINE,2012-07-22,1
559,CDISCPILOT01,TU,01-701-1192,13,R1-T03,TUMIDENT,Tumor Identification,TARGET,TARGET,BODY,CT SCAN,INDEPENDENT ASSESSOR,RADIOLOGIST 1,Y,3,BASELINE,2012-07-22,1
560,CDISCPILOT01,TU,01-701-1192,14,R1-T04,TUMIDENT,Tumor Identification,TARGET,TARGET,BONE,CT SCAN,INDEPENDENT ASSESSOR,RADIOLOGIST 1,Y,3,BASELINE,2012-07-22,1
561,CDISCPILOT01,TU,01-701-1192,15,R1-T05,TUMIDENT,Tumor Identification,TARGET,TARGET,BREAST,CT SCAN,INDEPENDENT ASSESSOR,RADIOLOGIST 1,Y,3,BASELINE,2012-07-22,1
562,CDISCPILOT01,TU,01-701-1192,16,R2-NT01,TUMIDENT,Tumor Identification,NON-TARGET,NON-TARGET,,CT SCAN,INDEPENDENT ASSESSOR,RADIOLOGIST 2,,3,BASELINE,2012-07-22,1
563,CDISCPILOT01,TU,01-701-1192,17,R2-NT02,TUMIDENT,Tumor Identification,NON-TARGET,NON-TARGET,,CT SCAN,INDEPENDENT ASSESSOR,RADIOLOGIST 2,,3,BASELINE,2012-07-22,1
564,CDISCPILOT01,TU,01-701-1192,18,R2-NT03,TUMIDENT,Tumor Identification,NON-TARGET,NON-TARGET,,CT SCAN,INDEPENDENT ASSESSOR,RADIOLOGIST 2,,3,BASELINE,2012-07-22,1
565,CDISCPILOT01,TU,01-701-1192,19,R2-NT04,TUMIDENT,Tumor Identification,NON-TARGET,NON-TARGET,,CT SCAN,INDEPENDENT ASSESSOR,RADIOLOGIST 2,,3,BASELINE,2012-07-22,1
566,CDISCPILOT01,TU,01-701-1192,20,R2-NT05,TUMIDENT,Tumor Identification,NON-TARGET,NON-TARGET,,CT SCAN,INDEPENDENT ASSESSOR,RADIOLOGIST 2,,3,BASELINE,2012-07-22,1
567,CDISCPILOT01,TU,01-701-1192,21,R2-T01,TUMIDENT,Tumor Identification,TARGET,TARGET,ABDOMINAL CAVITY,CT SCAN,INDEPENDENT ASSESSOR,RADIOLOGIST 2,,3,BASELINE,2012-07-22,1
568,CDISCPILOT01,TU,01-701-1192,22,R2-T02,TUMIDENT,Tumor Identification,TARGET,TARGET,ADRENAL GLAND,CT SCAN,INDEPENDENT ASSESSOR,RADIOLOGIST 2,,3,BASELINE,2012-07-22,1
569,CDISCPILOT01,TU,01-701-1192,23,R2-T03,TUMIDENT,Tumor Identification,TARGET,TARGET,LYMPH NODE,CT SCAN,INDEPENDENT ASSESSOR,RADIOLOGIST 2,,3,BASELINE,2012-07-22,1
570,CDISCPILOT01,TU,01-701-1192,24,R2-T04,TUMIDENT,Tumor Identification,TARGET,TARGET,BLADDER,CT SCAN,INDEPENDENT ASSESSOR,RADIOLOGIST 2,,3,BASELINE,2012-07-22,1
571,CDISCPILOT01,TU,01-701-1192,25,R2-T05,TUMIDENT,Tumor Identification,TARGET,TARGET,BODY,CT SCAN,INDEPENDENT ASSESSOR,RADIOLOGIST 2,,3,BASELINE,2012-07-22,1
572,CDISCPILOT01,TU,01-701-1192,26,T01,TUMIDENT,Tumor Identification,TARGET,TARGET,LYMPH NODE,CT SCAN,INVESTIGATOR,,,3,BASELINE,2012-07-22,1
573,CDISCPILOT01,TU,01-701-1192,27,T02,TUMIDENT,Tumor Identification,TARGET,TARGET,BLADDER,CT SCAN,INVESTIGATOR,,,3,BASELINE,2012-07-22,1
574,CDISCPILOT01,TU,01-701-1192,28,T03,TUMIDENT,Tumor Identification,TARGET,TARGET,BODY,CT SCAN,INVESTIGATOR,,,3,BASELINE,2012-07-22,1
575,CDISCPILOT01,TU,01-701-1192,29,T04,TUMIDENT,Tumor Identification,TARGET,TARGET,BONE,CT SCAN,INVESTIGATOR,,,3,BASELINE,2012-07-22,1
576,CDISCPILOT01,TU,01-701-1192,30,T05,TUMIDENT,Tumor Identification,TARGET,TARGET,BREAST,CT SCAN,INVESTIGATOR,,,3,BASELINE,2012-07-22,1
577,CDISCPILOT01,TU,01-701-1192,31,NEW01,TUMIDENT,Tumor Identification,NEW,NEW,,CT SCAN,INVESTIGATOR,,,12,WEEK 24,2013-01-11,168
578,CDISCPILOT01,TU,01-701-1192,32,R1-NEW01,TUMIDENT,Tumor Identification,NEW,NEW,,CT SCAN,INDEPENDENT ASSESSOR,RADIOLOGIST 1,Y,12,WEEK 24,2013-01-11,168
579,CDISCPILOT01,TU,01-701-1192,33,R2-NEW01,TUMIDENT,Tumor Identification,NEW,NEW,,CT SCAN,INDEPENDENT ASSESSOR,RADIOLOGIST 2,,12,WEEK 24,2013-01-11,168
580,CDISCPILOT01,TU,01-701-1203,1,NT01,TUMIDENT,Tumor Identification,NON-TARGET,NON-TARGET,,CT SCAN,INVESTIGATOR,,,3,BASELINE,2013-02-02,1
581,CDISCPILOT01,TU,01-701-1203,2,NT02,TUMIDENT,Tumor Identification,NON-TARGET,NON-TARGET,,CT SCAN,INVESTIGATOR,,,3,BASELINE,2013-02-02,1
582,CDISCPILOT01,TU,01-701-1203,3,NT03,TUMIDENT,Tumor Identification,NON-TARGET,NON-TARGET,,CT SCAN,INVESTIGATOR,,,3,BASELINE,2013-02-02,1
583,CDISCPILOT01,TU,01-701-1203,4,NT04,TUMIDENT,Tumor Identification,NON-TARGET,NON-TARGET,,CT SCAN,INVESTIGATOR,,,3,BASELINE,2013-02-02,1
584,CDISCPILOT01,TU,01-701-1203,5,NT05,TUMIDENT,Tumor Identification,NON-TARGET,NON-TARGET,,CT SCAN,INVESTIGATOR,,,3,BASELINE,2013-02-02,1
585,CDISCPILOT01,TU,01-701-1203,6,R1-NT01,TUMIDENT,Tumor Identification,NON-TARGET,NON-TARGET,,CT SCAN,INDEPENDENT ASSESSOR,RADIOLOGIST 1,Y,3,BASELINE,2013-02-02,1
586,CDISCPILOT01,TU,01-701-1203,7,R1-NT02,TUMIDENT,Tumor Identification,NON-TARGET,NON-TARGET,,CT SCAN,INDEPENDENT ASSESSOR,RADIOLOGIST 1,Y,3,BASELINE,2013-02-02,1
587,CDISCPILOT01,TU,01-701-1203,8,R1-NT03,TUMIDENT,Tumor Identification,NON-TARGET,NON-TARGET,,CT SCAN,INDEPENDENT ASSESSOR,RADIOLOGIST 1,Y,3,BASELINE,2013-02-02,1
588,CDISCPILOT01,TU,01-701-1203,9,R1-NT04,TUMIDENT,Tumor Identification,NON-TARGET,NON-TARGET,,CT SCAN,INDEPENDENT ASSESSOR,RADIOLOGIST 1,Y,3,BASELINE,2013-02-02,1
589,CDISCPILOT01,TU,01-701-1203,10,R1-NT05,TUMIDENT,Tumor Identification,NON-TARGET,NON-TARGET,,CT SCAN,INDEPENDENT ASSESSOR,RADIOLOGIST 1,Y,3,BASELINE,2013-02-02,1
590,CDISCPILOT01,TU,01-701-1203,11,R1-T01,TUMIDENT,Tumor Identification,TARGET,TARGET,BLADDER,CT SCAN,INDEPENDENT ASSESSOR,RADIOLOGIST 1,Y,3,BASELINE,2013-02-02,1
591,CDISCPILOT01,TU,01-701-1203,12,R1-T02,TUMIDENT,Tumor Identification,TARGET,TARGET,BODY,CT SCAN,INDEPENDENT ASSESSOR,RADIOLOGIST 1,Y,3,BASELINE,2013-02-02,1
592,CDISCPILOT01,TU,01-701-1203,13,R1-T03,TUMIDENT,Tumor Identification,TARGET,TARGET,BONE,CT SCAN,INDEPENDENT ASSESSOR,RADIOLOGIST 1,Y,3,BASELINE,2013-02-02,1
593,CDISCPILOT01,TU,01-701-1203,14,R1-T04,TUMIDENT,Tumor Identification,TARGET,TARGET,BREAST,CT SCAN,INDEPENDENT ASSESSOR,RADIOLOGIST 1,Y,3,BASELINE,2013-02-02,1
594,CDISCPILOT01,TU,01-701-1203,15,R1-T05,TUMIDENT,Tumor Identification,TARGET,TARGET,CHEST,CT SCAN,INDEPENDENT ASSESSOR,RADIOLOGIST 1,Y,3,BASELINE,2013-02-02,1
595,CDISCPILOT01,TU,01-701-1203,16,R2-NT01,TUMIDENT,Tumor Identification,NON-TARGET,NON-TARGET,,CT SCAN,INDEPENDENT ASSESSOR,RADIOLOGIST 2,,3,BASELINE,2013-02-02,1
596,CDISCPILOT01,TU,01-701-1203,17,R2-NT02,TUMIDENT,Tumor Identification,NON-TARGET,NON-TARGET,,CT SCAN,INDEPENDENT ASSESSOR,RADIOLOGIST 2,,3,BASELINE,2013-02-02,1
597,CDISCPILOT01,TU,01-701-1203,18,R2-NT03,TUMIDENT,Tumor Identification,NON-TARGET,NON-TARGET,,CT SCAN,INDEPENDENT ASSESSOR,RADIOLOGIST 2,,3,BASELINE,2013-02-02,1
598,CDISCPILOT01,TU,01-701-1203,19,R2-NT04,TUMIDENT,Tumor Identification,NON-TARGET,NON-TARGET,,CT SCAN,INDEPENDENT ASSESSOR,RADIOLOGIST 2,,3,BASELINE,2013-02-02,1
599,CDISCPILOT01,TU,01-701-1203,20,R2-NT05,TUMIDENT,Tumor Identification,NON-TARGET,NON-TARGET,,CT SCAN,INDEPENDENT ASSESSOR,RADIOLOGIST 2,,3,BASELINE,2013-02-02,1
600,CDISCPILOT01,TU,01-701-1203,21,R2-T01,TUMIDENT,Tumor Identification,TARGET,TARGET,BLADDER,CT SCAN,INDEPENDENT ASSESSOR,RADIOLOGIST 2,,3,BASELINE,2013-02-02,1
601,CDISCPILOT01,TU,01-701-1203,22,R2-T02,TUMIDENT,Tumor Identification,TARGET,TARGET,BODY,CT SCAN,INDEPENDENT ASSESSOR,RADIOLOGIST 2,,3,BASELINE,2013-02-02,1
602,CDISCPILOT01,TU,01-701-1203,23,R2-T03,TUMIDENT,Tumor Identification,TARGET,TARGET,BONE,CT SCAN,INDEPENDENT ASSESSOR,RADIOLOGIST 2,,3,BASELINE,2013-02-02,1
603,CDISCPILOT01,TU,01-701-1203,24,R2-T04,TUMIDENT,Tumor Identification,TARGET,TARGET,BREAST,CT SCAN,INDEPENDENT ASSESSOR,RADIOLOGIST 2,,3,BASELINE,2013-02-02,1
604,CDISCPILOT01,TU,01-701-1203,25,R2-T05,TUMIDENT,Tumor Identification,TARGET,TARGET,CHEST,CT SCAN,INDEPENDENT ASSESSOR,RADIOLOGIST 2,,3,BASELINE,2013-02-02,1
605,CDISCPILOT01,TU,01-701-1203,26,T01,TUMIDENT,Tumor Identification,TARGET,TARGET,ADRENAL GLAND,CT SCAN,INVESTIGATOR,,,3,BASELINE,2013-02-02,1
606,CDISCPILOT01,TU,01-701-1203,27,T02,TUMIDENT,Tumor Identification,TARGET,TARGET,LYMPH NODE,CT SCAN,INVESTIGATOR,,,3,BASELINE,2013-02-02,1
607,CDISCPILOT01,TU,01-701-1203,28,T03,TUMIDENT,Tumor Identification,TARGET,TARGET,BLADDER,CT SCAN,INVESTIGATOR,,,3,BASELINE,2013-02-02,1
608,CDISCPILOT01,TU,01-701-1203,29,T04,TUMIDENT,Tumor Identification,TARGET,TARGET,BODY,CT SCAN,INVESTIGATOR,,,3,BASELINE,2013-02-02,1
609,CDISCPILOT01,TU,01-701-1203,30,T05,TUMIDENT,Tumor Identification,TARGET,TARGET,BONE,CT SCAN,INVESTIGATOR,,,3,BASELINE,2013-02-02,1
610,CDISCPILOT01,TU,01-701-1211,1,NT01,TUMIDENT,Tumor Identification,NON-TARGET,NON-TARGET,,CT SCAN,INVESTIGATOR,,,3,BASELINE,2012-11-15,1
611,CDISCPILOT01,TU,01-701-1211,2,NT02,TUMIDENT,Tumor Identification,NON-TARGET,NON-TARGET,,CT SCAN,INVESTIGATOR,,,3,BASELINE,2012-11-15,1
612,CDISCPILOT01,TU,01-701-1211,3,NT03,TUMIDENT,Tumor Identification,NON-TARGET,NON-TARGET,,CT SCAN,INVESTIGATOR,,,3,BASELINE,2012-11-15,1
613,CDISCPILOT01,TU,01-701-1211,4,NT04,TUMIDENT,Tumor Identification,NON-TARGET,NON-TARGET,,CT SCAN,INVESTIGATOR,,,3,BASELINE,2012-11-15,1
614,CDISCPILOT01,TU,01-701-1211,5,NT05,TUMIDENT,Tumor Identification,NON-TARGET,NON-TARGET,,CT SCAN,INVESTIGATOR,,,3,BASELINE,2012-11-15,1
615,CDISCPILOT01,TU,01-701-1211,6,R1-NT01,TUMIDENT,Tumor Identification,NON-TARGET,NON-TARGET,,CT SCAN,INDEPENDENT ASSESSOR,RADIOLOGIST 1,Y,3,BASELINE,2012-11-15,1
616,CDISCPILOT01,TU,01-701-1211,7,R1-NT02,TUMIDENT,Tumor Identification,NON-TARGET,NON-TARGET,,CT SCAN,INDEPENDENT ASSESSOR,RADIOLOGIST 1,Y,3,BASELINE,2012-11-15,1
617,CDISCPILOT01,TU,01-701-1211,8,R1-NT03,TUMIDENT,Tumor Identification,NON-TARGET,NON-TARGET,,CT SCAN,INDEPENDENT ASSESSOR,RADIOLOGIST 1,Y,3,BASELINE,2012-11-15,1
618,CDISCPILOT01,TU,01-701-1211,9,R1-NT04,TUMIDENT,Tumor Identification,NON-TARGET,NON-TARGET,,CT SCAN,INDEPENDENT ASSESSOR,RADIOLOGIST 1,Y,3,BASELINE,2012-11-15,1
619,CDISCPILOT01,TU,01-701-1211,10,R1-NT05,TUMIDENT,Tumor Identification,NON-TARGET,NON-TARGET,,CT SCAN,INDEPENDENT ASSESSOR,RADIOLOGIST 1,Y,3,BASELINE,2012-11-15,1
620,CDISCPILOT01,TU,01-701-1211,11,R1-T01,TUMIDENT,Tumor Identification,TARGET,TARGET,LYMPH NODE,CT SCAN,INDEPENDENT ASSESSOR,RADIOLOGIST 1,Y,3,BASELINE,2012-11-15,1
621,CDISCPILOT01,TU,01-701-1211,12,R1-T02,TUMIDENT,Tumor Identification,TARGET,TARGET,BLADDER,CT SCAN,INDEPENDENT ASSESSOR,RADIOLOGIST 1,Y,3,BASELINE,2012-11-15,1
622,CDISCPILOT01,TU,01-701-1211,13,R1-T03,TUMIDENT,Tumor Identification,TARGET,TARGET,BODY,CT SCAN,INDEPENDENT ASSESSOR,RADIOLOGIST 1,Y,3,BASELINE,2012-11-15,1
623,CDISCPILOT01,TU,01-701-1211,14,R1-T04,TUMIDENT,Tumor Identification,TARGET,TARGET,BONE,CT SCAN,INDEPENDENT ASSESSOR,RADIOLOGIST 1,Y,3,BASELINE,2012-11-15,1
624,CDISCPILOT01,TU,01-701-1211,15,R1-T05,TUMIDENT,Tumor Identification,TARGET,TARGET,BREAST,CT SCAN,INDEPENDENT ASSESSOR,RADIOLOGIST 1,Y,3,BASELINE,2012-11-15,1
625,CDISCPILOT01,TU,01-701-1211,16,R2-NT01,TUMIDENT,Tumor Identification,NON-TARGET,NON-TARGET,,CT SCAN,INDEPENDENT ASSESSOR,RADIOLOGIST 2,,3,BASELINE,2012-11-15,1
626,CDISCPILOT01,TU,01-701-1211,17,R2-NT02,TUMIDENT,Tumor Identification,NON-TARGET,NON-TARGET,,CT SCAN,INDEPENDENT ASSESSOR,RADIOLOGIST 2,,3,BASELINE,2012-11-15,1
627,CDISCPILOT01,TU,01-701-1211,18,R2-NT03,TUMIDENT,Tumor Identification,NON-TARGET,NON-TARGET,,CT SCAN,INDEPENDENT ASSESSOR,RADIOLOGIST 2,,3,BASELINE,2012-11-15,1
628,CDISCPILOT01,TU,01-701-1211,19,R2-NT04,TUMIDENT,Tumor Identification,NON-TARGET,NON-TARGET,,CT SCAN,INDEPENDENT ASSESSOR,RADIOLOGIST 2,,3,BASELINE,2012-11-15,1
629,CDISCPILOT01,TU,01-701-1211,20,R2-NT05,TUMIDENT,Tumor Identification,NON-TARGET,NON-TARGET,,CT SCAN,INDEPENDENT ASSESSOR,RADIOLOGIST 2,,3,BASELINE,2012-11-15,1
630,CDISCPILOT01,TU,01-701-1211,21,R2-T01,TUMIDENT,Tumor Identification,TARGET,TARGET,ABDOMINAL CAVITY,CT SCAN,INDEPENDENT ASSESSOR,RADIOLOGIST 2,,3,BASELINE,2012-11-15,1
631,CDISCPILOT01,TU,01-701-1211,22,R2-T02,TUMIDENT,Tumor Identification,TARGET,TARGET,ADRENAL GLAND,CT SCAN,INDEPENDENT ASSESSOR,RADIOLOGIST 2,,3,BASELINE,2012-11-15,1
632,CDISCPILOT01,TU,01-701-1211,23,R2-T03,TUMIDENT,Tumor Identification,TARGET,TARGET,LYMPH NODE,CT SCAN,INDEPENDENT ASSESSOR,RADIOLOGIST 2,,3,BASELINE,2012-11-15,1
633,CDISCPILOT01,TU,01-701-1211,24,R2-T04,TUMIDENT,Tumor Identification,TARGET,TARGET,BLADDER,CT SCAN,INDEPENDENT ASSESSOR,RADIOLOGIST 2,,3,BASELINE,2012-11-15,1
634,CDISCPILOT01,TU,01-701-1211,25,R2-T05,TUMIDENT,Tumor Identification,TARGET,TARGET,BODY,CT SCAN,INDEPENDENT ASSESSOR,RADIOLOGIST 2,,3,BASELINE,2012-11-15,1
635,CDISCPILOT01,TU,01-701-1211,26,T01,TUMIDENT,Tumor Identification,TARGET,TARGET,ABDOMINAL CAVITY,CT SCAN,INVESTIGATOR,,,3,BASELINE,2012-11-15,1
636,CDISCPILOT01,TU,01-701-1211,27,T02,TUMIDENT,Tumor Identification,TARGET,TARGET,ADRENAL GLAND,CT SCAN,INVESTIGATOR,,,3,BASELINE,2012-11-15,1
637,CDISCPILOT01,TU,01-701-1211,28,T03,TUMIDENT,Tumor Identification,TARGET,TARGET,LYMPH NODE,CT SCAN,INVESTIGATOR,,,3,BASELINE,2012-11-15,1
638,CDISCPILOT01,TU,01-701-1211,29,T04,TUMIDENT,Tumor Identification,TARGET,TARGET,BLADDER,CT SCAN,INVESTIGATOR,,,3,BASELINE,2012-11-15,1
639,CDISCPILOT01,TU,01-701-1211,30,T05,TUMIDENT,Tumor Identification,TARGET,TARGET,BODY,CT SCAN,INVESTIGATOR,,,3,BASELINE,2012-11-15,1
640,CDISCPILOT01,TU,01-701-1234,1,NT01,TUMIDENT,Tumor Identification,NON-TARGET,NON-TARGET,,CT SCAN,INVESTIGATOR,,,3,BASELINE,2013-03-30,1
641,CDISCPILOT01,TU,01-701-1234,2,NT02,TUMIDENT,Tumor Identification,NON-TARGET,NON-TARGET,,CT SCAN,INVESTIGATOR,,,3,BASELINE,2013-03-30,1
642,CDISCPILOT01,TU,01-701-1234,3,NT03,TUMIDENT,Tumor Identification,NON-TARGET,NON-TARGET,,CT SCAN,INVESTIGATOR,,,3,BASELINE,2013-03-30,1
643,CDISCPILOT01,TU,01-701-1234,4,NT04,TUMIDENT,Tumor Identification,NON-TARGET,NON-TARGET,,CT SCAN,INVESTIGATOR,,,3,BASELINE,2013-03-30,1
644,CDISCPILOT01,TU,01-701-1234,5,NT05,TUMIDENT,Tumor Identification,NON-TARGET,NON-TARGET,,CT SCAN,INVESTIGATOR,,,3,BASELINE,2013-03-30,1
645,CDISCPILOT01,TU,01-701-1234,6,R1-NT01,TUMIDENT,Tumor Identification,NON-TARGET,NON-TARGET,,CT SCAN,INDEPENDENT ASSESSOR,RADIOLOGIST 1,Y,3,BASELINE,2013-03-30,1
646,CDISCPILOT01,TU,01-701-1234,7,R1-NT02,TUMIDENT,Tumor Identification,NON-TARGET,NON-TARGET,,CT SCAN,INDEPENDENT ASSESSOR,RADIOLOGIST 1,Y,3,BASELINE,2013-03-30,1
647,CDISCPILOT01,TU,01-701-1234,8,R1-NT03,TUMIDENT,Tumor Identification,NON-TARGET,NON-TARGET,,CT SCAN,INDEPENDENT ASSESSOR,RADIOLOGIST 1,Y,3,BASELINE,2013-03-30,1
648,CDISCPILOT01,TU,01-701-1234,9,R1-NT04,TUMIDENT,Tumor Identification,NON-TARGET,NON-TARGET,,CT SCAN,INDEPENDENT ASSESSOR,RADIOLOGIST 1,Y,3,BASELINE,2013-03-30,1
649,CDISCPILOT01,TU,01-701-1234,10,R1-NT05,TUMIDENT,Tumor Identification,NON-TARGET,NON-TARGET,,CT SCAN,INDEPENDENT ASSESSOR,RADIOLOGIST 1,Y,3,BASELINE,2013-03-30,1
650,CDISCPILOT01,TU,01-701-1234,11,R1-T01,TUMIDENT,Tumor Identification,TARGET,TARGET,ABDOMINAL CAVITY,CT SCAN,INDEPENDENT ASSESSOR,RADIOLOGIST 1,Y,3,BASELINE,2013-03-30,1
651,CDISCPILOT01,TU,01-701-1234,12,R1-T02,TUMIDENT,Tumor Identification,TARGET,TARGET,ADRENAL GLAND,CT SCAN,INDEPENDENT ASSESSOR,RADIOLOGIST 1,Y,3,BASELINE,2013-03-30,1
652,CDISCPILOT01,TU,01-701-1234,13,R1-T03,TUMIDENT,Tumor Identification,TARGET,TARGET,LYMPH NODE,CT SCAN,INDEPENDENT ASSESSOR,RADIOLOGIST 1,Y,3,BASELINE,2013-03-30,1
653,CDISCPILOT01,TU,01-701-1234,14,R1-T04,TUMIDENT,Tumor Identification,TARGET,TARGET,BLADDER,CT SCAN,INDEPENDENT ASSESSOR,RADIOLOGIST 1,Y,3,BASELINE,2013-03-30,1
654,CDISCPILOT01,TU,01-701-1234,15,R1-T05,TUMIDENT,Tumor Identification,TARGET,TARGET,BODY,CT SCAN,INDEPENDENT ASSESSOR,RADIOLOGIST 1,Y,3,BASELINE,2013-03-30,1
655,CDISCPILOT01,TU,01-701-1234,16,R2-NT01,TUMIDENT,Tumor Identification,NON-TARGET,NON-TARGET,,CT SCAN,INDEPENDENT ASSESSOR,RADIOLOGIST 2,,3,BASELINE,2013-03-30,1
656,CDISCPILOT01,TU,01-701-1234,17,R2-NT02,TUMIDENT,Tumor Identification,NON-TARGET,NON-TARGET,,CT SCAN,INDEPENDENT ASSESSOR,RADIOLOGIST 2,,3,BASELINE,2013-03-30,1
657,CDISCPILOT01,TU,01-701-1234,18,R2-NT03,TUMIDENT,Tumor Identification,NON-TARGET,NON-TARGET,,CT SCAN,INDEPENDENT ASSESSOR,RADIOLOGIST 2,,3,BASELINE,2013-03-30,1
658,CDISCPILOT01,TU,01-701-1234,19,R2-NT04,TUMIDENT,Tumor Identification,NON-TARGET,NON-TARGET,,CT SCAN,INDEPENDENT ASSESSOR,RADIOLOGIST 2,,3,BASELINE,2013-03-30,1
659,CDISCPILOT01,TU,01-701-1234,20,R2-NT05,TUMIDENT,Tumor Identification,NON-TARGET,NON-TARGET,,CT SCAN,INDEPENDENT ASSESSOR,RADIOLOGIST 2,,3,BASELINE,2013-03-30,1
660,CDISCPILOT01,TU,01-701-1234,21,R2-T01,TUMIDENT,Tumor Identification,TARGET,TARGET,BLADDER,CT SCAN,INDEPENDENT ASSESSOR,RADIOLOGIST 2,,3,BASELINE,2013-03-30,1
661,CDISCPILOT01,TU,01-701-1234,22,R2-T02,TUMIDENT,Tumor Identification,TARGET,TARGET,BODY,CT SCAN,INDEPENDENT ASSESSOR,RADIOLOGIST 2,,3,BASELINE,2013-03-30,1
662,CDISCPILOT01,TU,01-701-1234,23,R2-T03,TUMIDENT,Tumor Identification,TARGET,TARGET,BONE,CT SCAN,INDEPENDENT ASSESSOR,RADIOLOGIST 2,,3,BASELINE,2013-03-30,1
663,CDISCPILOT01,TU,01-701-1234,24,R2-T04,TUMIDENT,Tumor Identification,TARGET,TARGET,BREAST,CT SCAN,INDEPENDENT ASSESSOR,RADIOLOGIST 2,,3,BASELINE,2013-03-30,1
664,CDISCPILOT01,TU,01-701-1234,25,R2-T05,TUMIDENT,Tumor Identification,TARGET,TARGET,CHEST,CT SCAN,INDEPENDENT ASSESSOR,RADIOLOGIST 2,,3,BASELINE,2013-03-30,1
665,CDISCPILOT01,TU,01-701-1234,26,T01,TUMIDENT,Tumor Identification,TARGET,TARGET,BLADDER,CT SCAN,INVESTIGATOR,,,3,BASELINE,2013-03-30,1
666,CDISCPILOT01,TU,01-701-1234,27,T02,TUMIDENT,Tumor Identification,TARGET,TARGET,BODY,CT SCAN,INVESTIGATOR,,,3,BASELINE,2013-03-30,1
667,CDISCPILOT01,TU,01-701-1234,28,T03,TUMIDENT,Tumor Identification,TARGET,TARGET,BONE,CT SCAN,INVESTIGATOR,,,3,BASELINE,2013-03-30,1
668,CDISCPILOT01,TU,01-701-1234,29,T04,TUMIDENT,Tumor Identification,TARGET,TARGET,BREAST,CT SCAN,INVESTIGATOR,,,3,BASELINE,2013-03-30,1
669,CDISCPILOT01,TU,01-701-1234,30,T05,TUMIDENT,Tumor Identification,TARGET,TARGET,CHEST,CT SCAN,INVESTIGATOR,,,3,BASELINE,2013-03-30,1
670,CDISCPILOT01,TU,01-701-1239,1,NT01,TUMIDENT,Tumor Identification,NON-TARGET,NON-TARGET,,CT SCAN,INVESTIGATOR,,,3,BASELINE,2014-01-11,1
671,CDISCPILOT01,TU,01-701-1239,2,NT02,TUMIDENT,Tumor Identification,NON-TARGET,NON-TARGET,,CT SCAN,INVESTIGATOR,,,3,BASELINE,2014-01-11,1
672,CDISCPILOT01,TU,01-701-1239,3,NT03,TUMIDENT,Tumor Identification,NON-TARGET,NON-TARGET,,CT SCAN,INVESTIGATOR,,,3,BASELINE,2014-01-11,1
673,CDISCPILOT01,TU,01-701-1239,4,NT04,TUMIDENT,Tumor Identification,NON-TARGET,NON-TARGET,,CT SCAN,INVESTIGATOR,,,3,BASELINE,2014-01-11,1
674,CDISCPILOT01,TU,01-701-1239,5,NT05,TUMIDENT,Tumor Identification,NON-TARGET,NON-TARGET,,CT SCAN,INVESTIGATOR,,,3,BASELINE,2014-01-11,1
675,CDISCPILOT01,TU,01-701-1239,6,R1-NT01,TUMIDENT,Tumor Identification,NON-TARGET,NON-TARGET,,CT SCAN,INDEPENDENT ASSESSOR,RADIOLOGIST 1,Y,3,BASELINE,2014-01-11,1
676,CDISCPILOT01,TU,01-701-1239,7,R1-NT02,TUMIDENT,Tumor Identification,NON-TARGET,NON-TARGET,,CT SCAN,INDEPENDENT ASSESSOR,RADIOLOGIST 1,Y,3,BASELINE,2014-01-11,1
677,CDISCPILOT01,TU,01-701-1239,8,R1-NT03,TUMIDENT,Tumor Identification,NON-TARGET,NON-TARGET,,CT SCAN,INDEPENDENT ASSESSOR,RADIOLOGIST 1,Y,3,BASELINE,2014-01-11,1
678,CDISCPILOT01,TU,01-701-1239,9,R1-NT04,TUMIDENT,Tumor Identification,NON-TARGET,NON-TARGET,,CT SCAN,INDEPENDENT ASSESSOR,RADIOLOGIST 1,Y,3,BASELINE,2014-01-11,1
679,CDISCPILOT01,TU,01-701-1239,10,R1-NT05,TUMIDENT,Tumor Identification,NON-TARGET,NON-TARGET,,CT SCAN,INDEPENDENT ASSESSOR,RADIOLOGIST 1,Y,3,BASELINE,2014-01-11,1
680,CDISCPILOT01,TU,01-701-1239,11,R1-T01,TUMIDENT,Tumor Identification,TARGET,TARGET,ABDOMINAL CAVITY,CT SCAN,INDEPENDENT ASSESSOR,RADIOLOGIST 1,Y,3,BASELINE,2014-01-11,1
681,CDISCPILOT01,TU,01-701-1239,12,R1-T02,TUMIDENT,Tumor Identification,TARGET,TARGET,ADRENAL GLAND,CT SCAN,INDEPENDENT ASSESSOR,RADIOLOGIST 1,Y,3,BASELINE,2014-01-11,1
682,CDISCPILOT01,TU,01-701-1239,13,R1-T03,TUMIDENT,Tumor Identification,TARGET,TARGET,LYMPH NODE,CT SCAN,INDEPENDENT ASSESSOR,RADIOLOGIST 1,Y,3,BASELINE,2014-01-11,1
683,CDISCPILOT01,TU,01-701-1239,14,R1-T04,TUMIDENT,Tumor Identification,TARGET,TARGET,BLADDER,CT SCAN,INDEPENDENT ASSESSOR,RADIOLOGIST 1,Y,3,BASELINE,2014-01-11,1
684,CDISCPILOT01,TU,01-701-1239,15,R1-T05,TUMIDENT,Tumor Identification,TARGET,TARGET,BODY,CT SCAN,INDEPENDENT ASSESSOR,RADIOLOGIST 1,Y,3,BASELINE,2014-01-11,1
685,CDISCPILOT01,TU,01-701-1239,16,R2-NT01,TUMIDENT,Tumor Identification,NON-TARGET,NON-TARGET,,CT SCAN,INDEPENDENT ASSESSOR,RADIOLOGIST 2,,3,BASELINE,2014-01-11,1
686,CDISCPILOT01,TU,01-701-1239,17,R2-NT02,TUMIDENT,Tumor Identification,NON-TARGET,NON-TARGET,,CT SCAN,INDEPENDENT ASSESSOR,RADIOLOGIST 2,,3,BASELINE,2014-01-11,1
687,CDISCPILOT01,TU,01-701-1239,18,R2-NT03,TUMIDENT,Tumor Identification,NON-TARGET,NON-TARGET,,CT SCAN,INDEPENDENT ASSESSOR,RADIOLOGIST 2,,3,BASELINE,2014-01-11,1
688,CDISCPILOT01,TU,01-701-1239,19,R2-NT04,TUMIDENT,Tumor Identification,NON-TARGET,NON-TARGET,,CT SCAN,INDEPENDENT ASSESSOR,RADIOLOGIST 2,,3,BASELINE,2014-01-11,1
689,CDISCPILOT01,TU,01-701-1239,20,R2-NT05,TUMIDENT,Tumor Identification,NON-TARGET,NON-TARGET,,CT SCAN,INDEPENDENT ASSESSOR,RADIOLOGIST 2,,3,BASELINE,2014-01-11,1
690,CDISCPILOT01,TU,01-701-1239,21,R2-T01,TUMIDENT,Tumor Identification,TARGET,TARGET,ADRENAL GLAND,CT SCAN,INDEPENDENT ASSESSOR,RADIOLOGIST 2,,3,BASELINE,2014-01-11,1
691,CDISCPILOT01,TU,01-701-1239,22,R2-T02,TUMIDENT,Tumor Identification,TARGET,TARGET,LYMPH NODE,CT SCAN,INDEPENDENT ASSESSOR,RADIOLOGIST 2,,3,BASELINE,2014-01-11,1
692,CDISCPILOT01,TU,01-701-1239,23,R2-T03,TUMIDENT,Tumor Identification,TARGET,TARGET,BLADDER,CT SCAN,INDEPENDENT ASSESSOR,RADIOLOGIST 2,,3,BASELINE,2014-01-11,1
693,CDISCPILOT01,TU,01-701-1239,24,R2-T04,TUMIDENT,Tumor Identification,TARGET,TARGET,BODY,CT SCAN,INDEPENDENT ASSESSOR,RADIOLOGIST 2,,3,BASELINE,2014-01-11,1
694,CDISCPILOT01,TU,01-701-1239,25,R2-T05,TUMIDENT,Tumor Identification,TARGET,TARGET,BONE,CT SCAN,INDEPENDENT ASSESSOR,RADIOLOGIST 2,,3,BASELINE,2014-01-11,1
695,CDISCPILOT01,TU,01-701-1239,26,T01,TUMIDENT,Tumor Identification,TARGET,TARGET,BLADDER,CT SCAN,INVESTIGATOR,,,3,BASELINE,2014-01-11,1
696,CDISCPILOT01,TU,01-701-1239,27,T02,TUMIDENT,Tumor Identification,TARGET,TARGET,BODY,CT SCAN,INVESTIGATOR,,,3,BASELINE,2014-01-11,1
697,CDISCPILOT01,TU,01-701-1239,28,T03,TUMIDENT,Tumor Identification,TARGET,TARGET,BONE,CT SCAN,INVESTIGATOR,,,3,BASELINE,2014-01-11,1
698,CDISCPILOT01,TU,01-701-1239,29,T04,TUMIDENT,Tumor Identification,TARGET,TARGET,BREAST,CT SCAN,INVESTIGATOR,,,3,BASELINE,2014-01-11,1
699,CDISCPILOT01,TU,01-701-1239,30,T05,TUMIDENT,Tumor Identification,TARGET,TARGET,CHEST,CT SCAN,INVESTIGATOR,,,3,BASELINE,2014-01-11,1
700,CDISCPILOT01,TU,01-701-1275,1,NT01,TUMIDENT,Tumor Identification,NON-TARGET,NON-TARGET,,CT SCAN,INVESTIGATOR,,,3,BASELINE,2014-02-07,1
701,CDISCPILOT01,TU,01-701-1275,2,NT02,TUMIDENT,Tumor Identification,NON-TARGET,NON-TARGET,,CT SCAN,INVESTIGATOR,,,3,BASELINE,2014-02-07,1
702,CDISCPILOT01,TU,01-701-1275,3,NT03,TUMIDENT,Tumor Identification,NON-TARGET,NON-TARGET,,CT SCAN,INVESTIGATOR,,,3,BASELINE,2014-02-07,1
703,CDISCPILOT01,TU,01-701-1275,4,NT04,TUMIDENT,Tumor Identification,NON-TARGET,NON-TARGET,,CT SCAN,INVESTIGATOR,,,3,BASELINE,2014-02-07,1
704,CDISCPILOT01,TU,01-701-1275,5,NT05,TUMIDENT,Tumor Identification,NON-TARGET,NON-TARGET,,CT SCAN,INVESTIGATOR,,,3,BASELINE,2014-02-07,1
705,CDISCPILOT01,TU,01-701-1275,6,R1-NT01,TUMIDENT,Tumor Identification,NON-TARGET,NON-TARGET,,CT SCAN,INDEPENDENT ASSESSOR,RADIOLOGIST 1,Y,3,BASELINE,2014-02-07,1
706,CDISCPILOT01,TU,01-701-1275,7,R1-NT02,TUMIDENT,Tumor Identification,NON-TARGET,NON-TARGET,,CT SCAN,INDEPENDENT ASSESSOR,RADIOLOGIST 1,Y,3,BASELINE,2014-02-07,1
707,CDISCPILOT01,TU,01-701-1275,8,R1-NT03,TUMIDENT,Tumor Identification,NON-TARGET,NON-TARGET,,CT SCAN,INDEPENDENT ASSESSOR,RADIOLOGIST 1,Y,3,BASELINE,2014-02-07,1
708,CDISCPILOT01,TU,01-701-1275,9,R1-NT04,TUMIDENT,Tumor Identification,NON-TARGET,NON-TARGET,,CT SCAN,INDEPENDENT ASSESSOR,RADIOLOGIST 1,Y,3,BASELINE,2014-02-07,1
709,CDISCPILOT01,TU,01-701-1275,10,R1-NT05,TUMIDENT,Tumor Identification,NON-TARGET,NON-TARGET,,CT SCAN,INDEPENDENT ASSESSOR,RADIOLOGIST 1,Y,3,BASELINE,2014-02-07,1
710,CDISCPILOT01,TU,01-701-1275,11,R1-T01,TUMIDENT,Tumor Identification,TARGET,TARGET,LYMPH NODE,CT SCAN,INDEPENDENT ASSESSOR,RADIOLOGIST 1,Y,3,BASELINE,2014-02-07,1
711,CDISCPILOT01,TU,01-701-1275,12,R1-T02,TUMIDENT,Tumor Identification,TARGET,TARGET,BLADDER,CT SCAN,INDEPENDENT ASSESSOR,RADIOLOGIST 1,Y,3,BASELINE,2014-02-07,1
712,CDISCPILOT01,TU,01-701-1275,13,R1-T03,TUMIDENT,Tumor Identification,TARGET,TARGET,BODY,CT SCAN,INDEPENDENT ASSESSOR,RADIOLOGIST 1,Y,3,BASELINE,2014-02-07,1
713,CDISCPILOT01,TU,01-701-1275,14,R1-T04,TUMIDENT,Tumor Identification,TARGET,TARGET,BONE,CT SCAN,INDEPENDENT ASSESSOR,RADIOLOGIST 1,Y,3,BASELINE,2014-02-07,1
714,CDISCPILOT01,TU,01-701-1275,15,R1-T05,TUMIDENT,Tumor Identification,TARGET,TARGET,BREAST,CT SCAN,INDEPENDENT ASSESSOR,RADIOLOGIST 1,Y,3,BASELINE,2014-02-07,1
715,CDISCPILOT01,TU,01-701-1275,16,R2-NT01,TUMIDENT,Tumor Identification,NON-TARGET,NON-TARGET,,CT SCAN,INDEPENDENT ASSESSOR,RADIOLOGIST 2,,3,BASELINE,2014-02-07,1
716,CDISCPILOT01,TU,01-701-1275,17,R2-NT02,TUMIDENT,Tumor Identification,NON-TARGET,NON-TARGET,,CT SCAN,INDEPENDENT ASSESSOR,RADIOLOGIST 2,,3,BASELINE,2014-02-07,1
717,CDISCPILOT01,TU,01-701-1275,18,R2-NT03,TUMIDENT,Tumor Identification,NON-TARGET,NON-TARGET,,CT SCAN,INDEPENDENT ASSESSOR,RADIOLOGIST 2,,3,BASELINE,2014-02-07,1
718,CDISCPILOT01,TU,01-701-1275,19,R2-NT04,TUMIDENT,Tumor Identification,NON-TARGET,NON-TARGET,,CT SCAN,INDEPENDENT ASSESSOR,RADIOLOGIST 2,,3,BASELINE,2014-02-07,1
719,CDISCPILOT01,TU,01-701-1275,20,R2-NT05,TUMIDENT,Tumor Identification,NON-TARGET,NON-TARGET,,CT SCAN,INDEPENDENT ASSESSOR,RADIOLOGIST 2,,3,BASELINE,2014-02-07,1
720,CDISCPILOT01,TU,01-701-1275,21,R2-T01,TUMIDENT,Tumor Identification,TARGET,TARGET,ABDOMINAL CAVITY,CT SCAN,INDEPENDENT ASSESSOR,RADIOLOGIST 2,,3,BASELINE,2014-02-07,1
721,CDISCPILOT01,TU,01-701-1275,22,R2-T02,TUMIDENT,Tumor Identification,TARGET,TARGET,ADRENAL GLAND,CT SCAN,INDEPENDENT ASSESSOR,RADIOLOGIST 2,,3,BASELINE,2014-02-07,1
722,CDISCPILOT01,TU,01-701-1275,23,R2-T03,TUMIDENT,Tumor Identification,TARGET,TARGET,LYMPH NODE,CT SCAN,INDEPENDENT ASSESSOR,RADIOLOGIST 2,,3,BASELINE,2014-02-07,1
723,CDISCPILOT01,TU,01-701-1275,24,R2-T04,TUMIDENT,Tumor Identification,TARGET,TARGET,BLADDER,CT SCAN,INDEPENDENT ASSESSOR,RADIOLOGIST 2,,3,BASELINE,2014-02-07,1
724,CDISCPILOT01,TU,01-701-1275,25,R2-T05,TUMIDENT,Tumor Identification,TARGET,TARGET,BODY,CT SCAN,INDEPENDENT ASSESSOR,RADIOLOGIST 2,,3,BASELINE,2014-02-07,1
725,CDISCPILOT01,TU,01-701-1275,26,T01,TUMIDENT,Tumor Identification,TARGET,TARGET,LYMPH NODE,CT SCAN,INVESTIGATOR,,,3,BASELINE,2014-02-07,1
726,CDISCPILOT01,TU,01-701-1275,27,T02,TUMIDENT,Tumor Identification,TARGET,TARGET,BLADDER,CT SCAN,INVESTIGATOR,,,3,BASELINE,2014-02-07,1
727,CDISCPILOT01,TU,01-701-1275,28,T03,TUMIDENT,Tumor Identification,TARGET,TARGET,BODY,CT SCAN,INVESTIGATOR,,,3,BASELINE,2014-02-07,1
728,CDISCPILOT01,TU,01-701-1275,29,T04,TUMIDENT,Tumor Identification,TARGET,TARGET,BONE,CT SCAN,INVESTIGATOR,,,3,BASELINE,2014-02-07,1
729,CDISCPILOT01,TU,01-701-1275,30,T05,TUMIDENT,Tumor Identification,TARGET,TARGET,BREAST,CT SCAN,INVESTIGATOR,,,3,BASELINE,2014-02-07,1
730,CDISCPILOT01,TU,01-701-1287,1,NT01,TUMIDENT,Tumor Identification,NON-TARGET,NON-TARGET,,CT SCAN,INVESTIGATOR,,,3,BASELINE,2014-01-25,1
731,CDISCPILOT01,TU,01-701-1287,2,NT02,TUMIDENT,Tumor Identification,NON-TARGET,NON-TARGET,,CT SCAN,INVESTIGATOR,,,3,BASELINE,2014-01-25,1
732,CDISCPILOT01,TU,01-701-1287,3,NT03,TUMIDENT,Tumor Identification,NON-TARGET,NON-TARGET,,CT SCAN,INVESTIGATOR,,,3,BASELINE,2014-01-25,1
733,CDISCPILOT01,TU,01-701-1287,4,NT04,TUMIDENT,Tumor Identification,NON-TARGET,NON-TARGET,,CT SCAN,INVESTIGATOR,,,3,BASELINE,2014-01-25,1
734,CDISCPILOT01,TU,01-701-1287,5,NT05,TUMIDENT,Tumor Identification,NON-TARGET,NON-TARGET,,CT SCAN,INVESTIGATOR,,,3,BASELINE,2014-01-25,1
735,CDISCPILOT01,TU,01-701-1287,6,R1-NT01,TUMIDENT,Tumor Identification,NON-TARGET,NON-TARGET,,CT SCAN,INDEPENDENT ASSESSOR,RADIOLOGIST 1,Y,3,BASELINE,2014-01-25,1
736,CDISCPILOT01,TU,01-701-1287,7,R1-NT02,TUMIDENT,Tumor Identification,NON-TARGET,NON-TARGET,,CT SCAN,INDEPENDENT ASSESSOR,RADIOLOGIST 1,Y,3,BASELINE,2014-01-25,1
737,CDISCPILOT01,TU,01-701-1287,8,R1-NT03,TUMIDENT,Tumor Identification,NON-TARGET,NON-TARGET,,CT SCAN,INDEPENDENT ASSESSOR,RADIOLOGIST 1,Y,3,BASELINE,2014-01-25,1
738,CDISCPILOT01,TU,01-701-1287,9,R1-NT04,TUMIDENT,Tumor Identification,NON-TARGET,NON-TARGET,,CT SCAN,INDEPENDENT ASSESSOR,RADIOLOGIST 1,Y,3,BASELINE,2014-01-25,1
739,CDISCPILOT01,TU,01-701-1287,10,R1-NT05,TUMIDENT,Tumor Identification,NON-TARGET,NON-TARGET,,CT SCAN,INDEPENDENT ASSESSOR,RADIOLOGIST 1,Y,3,BASELINE,2014-01-25,1
740,CDISCPILOT01,TU,01-701-1287,11,R1-T01,TUMIDENT,Tumor Identification,TARGET,TARGET,ABDOMINAL CAVITY,CT SCAN,INDEPENDENT ASSESSOR,RADIOLOGIST 1,Y,3,BASELINE,2014-01-25,1
741,CDISCPILOT01,TU,01-701-1287,12,R1-T02,TUMIDENT,Tumor Identification,TARGET,TARGET,ADRENAL GLAND,CT SCAN,INDEPENDENT ASSESSOR,RADIOLOGIST 1,Y,3,BASELINE,2014-01-25,1
742,CDISCPILOT01,TU,01-701-1287,13,R1-T03,TUMIDENT,Tumor Identification,TARGET,TARGET,LYMPH NODE,CT SCAN,INDEPENDENT ASSESSOR,RADIOLOGIST 1,Y,3,BASELINE,2014-01-25,1
743,CDISCPILOT01,TU,01-701-1287,14,R1-T04,TUMIDENT,Tumor Identification,TARGET,TARGET,BLADDER,CT SCAN,INDEPENDENT ASSESSOR,RADIOLOGIST 1,Y,3,BASELINE,2014-01-25,1
744,CDISCPILOT01,TU,01-701-1287,15,R1-T05,TUMIDENT,Tumor Identification,TARGET,TARGET,BODY,CT SCAN,INDEPENDENT ASSESSOR,RADIOLOGIST 1,Y,3,BASELINE,2014-01-25,1
745,CDISCPILOT01,TU,01-701-1287,16,R2-NT01,TUMIDENT,Tumor Identification,NON-TARGET,NON-TARGET,,CT SCAN,INDEPENDENT ASSESSOR,RADIOLOGIST 2,,3,BASELINE,2014-01-25,1
746,CDISCPILOT01,TU,01-701-1287,17,R2-NT02,TUMIDENT,Tumor Identification,NON-TARGET,NON-TARGET,,CT SCAN,INDEPENDENT ASSESSOR,RADIOLOGIST 2,,3,BASELINE,2014-01-25,1
747,CDISCPILOT01,TU,01-701-1287,18,R2-NT03,TUMIDENT,Tumor Identification,NON-TARGET,NON-TARGET,,CT SCAN,INDEPENDENT ASSESSOR,RADIOLOGIST 2,,3,BASELINE,2014-01-25,1
748,CDISCPILOT01,TU,01-701-1287,19,R2-NT04,TUMIDENT,Tumor Identification,NON-TARGET,NON-TARGET,,CT SCAN,INDEPENDENT ASSESSOR,RADIOLOGIST 2,,3,BASELINE,2014-01-25,1
749,CDISCPILOT01,TU,01-701-1287,20,R2-NT05,TUMIDENT,Tumor Identification,NON-TARGET,NON-TARGET,,CT SCAN,INDEPENDENT ASSESSOR,RADIOLOGIST 2,,3,BASELINE,2014-01-25,1
750,CDISCPILOT01,TU,01-701-1287,21,R2-T01,TUMIDENT,Tumor Identification,TARGET,TARGET,ABDOMINAL CAVITY,CT SCAN,INDEPENDENT ASSESSOR,RADIOLOGIST 2,,3,BASELINE,2014-01-25,1
751,CDISCPILOT01,TU,01-701-1287,22,R2-T02,TUMIDENT,Tumor Identification,TARGET,TARGET,ADRENAL GLAND,CT SCAN,INDEPENDENT ASSESSOR,RADIOLOGIST 2,,3,BASELINE,2014-01-25,1
752,CDISCPILOT01,TU,01-701-1287,23,R2-T03,TUMIDENT,Tumor Identification,TARGET,TARGET,LYMPH NODE,CT SCAN,INDEPENDENT ASSESSOR,RADIOLOGIST 2,,3,BASELINE,2014-01-25,1
753,CDISCPILOT01,TU,01-701-1287,24,R2-T04,TUMIDENT,Tumor Identification,TARGET,TARGET,BLADDER,CT SCAN,INDEPENDENT ASSESSOR,RADIOLOGIST 2,,3,BASELINE,2014-01-25,1
754,CDISCPILOT01,TU,01-701-1287,25,R2-T05,TUMIDENT,Tumor Identification,TARGET,TARGET,BODY,CT SCAN,INDEPENDENT ASSESSOR,RADIOLOGIST 2,,3,BASELINE,2014-01-25,1
755,CDISCPILOT01,TU,01-701-1287,26,T01,TUMIDENT,Tumor Identification,TARGET,TARGET,BLADDER,CT SCAN,INVESTIGATOR,,,3,BASELINE,2014-01-25,1
756,CDISCPILOT01,TU,01-701-1287,27,T02,TUMIDENT,Tumor Identification,TARGET,TARGET,BODY,CT SCAN,INVESTIGATOR,,,3,BASELINE,2014-01-25,1
757,CDISCPILOT01,TU,01-701-1287,28,T03,TUMIDENT,Tumor Identification,TARGET,TARGET,BONE,CT SCAN,INVESTIGATOR,,,3,BASELINE,2014-01-25,1
758,CDISCPILOT01,TU,01-701-1287,29,T04,TUMIDENT,Tumor Identification,TARGET,TARGET,BREAST,CT SCAN,INVESTIGATOR,,,3,BASELINE,2014-01-25,1
759,CDISCPILOT01,TU,01-701-1287,30,T05,TUMIDENT,Tumor Identification,TARGET,TARGET,CHEST,CT SCAN,INVESTIGATOR,,,3,BASELINE,2014-01-25,1
760,CDISCPILOT01,TU,01-701-1287,31,NEW01,TUMIDENT,Tumor Identification,NEW,NEW,,CT SCAN,INVESTIGATOR,,,12,WEEK 24,2014-07-12,168
761,CDISCPILOT01,TU,01-701-1287,32,R1-NEW01,TUMIDENT,Tumor Identification,NEW,NEW,,CT SCAN,INDEPENDENT ASSESSOR,RADIOLOGIST 1,Y,12,WEEK 24,2014-07-12,168
762,CDISCPILOT01,TU,01-701-1287,33,R2-NEW01,TUMIDENT,Tumor Identification,NEW,NEW,,CT SCAN,INDEPENDENT ASSESSOR,RADIOLOGIST 2,,12,WEEK 24,2014-07-12,168
763,CDISCPILOT01,TU,01-701-1294,1,NT01,TUMIDENT,Tumor Identification,NON-TARGET,NON-TARGET,,CT SCAN,INVESTIGATOR,,,3,BASELINE,2013-03-24,1
764,CDISCPILOT01,TU,01-701-1294,2,NT02,TUMIDENT,Tumor Identification,NON-TARGET,NON-TARGET,,CT SCAN,INVESTIGATOR,,,3,BASELINE,2013-03-24,1
765,CDISCPILOT01,TU,01-701-1294,3,NT03,TUMIDENT,Tumor Identification,NON-TARGET,NON-TARGET,,CT SCAN,INVESTIGATOR,,,3,BASELINE,2013-03-24,1
766,CDISCPILOT01,TU,01-701-1294,4,NT04,TUMIDENT,Tumor Identification,NON-TARGET,NON-TARGET,,CT SCAN,INVESTIGATOR,,,3,BASELINE,2013-03-24,1
767,CDISCPILOT01,TU,01-701-1294,5,NT05,TUMIDENT,Tumor Identification,NON-TARGET,NON-TARGET,,CT SCAN,INVESTIGATOR,,,3,BASELINE,2013-03-24,1
768,CDISCPILOT01,TU,01-701-1294,6,R1-NT01,TUMIDENT,Tumor Identification,NON-TARGET,NON-TARGET,,CT SCAN,INDEPENDENT ASSESSOR,RADIOLOGIST 1,Y,3,BASELINE,2013-03-24,1
769,CDISCPILOT01,TU,01-701-1294,7,R1-NT02,TUMIDENT,Tumor Identification,NON-TARGET,NON-TARGET,,CT SCAN,INDEPENDENT ASSESSOR,RADIOLOGIST 1,Y,3,BASELINE,2013-03-24,1
770,CDISCPILOT01,TU,01-701-1294,8,R1-NT03,TUMIDENT,Tumor Identification,NON-TARGET,NON-TARGET,,CT SCAN,INDEPENDENT ASSESSOR,RADIOLOGIST 1,Y,3,BASELINE,2013-03-24,1
771,CDISCPILOT01,TU,01-701-1294,9,R1-NT04,TUMIDENT,Tumor Identification,NON-TARGET,NON-TARGET,,CT SCAN,INDEPENDENT ASSESSOR,RADIOLOGIST 1,Y,3,BASELINE,2013-03-24,1
772,CDISCPILOT01,TU,01-701-1294,10,R1-NT05,TUMIDENT,Tumor Identification,NON-TARGET,NON-TARGET,,CT SCAN,INDEPENDENT ASSESSOR,RADIOLOGIST 1,Y,3,BASELINE,2013-03-24,1
773,CDISCPILOT01,TU,01-701-1294,11,R1-T01,TUMIDENT,Tumor Identification,TARGET,TARGET,LYMPH NODE,CT SCAN,INDEPENDENT ASSESSOR,RADIOLOGIST 1,Y,3,BASELINE,2013-03-24,1
774,CDISCPILOT01,TU,01-701-1294,12,R1-T02,TUMIDENT,Tumor Identification,TARGET,TARGET,BLADDER,CT SCAN,INDEPENDENT ASSESSOR,RADIOLOGIST 1,Y,3,BASELINE,2013-03-24,1
775,CDISCPILOT01,TU,01-701-1294,13,R1-T03,TUMIDENT,Tumor Identification,TARGET,TARGET,BODY,CT SCAN,INDEPENDENT ASSESSOR,RADIOLOGIST 1,Y,3,BASELINE,2013-03-24,1
776,CDISCPILOT01,TU,01-701-1294,14,R1-T04,TUMIDENT,Tumor Identification,TARGET,TARGET,BONE,CT SCAN,INDEPENDENT ASSESSOR,RADIOLOGIST 1,Y,3,BASELINE,2013-03-24,1
777,CDISCPILOT01,TU,01-701-1294,15,R1-T05,TUMIDENT,Tumor Identification,TARGET,TARGET,BREAST,CT SCAN,INDEPENDENT ASSESSOR,RADIOLOGIST 1,Y,3,BASELINE,2013-03-24,1
778,CDISCPILOT01,TU,01-701-1294,16,R2-NT01,TUMIDENT,Tumor Identification,NON-TARGET,NON-TARGET,,CT SCAN,INDEPENDENT ASSESSOR,RADIOLOGIST 2,,3,BASELINE,2013-03-24,1
779,CDISCPILOT01,TU,01-701-1294,17,R2-NT02,TUMIDENT,Tumor Identification,NON-TARGET,NON-TARGET,,CT SCAN,INDEPENDENT ASSESSOR,RADIOLOGIST 2,,3,BASELINE,2013-03-24,1
780,CDISCPILOT01,TU,01-701-1294,18,R2-NT03,TUMIDENT,Tumor Identification,NON-TARGET,NON-TARGET,,CT SCAN,INDEPENDENT ASSESSOR,RADIOLOGIST 2,,3,BASELINE,2013-03-24,1
781,CDISCPILOT01,TU,01-701-1294,19,R2-NT04,TUMIDENT,Tumor Identification,NON-TARGET,NON-TARGET,,CT SCAN,INDEPENDENT ASSESSOR,RADIOLOGIST 2,,3,BASELINE,2013-03-24,1
782,CDISCPILOT01,TU,01-701-1294,20,R2-NT05,TUMIDENT,Tumor Identification,NON-TARGET,NON-TARGET,,CT SCAN,INDEPENDENT ASSESSOR,RADIOLOGIST 2,,3,BASELINE,2013-03-24,1
783,CDISCPILOT01,TU,01-701-1294,21,R2-T01,TUMIDENT,Tumor Identification,TARGET,TARGET,ABDOMINAL CAVITY,CT SCAN,INDEPENDENT ASSESSOR,RADIOLOGIST 2,,3,BASELINE,2013-03-24,1
784,CDISCPILOT01,TU,01-701-1294,22,R2-T02,TUMIDENT,Tumor Identification,TARGET,TARGET,ADRENAL GLAND,CT SCAN,INDEPENDENT ASSESSOR,RADIOLOGIST 2,,3,BASELINE,2013-03-24,1
785,CDISCPILOT01,TU,01-701-1294,23,R2-T03,TUMIDENT,Tumor Identification,TARGET,TARGET,LYMPH NODE,CT SCAN,INDEPENDENT ASSESSOR,RADIOLOGIST 2,,3,BASELINE,2013-03-24,1
786,CDISCPILOT01,TU,01-701-1294,24,R2-T04,TUMIDENT,Tumor Identification,TARGET,TARGET,BLADDER,CT SCAN,INDEPENDENT ASSESSOR,RADIOLOGIST 2,,3,BASELINE,2013-03-24,1
787,CDISCPILOT01,TU,01-701-1294,25,R2-T05,TUMIDENT,Tumor Identification,TARGET,TARGET,BODY,CT SCAN,INDEPENDENT ASSESSOR,RADIOLOGIST 2,,3,BASELINE,2013-03-24,1
788,CDISCPILOT01,TU,01-701-1294,26,T01,TUMIDENT,Tumor Identification,TARGET,TARGET,ABDOMINAL CAVITY,CT SCAN,INVESTIGATOR,,,3,BASELINE,2013-03-24,1
789,CDISCPILOT01,TU,01-701-1294,27,T02,TUMIDENT,Tumor Identification,TARGET,TARGET,ADRENAL GLAND,CT SCAN,INVESTIGATOR,,,3,BASELINE,2013-03-24,1
790,CDISCPILOT01,TU,01-701-1294,28,T03,TUMIDENT,Tumor Identification,TARGET,TARGET,LYMPH NODE,CT SCAN,INVESTIGATOR,,,3,BASELINE,2013-03-24,1
791,CDISCPILOT01,TU,01-701-1294,29,T04,TUMIDENT,Tumor Identification,TARGET,TARGET,BLADDER,CT SCAN,INVESTIGATOR,,,3,BASELINE,2013-03-24,1
792,CDISCPILOT01,TU,01-701-1294,30,T05,TUMIDENT,Tumor Identification,TARGET,TARGET,BODY,CT SCAN,INVESTIGATOR,,,3,BASELINE,2013-03-24,1
793,CDISCPILOT01,TU,01-701-1302,1,NT01,TUMIDENT,Tumor Identification,NON-TARGET,NON-TARGET,,CT SCAN,INVESTIGATOR,,,3,BASELINE,2013-08-29,1
794,CDISCPILOT01,TU,01-701-1302,2,NT02,TUMIDENT,Tumor Identification,NON-TARGET,NON-TARGET,,CT SCAN,INVESTIGATOR,,,3,BASELINE,2013-08-29,1
795,CDISCPILOT01,TU,01-701-1302,3,NT03,TUMIDENT,Tumor Identification,NON-TARGET,NON-TARGET,,CT SCAN,INVESTIGATOR,,,3,BASELINE,2013-08-29,1
796,CDISCPILOT01,TU,01-701-1302,4,NT04,TUMIDENT,Tumor Identification,NON-TARGET,NON-TARGET,,CT SCAN,INVESTIGATOR,,,3,BASELINE,2013-08-29,1
797,CDISCPILOT01,TU,01-701-1302,5,NT05,TUMIDENT,Tumor Identification,NON-TARGET,NON-TARGET,,CT SCAN,INVESTIGATOR,,,3,BASELINE,2013-08-29,1
798,CDISCPILOT01,TU,01-701-1302,6,R1-NT01,TUMIDENT,Tumor Identification,NON-TARGET,NON-TARGET,,CT SCAN,INDEPENDENT ASSESSOR,RADIOLOGIST 1,Y,3,BASELINE,2013-08-29,1
799,CDISCPILOT01,TU,01-701-1302,7,R1-NT02,TUMIDENT,Tumor Identification,NON-TARGET,NON-TARGET,,CT SCAN,INDEPENDENT ASSESSOR,RADIOLOGIST 1,Y,3,BASELINE,2013-08-29,1
800,CDISCPILOT01,TU,01-701-1302,8,R1-NT03,TUMIDENT,Tumor Identification,NON-TARGET,NON-TARGET,,CT SCAN,INDEPENDENT ASSESSOR,RADIOLOGIST 1,Y,3,BASELINE,2013-08-29,1
801,CDISCPILOT01,TU,01-701-1302,9,R1-NT04,TUMIDENT,Tumor Identification,NON-TARGET,NON-TARGET,,CT SCAN,INDEPENDENT ASSESSOR,RADIOLOGIST 1,Y,3,BASELINE,2013-08-29,1
802,CDISCPILOT01,TU,01-701-1302,10,R1-NT05,TUMIDENT,Tumor Identification,NON-TARGET,NON-TARGET,,CT SCAN,INDEPENDENT ASSESSOR,RADIOLOGIST 1,Y,3,BASELINE,2013-08-29,1
803,CDISCPILOT01,TU,01-701-1302,11,R1-T01,TUMIDENT,Tumor Identification,TARGET,TARGET,BLADDER,CT SCAN,INDEPENDENT ASSESSOR,RADIOLOGIST 1,Y,3,BASELINE,2013-08-29,1
804,CDISCPILOT01,TU,01-701-1302,12,R1-T02,TUMIDENT,Tumor Identification,TARGET,TARGET,BODY,CT SCAN,INDEPENDENT ASSESSOR,RADIOLOGIST 1,Y,3,BASELINE,2013-08-29,1
805,CDISCPILOT01,TU,01-701-1302,13,R1-T03,TUMIDENT,Tumor Identification,TARGET,TARGET,BONE,CT SCAN,INDEPENDENT ASSESSOR,RADIOLOGIST 1,Y,3,BASELINE,2013-08-29,1
806,CDISCPILOT01,TU,01-701-1302,14,R1-T04,TUMIDENT,Tumor Identification,TARGET,TARGET,BREAST,CT SCAN,INDEPENDENT ASSESSOR,RADIOLOGIST 1,Y,3,BASELINE,2013-08-29,1
807,CDISCPILOT01,TU,01-701-1302,15,R1-T05,TUMIDENT,Tumor Identification,TARGET,TARGET,CHEST,CT SCAN,INDEPENDENT ASSESSOR,RADIOLOGIST 1,Y,3,BASELINE,2013-08-29,1
808,CDISCPILOT01,TU,01-701-1302,16,R2-NT01,TUMIDENT,Tumor Identification,NON-TARGET,NON-TARGET,,CT SCAN,INDEPENDENT ASSESSOR,RADIOLOGIST 2,,3,BASELINE,2013-08-29,1
809,CDISCPILOT01,TU,01-701-1302,17,R2-NT02,TUMIDENT,Tumor Identification,NON-TARGET,NON-TARGET,,CT SCAN,INDEPENDENT ASSESSOR,RADIOLOGIST 2,,3,BASELINE,2013-08-29,1
810,CDISCPILOT01,TU,01-701-1302,18,R2-NT03,TUMIDENT,Tumor Identification,NON-TARGET,NON-TARGET,,CT SCAN,INDEPENDENT ASSESSOR,RADIOLOGIST 2,,3,BASELINE,2013-08-29,1
811,CDISCPILOT01,TU,01-701-1302,19,R2-NT04,TUMIDENT,Tumor Identification,NON-TARGET,NON-TARGET,,CT SCAN,INDEPENDENT ASSESSOR,RADIOLOGIST 2,,3,BASELINE,2013-08-29,1
812,CDISCPILOT01,TU,01-701-1302,20,R2-NT05,TUMIDENT,Tumor Identification,NON-TARGET,NON-TARGET,,CT SCAN,INDEPENDENT ASSESSOR,RADIOLOGIST 2,,3,BASELINE,2013-08-29,1
813,CDISCPILOT01,TU,01-701-1302,21,R2-T01,TUMIDENT,Tumor Identification,TARGET,TARGET,ABDOMINAL CAVITY,CT SCAN,INDEPENDENT ASSESSOR,RADIOLOGIST 2,,3,BASELINE,2013-08-29,1
814,CDISCPILOT01,TU,01-701-1302,22,R2-T02,TUMIDENT,Tumor Identification,TARGET,TARGET,ADRENAL GLAND,CT SCAN,INDEPENDENT ASSESSOR,RADIOLOGIST 2,,3,BASELINE,2013-08-29,1
815,CDISCPILOT01,TU,01-701-1302,23,R2-T03,TUMIDENT,Tumor Identification,TARGET,TARGET,LYMPH NODE,CT SCAN,INDEPENDENT ASSESSOR,RADIOLOGIST 2,,3,BASELINE,2013-08-29,1
816,CDISCPILOT01,TU,01-701-1302,24,R2-T04,TUMIDENT,Tumor Identification,TARGET,TARGET,BLADDER,CT SCAN,INDEPENDENT ASSESSOR,RADIOLOGIST 2,,3,BASELINE,2013-08-29,1
817,CDISCPILOT01,TU,01-701-1302,25,R2-T05,TUMIDENT,Tumor Identification,TARGET,TARGET,BODY,CT SCAN,INDEPENDENT ASSESSOR,RADIOLOGIST 2,,3,BASELINE,2013-08-29,1
818,CDISCPILOT01,TU,01-701-1302,26,T01,TUMIDENT,Tumor Identification,TARGET,TARGET,LYMPH NODE,CT SCAN,INVESTIGATOR,,,3,BASELINE,2013-08-29,1
819,CDISCPILOT01,TU,01-701-1302,27,T02,TUMIDENT,Tumor Identification,TARGET,TARGET,BLADDER,CT SCAN,INVESTIGATOR,,,3,BASELINE,2013-08-29,1
820,CDISCPILOT01,TU,01-701-1302,28,T03,TUMIDENT,Tumor Identification,TARGET,TARGET,BODY,CT SCAN,INVESTIGATOR,,,3,BASELINE,2013-08-29,1
821,CDISCPILOT01,TU,01-701-1302,29,T04,TUMIDENT,Tumor Identification,TARGET,TARGET,BONE,CT SCAN,INVESTIGATOR,,,3,BASELINE,2013-08-29,1
822,CDISCPILOT01,TU,01-701-1302,30,T05,TUMIDENT,Tumor Identification,TARGET,TARGET,BREAST,CT SCAN,INVESTIGATOR,,,3,BASELINE,2013-08-29,1
823,CDISCPILOT01,TU,01-701-1317,1,NT01,TUMIDENT,Tumor Identification,NON-TARGET,NON-TARGET,,CT SCAN,INVESTIGATOR,,,3,BASELINE,2014-05-22,1
824,CDISCPILOT01,TU,01-701-1317,2,NT02,TUMIDENT,Tumor Identification,NON-TARGET,NON-TARGET,,CT SCAN,INVESTIGATOR,,,3,BASELINE,2014-05-22,1
825,CDISCPILOT01,TU,01-701-1317,3,NT03,TUMIDENT,Tumor Identification,NON-TARGET,NON-TARGET,,CT SCAN,INVESTIGATOR,,,3,BASELINE,2014-05-22,1
826,CDISCPILOT01,TU,01-701-1317,4,NT04,TUMIDENT,Tumor Identification,NON-TARGET,NON-TARGET,,CT SCAN,INVESTIGATOR,,,3,BASELINE,2014-05-22,1
827,CDISCPILOT01,TU,01-701-1317,5,NT05,TUMIDENT,Tumor Identification,NON-TARGET,NON-TARGET,,CT SCAN,INVESTIGATOR,,,3,BASELINE,2014-05-22,1
828,CDISCPILOT01,TU,01-701-1317,6,R1-NT01,TUMIDENT,Tumor Identification,NON-TARGET,NON-TARGET,,CT SCAN,INDEPENDENT ASSESSOR,RADIOLOGIST 1,Y,3,BASELINE,2014-05-22,1
829,CDISCPILOT01,TU,01-701-1317,7,R1-NT02,TUMIDENT,Tumor Identification,NON-TARGET,NON-TARGET,,CT SCAN,INDEPENDENT ASSESSOR,RADIOLOGIST 1,Y,3,BASELINE,2014-05-22,1
830,CDISCPILOT01,TU,01-701-1317,8,R1-NT03,TUMIDENT,Tumor Identification,NON-TARGET,NON-TARGET,,CT SCAN,INDEPENDENT ASSESSOR,RADIOLOGIST 1,Y,3,BASELINE,2014-05-22,1
831,CDISCPILOT01,TU,01-701-1317,9,R1-NT04,TUMIDENT,Tumor Identification,NON-TARGET,NON-TARGET,,CT SCAN,INDEPENDENT ASSESSOR,RADIOLOGIST 1,Y,3,BASELINE,2014-05-22,1
832,CDISCPILOT01,TU,01-701-1317,10,R1-NT05,TUMIDENT,Tumor Identification,NON-TARGET,NON-TARGET,,CT SCAN,INDEPENDENT ASSESSOR,RADIOLOGIST 1,Y,3,BASELINE,2014-05-22,1
833,CDISCPILOT01,TU,01-701-1317,11,R1-T01,TUMIDENT,Tumor Identification,TARGET,TARGET,ADRENAL GLAND,CT SCAN,INDEPENDENT ASSESSOR,RADIOLOGIST 1,Y,3,BASELINE,2014-05-22,1
834,CDISCPILOT01,TU,01-701-1317,12,R1-T02,TUMIDENT,Tumor Identification,TARGET,TARGET,LYMPH NODE,CT SCAN,INDEPENDENT ASSESSOR,RADIOLOGIST 1,Y,3,BASELINE,2014-05-22,1
835,CDISCPILOT01,TU,01-701-1317,13,R1-T03,TUMIDENT,Tumor Identification,TARGET,TARGET,BLADDER,CT SCAN,INDEPENDENT ASSESSOR,RADIOLOGIST 1,Y,3,BASELINE,2014-05-22,1
836,CDISCPILOT01,TU,01-701-1317,14,R1-T04,TUMIDENT,Tumor Identification,TARGET,TARGET,BODY,CT SCAN,INDEPENDENT ASSESSOR,RADIOLOGIST 1,Y,3,BASELINE,2014-05-22,1
837,CDISCPILOT01,TU,01-701-1317,15,R1-T05,TUMIDENT,Tumor Identification,TARGET,TARGET,BONE,CT SCAN,INDEPENDENT ASSESSOR,RADIOLOGIST 1,Y,3,BASELINE,2014-05-22,1
838,CDISCPILOT01,TU,01-701-1317,16,R2-NT01,TUMIDENT,Tumor Identification,NON-TARGET,NON-TARGET,,CT SCAN,INDEPENDENT ASSESSOR,RADIOLOGIST 2,,3,BASELINE,2014-05-22,1
839,CDISCPILOT01,TU,01-701-1317,17,R2-NT02,TUMIDENT,Tumor Identification,NON-TARGET,NON-TARGET,,CT SCAN,INDEPENDENT ASSESSOR,RADIOLOGIST 2,,3,BASELINE,2014-05-22,1
840,CDISCPILOT01,TU,01-701-1317,18,R2-NT03,TUMIDENT,Tumor Identification,NON-TARGET,NON-TARGET,,CT SCAN,INDEPENDENT ASSESSOR,RADIOLOGIST 2,,3,BASELINE,2014-05-22,1
841,CDISCPILOT01,TU,01-701-1317,19,R2-NT04,TUMIDENT,Tumor Identification,NON-TARGET,NON-TARGET,,CT SCAN,INDEPENDENT ASSESSOR,RADIOLOGIST 2,,3,BASELINE,2014-05-22,1
842,CDISCPILOT01,TU,01-701-1317,20,R2-NT05,TUMIDENT,Tumor Identification,NON-TARGET,NON-TARGET,,CT SCAN,INDEPENDENT ASSESSOR,RADIOLOGIST 2,,3,BASELINE,2014-05-22,1
843,CDISCPILOT01,TU,01-701-1317,21,R2-T01,TUMIDENT,Tumor Identification,TARGET,TARGET,ABDOMINAL CAVITY,CT SCAN,INDEPENDENT ASSESSOR,RADIOLOGIST 2,,3,BASELINE,2014-05-22,1
844,CDISCPILOT01,TU,01-701-1317,22,R2-T02,TUMIDENT,Tumor Identification,TARGET,TARGET,ADRENAL GLAND,CT SCAN,INDEPENDENT ASSESSOR,RADIOLOGIST 2,,3,BASELINE,2014-05-22,1
845,CDISCPILOT01,TU,01-701-1317,23,R2-T03,TUMIDENT,Tumor Identification,TARGET,TARGET,LYMPH NODE,CT SCAN,INDEPENDENT ASSESSOR,RADIOLOGIST 2,,3,BASELINE,2014-05-22,1
846,CDISCPILOT01,TU,01-701-1317,24,R2-T04,TUMIDENT,Tumor Identification,TARGET,TARGET,BLADDER,CT SCAN,INDEPENDENT ASSESSOR,RADIOLOGIST 2,,3,BASELINE,2014-05-22,1
847,CDISCPILOT01,TU,01-701-1317,25,R2-T05,TUMIDENT,Tumor Identification,TARGET,TARGET,BODY,CT SCAN,INDEPENDENT ASSESSOR,RADIOLOGIST 2,,3,BASELINE,2014-05-22,1
848,CDISCPILOT01,TU,01-701-1317,26,T01,TUMIDENT,Tumor Identification,TARGET,TARGET,BLADDER,CT SCAN,INVESTIGATOR,,,3,BASELINE,2014-05-22,1
849,CDISCPILOT01,TU,01-701-1317,27,T02,TUMIDENT,Tumor Identification,TARGET,TARGET,BODY,CT SCAN,INVESTIGATOR,,,3,BASELINE,2014-05-22,1
850,CDISCPILOT01,TU,01-701-1317,28,T03,TUMIDENT,Tumor Identification,TARGET,TARGET,BONE,CT SCAN,INVESTIGATOR,,,3,BASELINE,2014-05-22,1
851,CDISCPILOT01,TU,01-701-1317,29,T04,TUMIDENT,Tumor Identification,TARGET,TARGET,BREAST,CT SCAN,INVESTIGATOR,,,3,BASELINE,2014-05-22,1
852,CDISCPILOT01,TU,01-701-1317,30,T05,TUMIDENT,Tumor Identification,TARGET,TARGET,CHEST,CT SCAN,INVESTIGATOR,,,3,BASELINE,2014-05-22,1
853,CDISCPILOT01,TU,01-701-1324,1,NT01,TUMIDENT,Tumor Identification,NON-TARGET,NON-TARGET,,CT SCAN,INVESTIGATOR,,,3,BASELINE,2012-10-02,1
854,CDISCPILOT01,TU,01-701-1324,2,NT02,TUMIDENT,Tumor Identification,NON-TARGET,NON-TARGET,,CT SCAN,INVESTIGATOR,,,3,BASELINE,2012-10-02,1
855,CDISCPILOT01,TU,01-701-1324,3,NT03,TUMIDENT,Tumor Identification,NON-TARGET,NON-TARGET,,CT SCAN,INVESTIGATOR,,,3,BASELINE,2012-10-02,1
856,CDISCPILOT01,TU,01-701-1324,4,NT04,TUMIDENT,Tumor Identification,NON-TARGET,NON-TARGET,,CT SCAN,INVESTIGATOR,,,3,BASELINE,2012-10-02,1
857,CDISCPILOT01,TU,01-701-1324,5,NT05,TUMIDENT,Tumor Identification,NON-TARGET,NON-TARGET,,CT SCAN,INVESTIGATOR,,,3,BASELINE,2012-10-02,1
858,CDISCPILOT01,TU,01-701-1324,6,R1-NT01,TUMIDENT,Tumor Identification,NON-TARGET,NON-TARGET,,CT SCAN,INDEPENDENT ASSESSOR,RADIOLOGIST 1,Y,3,BASELINE,2012-10-02,1
859,CDISCPILOT01,TU,01-701-1324,7,R1-NT02,TUMIDENT,Tumor Identification,NON-TARGET,NON-TARGET,,CT SCAN,INDEPENDENT ASSESSOR,RADIOLOGIST 1,Y,3,BASELINE,2012-10-02,1
860,CDISCPILOT01,TU,01-701-1324,8,R1-NT03,TUMIDENT,Tumor Identification,NON-TARGET,NON-TARGET,,CT SCAN,INDEPENDENT ASSESSOR,RADIOLOGIST 1,Y,3,BASELINE,2012-10-02,1
861,CDISCPILOT01,TU,01-701-1324,9,R1-NT04,TUMIDENT,Tumor Identification,NON-TARGET,NON-TARGET,,CT SCAN,INDEPENDENT ASSESSOR,RADIOLOGIST 1,Y,3,BASELINE,2012-10-02,1
862,CDISCPILOT01,TU,01-701-1324,10,R1-NT05,TUMIDENT,Tumor Identification,NON-TARGET,NON-TARGET,,CT SCAN,INDEPENDENT ASSESSOR,RADIOLOGIST 1,Y,3,BASELINE,2012-10-02,1
863,CDISCPILOT01,TU,01-701-1324,11,R1-T01,TUMIDENT,Tumor Identification,TARGET,TARGET,BLADDER,CT SCAN,INDEPENDENT ASSESSOR,RADIOLOGIST 1,Y,3,BASELINE,2012-10-02,1
864,CDISCPILOT01,TU,01-701-1324,12,R1-T02,TUMIDENT,Tumor Identification,TARGET,TARGET,BODY,CT SCAN,INDEPENDENT ASSESSOR,RADIOLOGIST 1,Y,3,BASELINE,2012-10-02,1
865,CDISCPILOT01,TU,01-701-1324,13,R1-T03,TUMIDENT,Tumor Identification,TARGET,TARGET,BONE,CT SCAN,INDEPENDENT ASSESSOR,RADIOLOGIST 1,Y,3,BASELINE,2012-10-02,1
866,CDISCPILOT01,TU,01-701-1324,14,R1-T04,TUMIDENT,Tumor Identification,TARGET,TARGET,BREAST,CT SCAN,INDEPENDENT ASSESSOR,RADIOLOGIST 1,Y,3,BASELINE,2012-10-02,1
867,CDISCPILOT01,TU,01-701-1324,15,R1-T05,TUMIDENT,Tumor Identification,TARGET,TARGET,CHEST,CT SCAN,INDEPENDENT ASSESSOR,RADIOLOGIST 1,Y,3,BASELINE,2012-10-02,1
868,CDISCPILOT01,TU,01-701-1324,16,R2-NT01,TUMIDENT,Tumor Identification,NON-TARGET,NON-TARGET,,CT SCAN,INDEPENDENT ASSESSOR,RADIOLOGIST 2,,3,BASELINE,2012-10-02,1
869,CDISCPILOT01,TU,01-701-1324,17,R2-NT02,TUMIDENT,Tumor Identification,NON-TARGET,NON-TARGET,,CT SCAN,INDEPENDENT ASSESSOR,RADIOLOGIST 2,,3,BASELINE,2012-10-02,1
870,CDISCPILOT01,TU,01-701-1324,18,R2-NT03,TUMIDENT,Tumor Identification,NON-TARGET,NON-TARGET,,CT SCAN,INDEPENDENT ASSESSOR,RADIOLOGIST 2,,3,BASELINE,2012-10-02,1
871,CDISCPILOT01,TU,01-701-1324,19,R2-NT04,TUMIDENT,Tumor Identification,NON-TARGET,NON-TARGET,,CT SCAN,INDEPENDENT ASSESSOR,RADIOLOGIST 2,,3,BASELINE,2012-10-02,1
872,CDISCPILOT01,TU,01-701-1324,20,R2-NT05,TUMIDENT,Tumor Identification,NON-TARGET,NON-TARGET,,CT SCAN,INDEPENDENT ASSESSOR,RADIOLOGIST 2,,3,BASELINE,2012-10-02,1
873,CDISCPILOT01,TU,01-701-1324,21,R2-T01,TUMIDENT,Tumor Identification,TARGET,TARGET,BLADDER,CT SCAN,INDEPENDENT ASSESSOR,RADIOLOGIST 2,,3,BASELINE,2012-10-02,1
874,CDISCPILOT01,TU,01-701-1324,22,R2-T02,TUMIDENT,Tumor Identification,TARGET,TARGET,BODY,CT SCAN,INDEPENDENT ASSESSOR,RADIOLOGIST 2,,3,BASELINE,2012-10-02,1
875,CDISCPILOT01,TU,01-701-1324,23,R2-T03,TUMIDENT,Tumor Identification,TARGET,TARGET,BONE,CT SCAN,INDEPENDENT ASSESSOR,RADIOLOGIST 2,,3,BASELINE,2012-10-02,1
876,CDISCPILOT01,TU,01-701-1324,24,R2-T04,TUMIDENT,Tumor Identification,TARGET,TARGET,BREAST,CT SCAN,INDEPENDENT ASSESSOR,RADIOLOGIST 2,,3,BASELINE,2012-10-02,1
877,CDISCPILOT01,TU,01-701-1324,25,R2-T05,TUMIDENT,Tumor Identification,TARGET,TARGET,CHEST,CT SCAN,INDEPENDENT ASSESSOR,RADIOLOGIST 2,,3,BASELINE,2012-10-02,1
878,CDISCPILOT01,TU,01-701-1324,26,T01,TUMIDENT,Tumor Identification,TARGET,TARGET,LYMPH NODE,CT SCAN,INVESTIGATOR,,,3,BASELINE,2012-10-02,1
879,CDISCPILOT01,TU,01-701-1324,27,T02,TUMIDENT,Tumor Identification,TARGET,TARGET,BLADDER,CT SCAN,INVESTIGATOR,,,3,BASELINE,2012-10-02,1
880,CDISCPILOT01,TU,01-701-1324,28,T03,TUMIDENT,Tumor Identification,TARGET,TARGET,BODY,CT SCAN,INVESTIGATOR,,,3,BASELINE,2012-10-02,1
881,CDISCPILOT01,TU,01-701-1324,29,T04,TUMIDENT,Tumor Identification,TARGET,TARGET,BONE,CT SCAN,INVESTIGATOR,,,3,BASELINE,2012-10-02,1
882,CDISCPILOT01,TU,01-701-1324,30,T05,TUMIDENT,Tumor Identification,TARGET,TARGET,BREAST,CT SCAN,INVESTIGATOR,,,3,BASELINE,2012-10-02,1
883,CDISCPILOT01,TU,01-701-1324,31,NEW01,TUMIDENT,Tumor Identification,NEW,NEW,,CT SCAN,INVESTIGATOR,,,12,WEEK 24,2013-03-19,168
884,CDISCPILOT01,TU,01-701-1324,32,R1-NEW01,TUMIDENT,Tumor Identification,NEW,NEW,,CT SCAN,INDEPENDENT ASSESSOR,RADIOLOGIST 1,Y,12,WEEK 24,2013-03-19,168
885,CDISCPILOT01,TU,01-701-1324,33,R2-NEW01,TUMIDENT,Tumor Identification,NEW,NEW,,CT SCAN,INDEPENDENT ASSESSOR,RADIOLOGIST 2,,12,WEEK 24,2013-03-19,168
886,CDISCPILOT01,TU,01-701-1341,1,NT01,TUMIDENT,Tumor Identification,NON-TARGET,NON-TARGET,,CT SCAN,INVESTIGATOR,,,3,BASELINE,2013-01-05,1
887,CDISCPILOT01,TU,01-701-1341,2,NT02,TUMIDENT,Tumor Identification,NON-TARGET,NON-TARGET,,CT SCAN,INVESTIGATOR,,,3,BASELINE,2013-01-05,1
888,CDISCPILOT01,TU,01-701-1341,3,NT03,TUMIDENT,Tumor Identification,NON-TARGET,NON-TARGET,,CT SCAN,INVESTIGATOR,,,3,BASELINE,2013-01-05,1
889,CDISCPILOT01,TU,01-701-1341,4,NT04,TUMIDENT,Tumor Identification,NON-TARGET,NON-TARGET,,CT SCAN,INVESTIGATOR,,,3,BASELINE,2013-01-05,1
890,CDISCPILOT01,TU,01-701-1341,5,NT05,TUMIDENT,Tumor Identification,NON-TARGET,NON-TARGET,,CT SCAN,INVESTIGATOR,,,3,BASELINE,2013-01-05,1
891,CDISCPILOT01,TU,01-701-1341,6,R1-NT01,TUMIDENT,Tumor Identification,NON-TARGET,NON-TARGET,,CT SCAN,INDEPENDENT ASSESSOR,RADIOLOGIST 1,Y,3,BASELINE,2013-01-05,1
892,CDISCPILOT01,TU,01-701-1341,7,R1-NT02,TUMIDENT,Tumor Identification,NON-TARGET,NON-TARGET,,CT SCAN,INDEPENDENT ASSESSOR,RADIOLOGIST 1,Y,3,BASELINE,2013-01-05,1
893,CDISCPILOT01,TU,01-701-1341,8,R1-NT03,TUMIDENT,Tumor Identification,NON-TARGET,NON-TARGET,,CT SCAN,INDEPENDENT ASSESSOR,RADIOLOGIST 1,Y,3,BASELINE,2013-01-05,1
894,CDISCPILOT01,TU,01-701-1341,9,R1-NT04,TUMIDENT,Tumor Identification,NON-TARGET,NON-TARGET,,CT SCAN,INDEPENDENT ASSESSOR,RADIOLOGIST 1,Y,3,BASELINE,2013-01-05,1
895,CDISCPILOT01,TU,01-701-1341,10,R1-NT05,TUMIDENT,Tumor Identification,NON-TARGET,NON-TARGET,,CT SCAN,INDEPENDENT ASSESSOR,RADIOLOGIST 1,Y,3,BASELINE,2013-01-05,1
896,CDISCPILOT01,TU,01-701-1341,11,R1-T01,TUMIDENT,Tumor Identification,TARGET,TARGET,BLADDER,CT SCAN,INDEPENDENT ASSESSOR,RADIOLOGIST 1,Y,3,BASELINE,2013-01-05,1
897,CDISCPILOT01,TU,01-701-1341,12,R1-T02,TUMIDENT,Tumor Identification,TARGET,TARGET,BODY,CT SCAN,INDEPENDENT ASSESSOR,RADIOLOGIST 1,Y,3,BASELINE,2013-01-05,1
898,CDISCPILOT01,TU,01-701-1341,13,R1-T03,TUMIDENT,Tumor Identification,TARGET,TARGET,BONE,CT SCAN,INDEPENDENT ASSESSOR,RADIOLOGIST 1,Y,3,BASELINE,2013-01-05,1
899,CDISCPILOT01,TU,01-701-1341,14,R1-T04,TUMIDENT,Tumor Identification,TARGET,TARGET,BREAST,CT SCAN,INDEPENDENT ASSESSOR,RADIOLOGIST 1,Y,3,BASELINE,2013-01-05,1
900,CDISCPILOT01,TU,01-701-1341,15,R1-T05,TUMIDENT,Tumor Identification,TARGET,TARGET,CHEST,CT SCAN,INDEPENDENT ASSESSOR,RADIOLOGIST 1,Y,3,BASELINE,2013-01-05,1
901,CDISCPILOT01,TU,01-701-1341,16,R2-NT01,TUMIDENT,Tumor Identification,NON-TARGET,NON-TARGET,,CT SCAN,INDEPENDENT ASSESSOR,RADIOLOGIST 2,,3,BASELINE,2013-01-05,1
902,CDISCPILOT01,TU,01-701-1341,17,R2-NT02,TUMIDENT,Tumor Identification,NON-TARGET,NON-TARGET,,CT SCAN,INDEPENDENT ASSESSOR,RADIOLOGIST 2,,3,BASELINE,2013-01-05,1
903,CDISCPILOT01,TU,01-701-1341,18,R2-NT03,TUMIDENT,Tumor Identification,NON-TARGET,NON-TARGET,,CT SCAN,INDEPENDENT ASSESSOR,RADIOLOGIST 2,,3,BASELINE,2013-01-05,1
904,CDISCPILOT01,TU,01-701-1341,19,R2-NT04,TUMIDENT,Tumor Identification,NON-TARGET,NON-TARGET,,CT SCAN,INDEPENDENT ASSESSOR,RADIOLOGIST 2,,3,BASELINE,2013-01-05,1
905,CDISCPILOT01,TU,01-701-1341,20,R2-NT05,TUMIDENT,Tumor Identification,NON-TARGET,NON-TARGET,,CT SCAN,INDEPENDENT ASSESSOR,RADIOLOGIST 2,,3,BASELINE,2013-01-05,1
906,CDISCPILOT01,TU,01-701-1341,21,R2-T01,TUMIDENT,Tumor Identification,TARGET,TARGET,LYMPH NODE,CT SCAN,INDEPENDENT ASSESSOR,RADIOLOGIST 2,,3,BASELINE,2013-01-05,1
907,CDISCPILOT01,TU,01-701-1341,22,R2-T02,TUMIDENT,Tumor Identification,TARGET,TARGET,BLADDER,CT SCAN,INDEPENDENT ASSESSOR,RADIOLOGIST 2,,3,BASELINE,2013-01-05,1
908,CDISCPILOT01,TU,01-701-1341,23,R2-T03,TUMIDENT,Tumor Identification,TARGET,TARGET,BODY,CT SCAN,INDEPENDENT ASSESSOR,RADIOLOGIST 2,,3,BASELINE,2013-01-05,1
909,CDISCPILOT01,TU,01-701-1341,24,R2-T04,TUMIDENT,Tumor Identification,TARGET,TARGET,BONE,CT SCAN,INDEPENDENT ASSESSOR,RADIOLOGIST 2,,3,BASELINE,2013-01-05,1
910,CDISCPILOT01,TU,01-701-1341,25,R2-T05,TUMIDENT,Tumor Identification,TARGET,TARGET,BREAST,CT SCAN,INDEPENDENT ASSESSOR,RADIOLOGIST 2,,3,BASELINE,2013-01-05,1
911,CDISCPILOT01,TU,01-701-1341,26,T01,TUMIDENT,Tumor Identification,TARGET,TARGET,ABDOMINAL CAVITY,CT SCAN,INVESTIGATOR,,,3,BASELINE,2013-01-05,1
912,CDISCPILOT01,TU,01-701-1341,27,T02,TUMIDENT,Tumor Identification,TARGET,TARGET,ADRENAL GLAND,CT SCAN,INVESTIGATOR,,,3,BASELINE,2013-01-05,1
913,CDISCPILOT01,TU,01-701-1341,28,T03,TUMIDENT,Tumor Identification,TARGET,TARGET,LYMPH NODE,CT SCAN,INVESTIGATOR,,,3,BASELINE,2013-01-05,1
914,CDISCPILOT01,TU,01-701-1341,29,T04,TUMIDENT,Tumor Identification,TARGET,TARGET,BLADDER,CT SCAN,INVESTIGATOR,,,3,BASELINE,2013-01-05,1
915,CDISCPILOT01,TU,01-701-1341,30,T05,TUMIDENT,Tumor Identification,TARGET,TARGET,BODY,CT SCAN,INVESTIGATOR,,,3,BASELINE,2013-01-05,1
916,CDISCPILOT01,TU,01-701-1345,1,NT01,TUMIDENT,Tumor Identification,NON-TARGET,NON-TARGET,,CT SCAN,INVESTIGATOR,,,3,BASELINE,2013-10-08,1
917,CDISCPILOT01,TU,01-701-1345,2,NT02,TUMIDENT,Tumor Identification,NON-TARGET,NON-TARGET,,CT SCAN,INVESTIGATOR,,,3,BASELINE,2013-10-08,1
918,CDISCPILOT01,TU,01-701-1345,3,NT03,TUMIDENT,Tumor Identification,NON-TARGET,NON-TARGET,,CT SCAN,INVESTIGATOR,,,3,BASELINE,2013-10-08,1
919,CDISCPILOT01,TU,01-701-1345,4,NT04,TUMIDENT,Tumor Identification,NON-TARGET,NON-TARGET,,CT SCAN,INVESTIGATOR,,,3,BASELINE,2013-10-08,1
920,CDISCPILOT01,TU,01-701-1345,5,NT05,TUMIDENT,Tumor Identification,NON-TARGET,NON-TARGET,,CT SCAN,INVESTIGATOR,,,3,BASELINE,2013-10-08,1
921,CDISCPILOT01,TU,01-701-1345,6,R1-NT01,TUMIDENT,Tumor Identification,NON-TARGET,NON-TARGET,,CT SCAN,INDEPENDENT ASSESSOR,RADIOLOGIST 1,Y,3,BASELINE,2013-10-08,1
922,CDISCPILOT01,TU,01-701-1345,7,R1-NT02,TUMIDENT,Tumor Identification,NON-TARGET,NON-TARGET,,CT SCAN,INDEPENDENT ASSESSOR,RADIOLOGIST 1,Y,3,BASELINE,2013-10-08,1
923,CDISCPILOT01,TU,01-701-1345,8,R1-NT03,TUMIDENT,Tumor Identification,NON-TARGET,NON-TARGET,,CT SCAN,INDEPENDENT ASSESSOR,RADIOLOGIST 1,Y,3,BASELINE,2013-10-08,1
924,CDISCPILOT01,TU,01-701-1345,9,R1-NT04,TUMIDENT,Tumor Identification,NON-TARGET,NON-TARGET,,CT SCAN,INDEPENDENT ASSESSOR,RADIOLOGIST 1,Y,3,BASELINE,2013-10-08,1
925,CDISCPILOT01,TU,01-701-1345,10,R1-NT05,TUMIDENT,Tumor Identification,NON-TARGET,NON-TARGET,,CT SCAN,INDEPENDENT ASSESSOR,RADIOLOGIST 1,Y,3,BASELINE,2013-10-08,1
926,CDISCPILOT01,TU,01-701-1345,11,R1-T01,TUMIDENT,Tumor Identification,TARGET,TARGET,ADRENAL GLAND,CT SCAN,INDEPENDENT ASSESSOR,RADIOLOGIST 1,Y,3,BASELINE,2013-10-08,1
927,CDISCPILOT01,TU,01-701-1345,12,R1-T02,TUMIDENT,Tumor Identification,TARGET,TARGET,LYMPH NODE,CT SCAN,INDEPENDENT ASSESSOR,RADIOLOGIST 1,Y,3,BASELINE,2013-10-08,1
928,CDISCPILOT01,TU,01-701-1345,13,R1-T03,TUMIDENT,Tumor Identification,TARGET,TARGET,BLADDER,CT SCAN,INDEPENDENT ASSESSOR,RADIOLOGIST 1,Y,3,BASELINE,2013-10-08,1
929,CDISCPILOT01,TU,01-701-1345,14,R1-T04,TUMIDENT,Tumor Identification,TARGET,TARGET,BODY,CT SCAN,INDEPENDENT ASSESSOR,RADIOLOGIST 1,Y,3,BASELINE,2013-10-08,1
930,CDISCPILOT01,TU,01-701-1345,15,R1-T05,TUMIDENT,Tumor Identification,TARGET,TARGET,BONE,CT SCAN,INDEPENDENT ASSESSOR,RADIOLOGIST 1,Y,3,BASELINE,2013-10-08,1
931,CDISCPILOT01,TU,01-701-1345,16,R2-NT01,TUMIDENT,Tumor Identification,NON-TARGET,NON-TARGET,,CT SCAN,INDEPENDENT ASSESSOR,RADIOLOGIST 2,,3,BASELINE,2013-10-08,1
932,CDISCPILOT01,TU,01-701-1345,17,R2-NT02,TUMIDENT,Tumor Identification,NON-TARGET,NON-TARGET,,CT SCAN,INDEPENDENT ASSESSOR,RADIOLOGIST 2,,3,BASELINE,2013-10-08,1
933,CDISCPILOT01,TU,01-701-1345,18,R2-NT03,TUMIDENT,Tumor Identification,NON-TARGET,NON-TARGET,,CT SCAN,INDEPENDENT ASSESSOR,RADIOLOGIST 2,,3,BASELINE,2013-10-08,1
934,CDISCPILOT01,TU,01-701-1345,19,R2-NT04,TUMIDENT,Tumor Identification,NON-TARGET,NON-TARGET,,CT SCAN,INDEPENDENT ASSESSOR,RADIOLOGIST 2,,3,BASELINE,2013-10-08,1
935,CDISCPILOT01,TU,01-701-1345,20,R2-NT05,TUMIDENT,Tumor Identification,NON-TARGET,NON-TARGET,,CT SCAN,INDEPENDENT ASSESSOR,RADIOLOGIST 2,,3,BASELINE,2013-10-08,1
936,CDISCPILOT01,TU,01-701-1345,21,R2-T01,TUMIDENT,Tumor Identification,TARGET,TARGET,BLADDER,CT SCAN,INDEPENDENT ASSESSOR,RADIOLOGIST 2,,3,BASELINE,2013-10-08,1
937,CDISCPILOT01,TU,01-701-1345,22,R2-T02,TUMIDENT,Tumor Identification,TARGET,TARGET,BODY,CT SCAN,INDEPENDENT ASSESSOR,RADIOLOGIST 2,,3,BASELINE,2013-10-08,1
938,CDISCPILOT01,TU,01-701-1345,23,R2-T03,TUMIDENT,Tumor Identification,TARGET,TARGET,BONE,CT SCAN,INDEPENDENT ASSESSOR,RADIOLOGIST 2,,3,BASELINE,2013-10-08,1
939,CDISCPILOT01,TU,01-701-1345,24,R2-T04,TUMIDENT,Tumor Identification,TARGET,TARGET,BREAST,CT SCAN,INDEPENDENT ASSESSOR,RADIOLOGIST 2,,3,BASELINE,2013-10-08,1
940,CDISCPILOT01,TU,01-701-1345,25,R2-T05,TUMIDENT,Tumor Identification,TARGET,TARGET,CHEST,CT SCAN,INDEPENDENT ASSESSOR,RADIOLOGIST 2,,3,BASELINE,2013-10-08,1
941,CDISCPILOT01,TU,01-701-1345,26,T01,TUMIDENT,Tumor Identification,TARGET,TARGET,ABDOMINAL CAVITY,CT SCAN,INVESTIGATOR,,,3,BASELINE,2013-10-08,1
942,CDISCPILOT01,TU,01-701-1345,27,T02,TUMIDENT,Tumor Identification,TARGET,TARGET,ADRENAL GLAND,CT SCAN,INVESTIGATOR,,,3,BASELINE,2013-10-08,1
943,CDISCPILOT01,TU,01-701-1345,28,T03,TUMIDENT,Tumor Identification,TARGET,TARGET,LYMPH NODE,CT SCAN,INVESTIGATOR,,,3,BASELINE,2013-10-08,1
944,CDISCPILOT01,TU,01-701-1345,29,T04,TUMIDENT,Tumor Identification,TARGET,TARGET,BLADDER,CT SCAN,INVESTIGATOR,,,3,BASELINE,2013-10-08,1
945,CDISCPILOT01,TU,01-701-1345,30,T05,TUMIDENT,Tumor Identification,TARGET,TARGET,BODY,CT SCAN,INVESTIGATOR,,,3,BASELINE,2013-10-08,1
946,CDISCPILOT01,TU,01-701-1360,1,NT01,TUMIDENT,Tumor Identification,NON-TARGET,NON-TARGET,,CT SCAN,INVESTIGATOR,,,3,BASELINE,2013-07-31,1
947,CDISCPILOT01,TU,01-701-1360,2,NT02,TUMIDENT,Tumor Identification,NON-TARGET,NON-TARGET,,CT SCAN,INVESTIGATOR,,,3,BASELINE,2013-07-31,1
948,CDISCPILOT01,TU,01-701-1360,3,NT03,TUMIDENT,Tumor Identification,NON-TARGET,NON-TARGET,,CT SCAN,INVESTIGATOR,,,3,BASELINE,2013-07-31,1
949,CDISCPILOT01,TU,01-701-1360,4,NT04,TUMIDENT,Tumor Identification,NON-TARGET,NON-TARGET,,CT SCAN,INVESTIGATOR,,,3,BASELINE,2013-07-31,1
950,CDISCPILOT01,TU,01-701-1360,5,NT05,TUMIDENT,Tumor Identification,NON-TARGET,NON-TARGET,,CT SCAN,INVESTIGATOR,,,3,BASELINE,2013-07-31,1
951,CDISCPILOT01,TU,01-701-1360,6,R1-NT01,TUMIDENT,Tumor Identification,NON-TARGET,NON-TARGET,,CT SCAN,INDEPENDENT ASSESSOR,RADIOLOGIST 1,Y,3,BASELINE,2013-07-31,1
952,CDISCPILOT01,TU,01-701-1360,7,R1-NT02,TUMIDENT,Tumor Identification,NON-TARGET,NON-TARGET,,CT SCAN,INDEPENDENT ASSESSOR,RADIOLOGIST 1,Y,3,BASELINE,2013-07-31,1
953,CDISCPILOT01,TU,01-701-1360,8,R1-NT03,TUMIDENT,Tumor Identification,NON-TARGET,NON-TARGET,,CT SCAN,INDEPENDENT ASSESSOR,RADIOLOGIST 1,Y,3,BASELINE,2013-07-31,1
954,CDISCPILOT01,TU,01-701-1360,9,R1-NT04,TUMIDENT,Tumor Identification,NON-TARGET,NON-TARGET,,CT SCAN,INDEPENDENT ASSESSOR,RADIOLOGIST 1,Y,3,BASELINE,2013-07-31,1
955,CDISCPILOT01,TU,01-701-1360,10,R1-NT05,TUMIDENT,Tumor Identification,NON-TARGET,NON-TARGET,,CT SCAN,INDEPENDENT ASSESSOR,RADIOLOGIST 1,Y,3,BASELINE,2013-07-31,1
956,CDISCPILOT01,TU,01-701-1360,11,R1-T01,TUMIDENT,Tumor Identification,TARGET,TARGET,ABDOMINAL CAVITY,CT SCAN,INDEPENDENT ASSESSOR,RADIOLOGIST 1,Y,3,BASELINE,2013-07-31,1
957,CDISCPILOT01,TU,01-701-1360,12,R1-T02,TUMIDENT,Tumor Identification,TARGET,TARGET,ADRENAL GLAND,CT SCAN,INDEPENDENT ASSESSOR,RADIOLOGIST 1,Y,3,BASELINE,2013-07-31,1
958,CDISCPILOT01,TU,01-701-1360,13,R1-T03,TUMIDENT,Tumor Identification,TARGET,TARGET,LYMPH NODE,CT SCAN,INDEPENDENT ASSESSOR,RADIOLOGIST 1,Y,3,BASELINE,2013-07-31,1
959,CDISCPILOT01,TU,01-701-1360,14,R1-T04,TUMIDENT,Tumor Identification,TARGET,TARGET,BLADDER,CT SCAN,INDEPENDENT ASSESSOR,RADIOLOGIST 1,Y,3,BASELINE,2013-07-31,1
960,CDISCPILOT01,TU,01-701-1360,15,R1-T05,TUMIDENT,Tumor Identification,TARGET,TARGET,BODY,CT SCAN,INDEPENDENT ASSESSOR,RADIOLOGIST 1,Y,3,BASELINE,2013-07-31,1
961,CDISCPILOT01,TU,01-701-1360,16,R2-NT01,TUMIDENT,Tumor Identification,NON-TARGET,NON-TARGET,,CT SCAN,INDEPENDENT ASSESSOR,RADIOLOGIST 2,,3,BASELINE,2013-07-31,1
962,CDISCPILOT01,TU,01-701-1360,17,R2-NT02,TUMIDENT,Tumor Identification,NON-TARGET,NON-TARGET,,CT SCAN,INDEPENDENT ASSESSOR,RADIOLOGIST 2,,3,BASELINE,2013-07-31,1
963,CDISCPILOT01,TU,01-701-1360,18,R2-NT03,TUMIDENT,Tumor Identification,NON-TARGET,NON-TARGET,,CT SCAN,INDEPENDENT ASSESSOR,RADIOLOGIST 2,,3,BASELINE,2013-07-31,1
964,CDISCPILOT01,TU,01-701-1360,19,R2-NT04,TUMIDENT,Tumor Identification,NON-TARGET,NON-TARGET,,CT SCAN,INDEPENDENT ASSESSOR,RADIOLOGIST 2,,3,BASELINE,2013-07-31,1
965,CDISCPILOT01,TU,01-701-1360,20,R2-NT05,TUMIDENT,Tumor Identification,NON-TARGET,NON-TARGET,,CT SCAN,INDEPENDENT ASSESSOR,RADIOLOGIST 2,,3,BASELINE,2013-07-31,1
966,CDISCPILOT01,TU,01-701-1360,21,R2-T01,TUMIDENT,Tumor Identification,TARGET,TARGET,LYMPH NODE,CT SCAN,INDEPENDENT ASSESSOR,RADIOLOGIST 2,,3,BASELINE,2013-07-31,1
967,CDISCPILOT01,TU,01-701-1360,22,R2-T02,TUMIDENT,Tumor Identification,TARGET,TARGET,BLADDER,CT SCAN,INDEPENDENT ASSESSOR,RADIOLOGIST 2,,3,BASELINE,2013-07-31,1
968,CDISCPILOT01,TU,01-701-1360,23,R2-T03,TUMIDENT,Tumor Identification,TARGET,TARGET,BODY,CT SCAN,INDEPENDENT ASSESSOR,RADIOLOGIST 2,,3,BASELINE,2013-07-31,1
969,CDISCPILOT01,TU,01-701-1360,24,R2-T04,TUMIDENT,Tumor Identification,TARGET,TARGET,BONE,CT SCAN,INDEPENDENT ASSESSOR,RADIOLOGIST 2,,3,BASELINE,2013-07-31,1
970,CDISCPILOT01,TU,01-701-1360,25,R2-T05,TUMIDENT,Tumor Identification,TARGET,TARGET,BREAST,CT SCAN,INDEPENDENT ASSESSOR,RADIOLOGIST 2,,3,BASELINE,2013-07-31,1
971,CDISCPILOT01,TU,01-701-1360,26,T01,TUMIDENT,Tumor Identification,TARGET,TARGET,LYMPH NODE,CT SCAN,INVESTIGATOR,,,3,BASELINE,2013-07-31,1
972,CDISCPILOT01,TU,01-701-1360,27,T02,TUMIDENT,Tumor Identification,TARGET,TARGET,BLADDER,CT SCAN,INVESTIGATOR,,,3,BASELINE,2013-07-31,1
973,CDISCPILOT01,TU,01-701-1360,28,T03,TUMIDENT,Tumor Identification,TARGET,TARGET,BODY,CT SCAN,INVESTIGATOR,,,3,BASELINE,2013-07-31,1
974,CDISCPILOT01,TU,01-701-1360,29,T04,TUMIDENT,Tumor Identification,TARGET,TARGET,BONE,CT SCAN,INVESTIGATOR,,,3,BASELINE,2013-07-31,1
975,CDISCPILOT01,TU,01-701-1360,30,T05,TUMIDENT,Tumor Identification,TARGET,TARGET,BREAST,CT SCAN,INVESTIGATOR,,,3,BASELINE,2013-07-31,1
976,CDISCPILOT01,TU,01-701-1363,1,NT01,TUMIDENT,Tumor Identification,NON-TARGET,NON-TARGET,,CT SCAN,INVESTIGATOR,,,3,BASELINE,2013-05-30,1
977,CDISCPILOT01,TU,01-701-1363,2,NT02,TUMIDENT,Tumor Identification,NON-TARGET,NON-TARGET,,CT SCAN,INVESTIGATOR,,,3,BASELINE,2013-05-30,1
978,CDISCPILOT01,TU,01-701-1363,3,NT03,TUMIDENT,Tumor Identification,NON-TARGET,NON-TARGET,,CT SCAN,INVESTIGATOR,,,3,BASELINE,2013-05-30,1
979,CDISCPILOT01,TU,01-701-1363,4,NT04,TUMIDENT,Tumor Identification,NON-TARGET,NON-TARGET,,CT SCAN,INVESTIGATOR,,,3,BASELINE,2013-05-30,1
980,CDISCPILOT01,TU,01-701-1363,5,NT05,TUMIDENT,Tumor Identification,NON-TARGET,NON-TARGET,,CT SCAN,INVESTIGATOR,,,3,BASELINE,2013-05-30,1
981,CDISCPILOT01,TU,01-701-1363,6,R1-NT01,TUMIDENT,Tumor Identification,NON-TARGET,NON-TARGET,,CT SCAN,INDEPENDENT ASSESSOR,RADIOLOGIST 1,Y,3,BASELINE,2013-05-30,1
982,CDISCPILOT01,TU,01-701-1363,7,R1-NT02,TUMIDENT,Tumor Identification,NON-TARGET,NON-TARGET,,CT SCAN,INDEPENDENT ASSESSOR,RADIOLOGIST 1,Y,3,BASELINE,2013-05-30,1
983,CDISCPILOT01,TU,01-701-1363,8,R1-NT03,TUMIDENT,Tumor Identification,NON-TARGET,NON-TARGET,,CT SCAN,INDEPENDENT ASSESSOR,RADIOLOGIST 1,Y,3,BASELINE,2013-05-30,1
984,CDISCPILOT01,TU,01-701-1363,9,R1-NT04,TUMIDENT,Tumor Identification,NON-TARGET,NON-TARGET,,CT SCAN,INDEPENDENT ASSESSOR,RADIOLOGIST 1,Y,3,BASELINE,2013-05-30,1
985,CDISCPILOT01,TU,01-701-1363,10,R1-NT05,TUMIDENT,Tumor Identification,NON-TARGET,NON-TARGET,,CT SCAN,INDEPENDENT ASSESSOR,RADIOLOGIST 1,Y,3,BASELINE,2013-05-30,1
986,CDISCPILOT01,TU,01-701-1363,11,R1-T01,TUMIDENT,Tumor Identification,TARGET,TARGET,ADRENAL GLAND,CT SCAN,INDEPENDENT ASSESSOR,RADIOLOGIST 1,Y,3,BASELINE,2013-05-30,1
987,CDISCPILOT01,TU,01-701-1363,12,R1-T02,TUMIDENT,Tumor Identification,TARGET,TARGET,LYMPH NODE,CT SCAN,INDEPENDENT ASSESSOR,RADIOLOGIST 1,Y,3,BASELINE,2013-05-30,1
988,CDISCPILOT01,TU,01-701-1363,13,R1-T03,TUMIDENT,Tumor Identification,TARGET,TARGET,BLADDER,CT SCAN,INDEPENDENT ASSESSOR,RADIOLOGIST 1,Y,3,BASELINE,2013-05-30,1
989,CDISCPILOT01,TU,01-701-1363,14,R1-T04,TUMIDENT,Tumor Identification,TARGET,TARGET,BODY,CT SCAN,INDEPENDENT ASSESSOR,RADIOLOGIST 1,Y,3,BASELINE,2013-05-30,1
990,CDISCPILOT01,TU,01-701-1363,15,R1-T05,TUMIDENT,Tumor Identification,TARGET,TARGET,BONE,CT SCAN,INDEPENDENT ASSESSOR,RADIOLOGIST 1,Y,3,BASELINE,2013-05-30,1
991,CDISCPILOT01,TU,01-701-1363,16,R2-NT01,TUMIDENT,Tumor Identification,NON-TARGET,NON-TARGET,,CT SCAN,INDEPENDENT ASSESSOR,RADIOLOGIST 2,,3,BASELINE,2013-05-30,1
992,CDISCPILOT01,TU,01-701-1363,17,R2-NT02,TUMIDENT,Tumor Identification,NON-TARGET,NON-TARGET,,CT SCAN,INDEPENDENT ASSESSOR,RADIOLOGIST 2,,3,BASELINE,2013-05-30,1
993,CDISCPILOT01,TU,01-701-1363,18,R2-NT03,TUMIDENT,Tumor Identification,NON-TARGET,NON-TARGET,,CT SCAN,INDEPENDENT ASSESSOR,RADIOLOGIST 2,,3,BASELINE,2013-05-30,1
994,CDISCPILOT01,TU,01-701-1363,19,R2-NT04,TUMIDENT,Tumor Identification,NON-TARGET,NON-TARGET,,CT SCAN,INDEPENDENT ASSESSOR,RADIOLOGIST 2,,3,BASELINE,2013-05-30,1
995,CDISCPILOT01,TU,01-701-1363,20,R2-NT05,TUMIDENT,Tumor Identification,NON-TARGET,NON-TARGET,,CT SCAN,INDEPENDENT ASSESSOR,RADIOLOGIST 2,,3,BASELINE,2013-05-30,1
996,CDISCPILOT01,TU,01-701-1363,21,R2-T01,TUMIDENT,Tumor Identification,TARGET,TARGET,BLADDER,CT SCAN,INDEPENDENT ASSESSOR,RADIOLOGIST 2,,3,BASELINE,2013-05-30,1
997,CDISCPILOT01,TU,01-701-1363,22,R2-T02,TUMIDENT,Tumor Identification,TARGET,TARGET,BODY,CT SCAN,INDEPENDENT ASSESSOR,RADIOLOGIST 2,,3,BASELINE,2013-05-30,1
998,CDISCPILOT01,TU,01-701-1363,23,R2-T03,TUMIDENT,Tumor Identification,TARGET,TARGET,BONE,CT SCAN,INDEPENDENT ASSESSOR,RADIOLOGIST 2,,3,BASELINE,2013-05-30,1
999,CDISCPILOT01,TU,01-701-1363,24,R2-T04,TUMIDENT,Tumor Identification,TARGET,TARGET,BREAST,CT SCAN,INDEPENDENT ASSESSOR,RADIOLOGIST 2,,3,BASELINE,2013-05-30,1
1000,CDISCPILOT01,TU,01-701-1363,25,R2-T05,TUMIDENT,Tumor Identification,TARGET,TARGET,CHEST,CT SCAN,INDEPENDENT ASSESSOR,RADIOLOGIST 2,,3,BASELINE,2013-05-30,1
1001,CDISCPILOT01,TU,01-701-1363,26,T01,TUMIDENT,Tumor Identification,TARGET,TARGET,ADRENAL GLAND,CT SCAN,INVESTIGATOR,,,3,BASELINE,2013-05-30,1
1002,CDISCPILOT01,TU,01-701-1363,27,T02,TUMIDENT,Tumor Identification,TARGET,TARGET,LYMPH NODE,CT SCAN,INVESTIGATOR,,,3,BASELINE,2013-05-30,1
1003,CDISCPILOT01,TU,01-701-1363,28,T03,TUMIDENT,Tumor Identification,TARGET,TARGET,BLADDER,CT SCAN,INVESTIGATOR,,,3,BASELINE,2013-05-30,1
1004,CDISCPILOT01,TU,01-701-1363,29,T04,TUMIDENT,Tumor Identification,TARGET,TARGET,BODY,CT SCAN,INVESTIGATOR,,,3,BASELINE,2013-05-30,1
1005,CDISCPILOT01,TU,01-701-1363,30,T05,TUMIDENT,Tumor Identification,TARGET,TARGET,BONE,CT SCAN,INVESTIGATOR,,,3,BASELINE,2013-05-30,1
1006,CDISCPILOT01,TU,01-701-1383,1,NT01,TUMIDENT,Tumor Identification,NON-TARGET,NON-TARGET,,CT SCAN,INVESTIGATOR,,,3,BASELINE,2013-02-04,1
1007,CDISCPILOT01,TU,01-701-1383,2,NT02,TUMIDENT,Tumor Identification,NON-TARGET,NON-TARGET,,CT SCAN,INVESTIGATOR,,,3,BASELINE,2013-02-04,1
1008,CDISCPILOT01,TU,01-701-1383,3,NT03,TUMIDENT,Tumor Identification,NON-TARGET,NON-TARGET,,CT SCAN,INVESTIGATOR,,,3,BASELINE,2013-02-04,1
1009,CDISCPILOT01,TU,01-701-1383,4,NT04,TUMIDENT,Tumor Identification,NON-TARGET,NON-TARGET,,CT SCAN,INVESTIGATOR,,,3,BASELINE,2013-02-04,1
1010,CDISCPILOT01,TU,01-701-1383,5,NT05,TUMIDENT,Tumor Identification,NON-TARGET,NON-TARGET,,CT SCAN,INVESTIGATOR,,,3,BASELINE,2013-02-04,1
1011,CDISCPILOT01,TU,01-701-1383,6,R1-NT01,TUMIDENT,Tumor Identification,NON-TARGET,NON-TARGET,,CT SCAN,INDEPENDENT ASSESSOR,RADIOLOGIST 1,Y,3,BASELINE,2013-02-04,1
1012,CDISCPILOT01,TU,01-701-1383,7,R1-NT02,TUMIDENT,Tumor Identification,NON-TARGET,NON-TARGET,,CT SCAN,INDEPENDENT ASSESSOR,RADIOLOGIST 1,Y,3,BASELINE,2013-02-04,1
1013,CDISCPILOT01,TU,01-701-1383,8,R1-NT03,TUMIDENT,Tumor Identification,NON-TARGET,NON-TARGET,,CT SCAN,INDEPENDENT ASSESSOR,RADIOLOGIST 1,Y,3,BASELINE,2013-02-04,1
1014,CDISCPILOT01,TU,01-701-1383,9,R1-NT04,TUMIDENT,Tumor Identification,NON-TARGET,NON-TARGET,,CT SCAN,INDEPENDENT ASSESSOR,RADIOLOGIST 1,Y,3,BASELINE,2013-02-04,1
1015,CDISCPILOT01,TU,01-701-1383,10,R1-NT05,TUMIDENT,Tumor Identification,NON-TARGET,NON-TARGET,,CT SCAN,INDEPENDENT ASSESSOR,RADIOLOGIST 1,Y,3,BASELINE,2013-02-04,1
1016,CDISCPILOT01,TU,01-701-1383,11,R1-T01,TUMIDENT,Tumor Identification,TARGET,TARGET,BLADDER,CT SCAN,INDEPENDENT ASSESSOR,RADIOLOGIST 1,Y,3,BASELINE,2013-02-04,1
1017,CDISCPILOT01,TU,01-701-1383,12,R1-T02,TUMIDENT,Tumor Identification,TARGET,TARGET,BODY,CT SCAN,INDEPENDENT ASSESSOR,RADIOLOGIST 1,Y,3,BASELINE,2013-02-04,1
1018,CDISCPILOT01,TU,01-701-1383,13,R1-T03,TUMIDENT,Tumor Identification,TARGET,TARGET,BONE,CT SCAN,INDEPENDENT ASSESSOR,RADIOLOGIST 1,Y,3,BASELINE,2013-02-04,1
1019,CDISCPILOT01,TU,01-701-1383,14,R1-T04,TUMIDENT,Tumor Identification,TARGET,TARGET,BREAST,CT SCAN,INDEPENDENT ASSESSOR,RADIOLOGIST 1,Y,3,BASELINE,2013-02-04,1
1020,CDISCPILOT01,TU,01-701-1383,15,R1-T05,TUMIDENT,Tumor Identification,TARGET,TARGET,CHEST,CT SCAN,INDEPENDENT ASSESSOR,RADIOLOGIST 1,Y,3,BASELINE,2013-02-04,1
1021,CDISCPILOT01,TU,01-701-1383,16,R2-NT01,TUMIDENT,Tumor Identification,NON-TARGET,NON-TARGET,,CT SCAN,INDEPENDENT ASSESSOR,RADIOLOGIST 2,,3,BASELINE,2013-02-04,1
1022,CDISCPILOT01,TU,01-701-1383,17,R2-NT02,TUMIDENT,Tumor Identification,NON-TARGET,NON-TARGET,,CT SCAN,INDEPENDENT ASSESSOR,RADIOLOGIST 2,,3,BASELINE,2013-02-04,1
1023,CDISCPILOT01,TU,01-701-1383,18,R2-NT03,TUMIDENT,Tumor Identification,NON-TARGET,NON-TARGET,,CT SCAN,INDEPENDENT ASSESSOR,RADIOLOGIST 2,,3,BASELINE,2013-02-04,1
1024,CDISCPILOT01,TU,01-701-1383,19,R2-NT04,TUMIDENT,Tumor Identification,NON-TARGET,NON-TARGET,,CT SCAN,INDEPENDENT ASSESSOR,RADIOLOGIST 2,,3,BASELINE,2013-02-04,1
1025,CDISCPILOT01,TU,01-701-1383,20,R2-NT05,TUMIDENT,Tumor Identification,NON-TARGET,NON-TARGET,,CT SCAN,INDEPENDENT ASSESSOR,RADIOLOGIST 2,,3,BASELINE,2013-02-04,1
1026,CDISCPILOT01,TU,01-701-1383,21,R2-T01,TUMIDENT,Tumor Identification,TARGET,TARGET,LYMPH NODE,CT SCAN,INDEPENDENT ASSESSOR,RADIOLOGIST 2,,3,BASELINE,2013-02-04,1
1027,CDISCPILOT01,TU,01-701-1383,22,R2-T02,TUMIDENT,Tumor Identification,TARGET,TARGET,BLADDER,CT SCAN,INDEPENDENT ASSESSOR,RADIOLOGIST 2,,3,BASELINE,2013-02-04,1
1028,CDISCPILOT01,TU,01-701-1383,23,R2-T03,TUMIDENT,Tumor Identification,TARGET,TARGET,BODY,CT SCAN,INDEPENDENT ASSESSOR,RADIOLOGIST 2,,3,BASELINE,2013-02-04,1
1029,CDISCPILOT01,TU,01-701-1383,24,R2-T04,TUMIDENT,Tumor Identification,TARGET,TARGET,BONE,CT SCAN,INDEPENDENT ASSESSOR,RADIOLOGIST 2,,3,BASELINE,2013-02-04,1
1030,CDISCPILOT01,TU,01-701-1383,25,R2-T05,TUMIDENT,Tumor Identification,TARGET,TARGET,BREAST,CT SCAN,INDEPENDENT ASSESSOR,RADIOLOGIST 2,,3,BASELINE,2013-02-04,1
1031,CDISCPILOT01,TU,01-701-1383,26,T01,TUMIDENT,Tumor Identification,TARGET,TARGET,ABDOMINAL CAVITY,CT SCAN,INVESTIGATOR,,,3,BASELINE,2013-02-04,1
1032,CDISCPILOT01,TU,01-701-1383,27,T02,TUMIDENT,Tumor Identification,TARGET,TARGET,ADRENAL GLAND,CT SCAN,INVESTIGATOR,,,3,BASELINE,2013-02-04,1
1033,CDISCPILOT01,TU,01-701-1383,28,T03,TUMIDENT,Tumor Identification,TARGET,TARGET,LYMPH NODE,CT SCAN,INVESTIGATOR,,,3,BASELINE,2013-02-04,1
1034,CDISCPILOT01,TU,01-701-1383,29,T04,TUMIDENT,Tumor Identification,TARGET,TARGET,BLADDER,CT SCAN,INVESTIGATOR,,,3,BASELINE,2013-02-04,1
1035,CDISCPILOT01,TU,01-701-1383,30,T05,TUMIDENT,Tumor Identification,TARGET,TARGET,BODY,CT SCAN,INVESTIGATOR,,,3,BASELINE,2013-02-04,1
1036,CDISCPILOT01,TU,01-701-1387,1,NT01,TUMIDENT,Tumor Identification,NON-TARGET,NON-TARGET,,CT SCAN,INVESTIGATOR,,,3,BASELINE,2014-03-12,1
1037,CDISCPILOT01,TU,01-701-1387,2,NT02,TUMIDENT,Tumor Identification,NON-TARGET,NON-TARGET,,CT SCAN,INVESTIGATOR,,,3,BASELINE,2014-03-12,1
1038,CDISCPILOT01,TU,01-701-1387,3,NT03,TUMIDENT,Tumor Identification,NON-TARGET,NON-TARGET,,CT SCAN,INVESTIGATOR,,,3,BASELINE,2014-03-12,1
1039,CDISCPILOT01,TU,01-701-1387,4,NT04,TUMIDENT,Tumor Identification,NON-TARGET,NON-TARGET,,CT SCAN,INVESTIGATOR,,,3,BASELINE,2014-03-12,1
1040,CDISCPILOT01,TU,01-701-1387,5,NT05,TUMIDENT,Tumor Identification,NON-TARGET,NON-TARGET,,CT SCAN,INVESTIGATOR,,,3,BASELINE,2014-03-12,1
1041,CDISCPILOT01,TU,01-701-1387,6,R1-NT01,TUMIDENT,Tumor Identification,NON-TARGET,NON-TARGET,,CT SCAN,INDEPENDENT ASSESSOR,RADIOLOGIST 1,Y,3,BASELINE,2014-03-12,1
1042,CDISCPILOT01,TU,01-701-1387,7,R1-NT02,TUMIDENT,Tumor Identification,NON-TARGET,NON-TARGET,,CT SCAN,INDEPENDENT ASSESSOR,RADIOLOGIST 1,Y,3,BASELINE,2014-03-12,1
1043,CDISCPILOT01,TU,01-701-1387,8,R1-NT03,TUMIDENT,Tumor Identification,NON-TARGET,NON-TARGET,,CT SCAN,INDEPENDENT ASSESSOR,RADIOLOGIST 1,Y,3,BASELINE,2014-03-12,1
1044,CDISCPILOT01,TU,01-701-1387,9,R1-NT04,TUMIDENT,Tumor Identification,NON-TARGET,NON-TARGET,,CT SCAN,INDEPENDENT ASSESSOR,RADIOLOGIST 1,Y,3,BASELINE,2014-03-12,1
1045,CDISCPILOT01,TU,01-701-1387,10,R1-NT05,TUMIDENT,Tumor Identification,NON-TARGET,NON-TARGET,,CT SCAN,INDEPENDENT ASSESSOR,RADIOLOGIST 1,Y,3,BASELINE,2014-03-12,1
1046,CDISCPILOT01,TU,01-701-1387,11,R1-T01,TUMIDENT,Tumor Identification,TARGET,TARGET,BLADDER,CT SCAN,INDEPENDENT ASSESSOR,RADIOLOGIST 1,Y,3,BASELINE,2014-03-12,1
1047,CDISCPILOT01,TU,01-701-1387,12,R1-T02,TUMIDENT,Tumor Identification,TARGET,TARGET,BODY,CT SCAN,INDEPENDENT ASSESSOR,RADIOLOGIST 1,Y,3,BASELINE,2014-03-12,1
1048,CDISCPILOT01,TU,01-701-1387,13,R1-T03,TUMIDENT,Tumor Identification,TARGET,TARGET,BONE,CT SCAN,INDEPENDENT ASSESSOR,RADIOLOGIST 1,Y,3,BASELINE,2014-03-12,1
1049,CDISCPILOT01,TU,01-701-1387,14,R1-T04,TUMIDENT,Tumor Identification,TARGET,TARGET,BREAST,CT SCAN,INDEPENDENT ASSESSOR,RADIOLOGIST 1,Y,3,BASELINE,2014-03-12,1
1050,CDISCPILOT01,TU,01-701-1387,15,R1-T05,TUMIDENT,Tumor Identification,TARGET,TARGET,CHEST,CT SCAN,INDEPENDENT ASSESSOR,RADIOLOGIST 1,Y,3,BASELINE,2014-03-12,1
1051,CDISCPILOT01,TU,01-701-1387,16,R2-NT01,TUMIDENT,Tumor Identification,NON-TARGET,NON-TARGET,,CT SCAN,INDEPENDENT ASSESSOR,RADIOLOGIST 2,,3,BASELINE,2014-03-12,1
1052,CDISCPILOT01,TU,01-701-1387,17,R2-NT02,TUMIDENT,Tumor Identification,NON-TARGET,NON-TARGET,,CT SCAN,INDEPENDENT ASSESSOR,RADIOLOGIST 2,,3,BASELINE,2014-03-12,1
1053,CDISCPILOT01,TU,01-701-1387,18,R2-NT03,TUMIDENT,Tumor Identification,NON-TARGET,NON-TARGET,,CT SCAN,INDEPENDENT ASSESSOR,RADIOLOGIST 2,,3,BASELINE,2014-03-12,1
1054,CDISCPILOT01,TU,01-701-1387,19,R2-NT04,TUMIDENT,Tumor Identification,NON-TARGET,NON-TARGET,,CT SCAN,INDEPENDENT ASSESSOR,RADIOLOGIST 2,,3,BASELINE,2014-03-12,1
1055,CDISCPILOT01,TU,01-701-1387,20,R2-NT05,TUMIDENT,Tumor Identification,NON-TARGET,NON-TARGET,,CT SCAN,INDEPENDENT ASSESSOR,RADIOLOGIST 2,,3,BASELINE,2014-03-12,1
1056,CDISCPILOT01,TU,01-701-1387,21,R2-T01,TUMIDENT,Tumor Identification,TARGET,TARGET,ABDOMINAL CAVITY,CT SCAN,INDEPENDENT ASSESSOR,RADIOLOGIST 2,,3,BASELINE,2014-03-12,1
1057,CDISCPILOT01,TU,01-701-1387,22,R2-T02,TUMIDENT,Tumor Identification,TARGET,TARGET,ADRENAL GLAND,CT SCAN,INDEPENDENT ASSESSOR,RADIOLOGIST 2,,3,BASELINE,2014-03-12,1
1058,CDISCPILOT01,TU,01-701-1387,23,R2-T03,TUMIDENT,Tumor Identification,TARGET,TARGET,LYMPH NODE,CT SCAN,INDEPENDENT ASSESSOR,RADIOLOGIST 2,,3,BASELINE,2014-03-12,1
1059,CDISCPILOT01,TU,01-701-1387,24,R2-T04,TUMIDENT,Tumor Identification,TARGET,TARGET,BLADDER,CT SCAN,INDEPENDENT ASSESSOR,RADIOLOGIST 2,,3,BASELINE,2014-03-12,1
1060,CDISCPILOT01,TU,01-701-1387,25,R2-T05,TUMIDENT,Tumor Identification,TARGET,TARGET,BODY,CT SCAN,INDEPENDENT ASSESSOR,RADIOLOGIST 2,,3,BASELINE,2014-03-12,1
1061,CDISCPILOT01,TU,01-701-1387,26,T01,TUMIDENT,Tumor Identification,TARGET,TARGET,ADRENAL GLAND,CT SCAN,INVESTIGATOR,,,3,BASELINE,2014-03-12,1
1062,CDISCPILOT01,TU,01-701-1387,27,T02,TUMIDENT,Tumor Identification,TARGET,TARGET,LYMPH NODE,CT SCAN,INVESTIGATOR,,,3,BASELINE,2014-03-12,1
1063,CDISCPILOT01,TU,01-701-1387,28,T03,TUMIDENT,Tumor Identification,TARGET,TARGET,BLADDER,CT SCAN,INVESTIGATOR,,,3,BASELINE,2014-03-12,1
1064,CDISCPILOT01,TU,01-701-1387,29,T04,TUMIDENT,Tumor Identification,TARGET,TARGET,BODY,CT SCAN,INVESTIGATOR,,,3,BASELINE,2014-03-12,1
1065,CDISCPILOT01,TU,01-701-1387,30,T05,TUMIDENT,Tumor Identification,TARGET,TARGET,BONE,CT SCAN,INVESTIGATOR,,,3,BASELINE,2014-03-12,1
1066,CDISCPILOT01,TU,01-701-1392,1,NT01,TUMIDENT,Tumor Identification,NON-TARGET,NON-TARGET,,CT SCAN,INVESTIGATOR,,,3,BASELINE,2012-10-28,1
1067,CDISCPILOT01,TU,01-701-1392,2,NT02,TUMIDENT,Tumor Identification,NON-TARGET,NON-TARGET,,CT SCAN,INVESTIGATOR,,,3,BASELINE,2012-10-28,1
1068,CDISCPILOT01,TU,01-701-1392,3,NT03,TUMIDENT,Tumor Identification,NON-TARGET,NON-TARGET,,CT SCAN,INVESTIGATOR,,,3,BASELINE,2012-10-28,1
1069,CDISCPILOT01,TU,01-701-1392,4,NT04,TUMIDENT,Tumor Identification,NON-TARGET,NON-TARGET,,CT SCAN,INVESTIGATOR,,,3,BASELINE,2012-10-28,1
1070,CDISCPILOT01,TU,01-701-1392,5,NT05,TUMIDENT,Tumor Identification,NON-TARGET,NON-TARGET,,CT SCAN,INVESTIGATOR,,,3,BASELINE,2012-10-28,1
1071,CDISCPILOT01,TU,01-701-1392,6,R1-NT01,TUMIDENT,Tumor Identification,NON-TARGET,NON-TARGET,,CT SCAN,INDEPENDENT ASSESSOR,RADIOLOGIST 1,Y,3,BASELINE,2012-10-28,1
1072,CDISCPILOT01,TU,01-701-1392,7,R1-NT02,TUMIDENT,Tumor Identification,NON-TARGET,NON-TARGET,,CT SCAN,INDEPENDENT ASSESSOR,RADIOLOGIST 1,Y,3,BASELINE,2012-10-28,1
1073,CDISCPILOT01,TU,01-701-1392,8,R1-NT03,TUMIDENT,Tumor Identification,NON-TARGET,NON-TARGET,,CT SCAN,INDEPENDENT ASSESSOR,RADIOLOGIST 1,Y,3,BASELINE,2012-10-28,1
1074,CDISCPILOT01,TU,01-701-1392,9,R1-NT04,TUMIDENT,Tumor Identification,NON-TARGET,NON-TARGET,,CT SCAN,INDEPENDENT ASSESSOR,RADIOLOGIST 1,Y,3,BASELINE,2012-10-28,1
1075,CDISCPILOT01,TU,01-701-1392,10,R1-NT05,TUMIDENT,Tumor Identification,NON-TARGET,NON-TARGET,,CT SCAN,INDEPENDENT ASSESSOR,RADIOLOGIST 1,Y,3,BASELINE,2012-10-28,1
1076,CDISCPILOT01,TU,01-701-1392,11,R1-T01,TUMIDENT,Tumor Identification,TARGET,TARGET,ABDOMINAL CAVITY,CT SCAN,INDEPENDENT ASSESSOR,RADIOLOGIST 1,Y,3,BASELINE,2012-10-28,1
1077,CDISCPILOT01,TU,01-701-1392,12,R1-T02,TUMIDENT,Tumor Identification,TARGET,TARGET,ADRENAL GLAND,CT SCAN,INDEPENDENT ASSESSOR,RADIOLOGIST 1,Y,3,BASELINE,2012-10-28,1
1078,CDISCPILOT01,TU,01-701-1392,13,R1-T03,TUMIDENT,Tumor Identification,TARGET,TARGET,LYMPH NODE,CT SCAN,INDEPENDENT ASSESSOR,RADIOLOGIST 1,Y,3,BASELINE,2012-10-28,1
1079,CDISCPILOT01,TU,01-701-1392,14,R1-T04,TUMIDENT,Tumor Identification,TARGET,TARGET,BLADDER,CT SCAN,INDEPENDENT ASSESSOR,RADIOLOGIST 1,Y,3,BASELINE,2012-10-28,1
1080,CDISCPILOT01,TU,01-701-1392,15,R1-T05,TUMIDENT,Tumor Identification,TARGET,TARGET,BODY,CT SCAN,INDEPENDENT ASSESSOR,RADIOLOGIST 1,Y,3,BASELINE,2012-10-28,1
1081,CDISCPILOT01,TU,01-701-1392,16,R2-NT01,TUMIDENT,Tumor Identification,NON-TARGET,NON-TARGET,,CT SCAN,INDEPENDENT ASSESSOR,RADIOLOGIST 2,,3,BASELINE,2012-10-28,1
1082,CDISCPILOT01,TU,01-701-1392,17,R2-NT02,TUMIDENT,Tumor Identification,NON-TARGET,NON-TARGET,,CT SCAN,INDEPENDENT ASSESSOR,RADIOLOGIST 2,,3,BASELINE,2012-10-28,1
1083,CDISCPILOT01,TU,01-701-1392,18,R2-NT03,TUMIDENT,Tumor Identification,NON-TARGET,NON-TARGET,,CT SCAN,INDEPENDENT ASSESSOR,RADIOLOGIST 2,,3,BASELINE,2012-10-28,1
1084,CDISCPILOT01,TU,01-701-1392,19,R2-NT04,TUMIDENT,Tumor Identification,NON-TARGET,NON-TARGET,,CT SCAN,INDEPENDENT ASSESSOR,RADIOLOGIST 2,,3,BASELINE,2012-10-28,1
1085,CDISCPILOT01,TU,01-701-1392,20,R2-NT05,TUMIDENT,Tumor Identification,NON-TARGET,NON-TARGET,,CT SCAN,INDEPENDENT ASSESSOR,RADIOLOGIST 2,,3,BASELINE,2012-10-28,1
1086,CDISCPILOT01,TU,01-701-1392,21,R2-T01,TUMIDENT,Tumor Identification,TARGET,TARGET,ADRENAL GLAND,CT SCAN,INDEPENDENT ASSESSOR,RADIOLOGIST 2,,3,BASELINE,2012-10-28,1
1087,CDISCPILOT01,TU,01-701-1392,22,R2-T02,TUMIDENT,Tumor Identification,TARGET,TARGET,LYMPH NODE,CT SCAN,INDEPENDENT ASSESSOR,RADIOLOGIST 2,,3,BASELINE,2012-10-28,1
1088,CDISCPILOT01,TU,01-701-1392,23,R2-T03,TUMIDENT,Tumor Identification,TARGET,TARGET,BLADDER,CT SCAN,INDEPENDENT ASSESSOR,RADIOLOGIST 2,,3,BASELINE,2012-10-28,1
1089,CDISCPILOT01,TU,01-701-1392,24,R2-T04,TUMIDENT,Tumor Identification,TARGET,TARGET,BODY,CT SCAN,INDEPENDENT ASSESSOR,RADIOLOGIST 2,,3,BASELINE,2012-10-28,1
1090,CDISCPILOT01,TU,01-701-1392,25,R2-T05,TUMIDENT,Tumor Identification,TARGET,TARGET,BONE,CT SCAN,INDEPENDENT ASSESSOR,RADIOLOGIST 2,,3,BASELINE,2012-10-28,1
1091,CDISCPILOT01,TU,01-701-1392,26,T01,TUMIDENT,Tumor Identification,TARGET,TARGET,ABDOMINAL CAVITY,CT SCAN,INVESTIGATOR,,,3,BASELINE,2012-10-28,1
1092,CDISCPILOT01,TU,01-701-1392,27,T02,TUMIDENT,Tumor Identification,TARGET,TARGET,ADRENAL GLAND,CT SCAN,INVESTIGATOR,,,3,BASELINE,2012-10-28,1
1093,CDISCPILOT01,TU,01-701-1392,28,T03,TUMIDENT,Tumor Identification,TARGET,TARGET,LYMPH NODE,CT SCAN,INVESTIGATOR,,,3,BASELINE,2012-10-28,1
1094,CDISCPILOT01,TU,01-701-1392,29,T04,TUMIDENT,Tumor Identification,TARGET,TARGET,BLADDER,CT SCAN,INVESTIGATOR,,,3,BASELINE,2012-10-28,1
1095,CDISCPILOT01,TU,01-701-1392,30,T05,TUMIDENT,Tumor Identification,TARGET,TARGET,BODY,CT SCAN,INVESTIGATOR,,,3,BASELINE,2012-10-28,1
1096,CDISCPILOT01,TU,01-701-1392,31,NEW01,TUMIDENT,Tumor Identification,NEW,NEW,,CT SCAN,INVESTIGATOR,,,12,WEEK 24,2013-04-15,168
1097,CDISCPILOT01,TU,01-701-1392,32,R1-NEW01,TUMIDENT,Tumor Identification,NEW,NEW,,CT SCAN,INDEPENDENT ASSESSOR,RADIOLOGIST 1,Y,12,WEEK 24,2013-04-15,168
1098,CDISCPILOT01,TU,01-701-1392,33,R2-NEW01,TUMIDENT,Tumor Identification,NEW,NEW,,CT SCAN,INDEPENDENT ASSESSOR,RADIOLOGIST 2,,12,WEEK 24,2013-04-15,168
1099,CDISCPILOT01,TU,01-701-1415,1,NT01,TUMIDENT,Tumor Identification,NON-TARGET,NON-TARGET,,CT SCAN,INVESTIGATOR,,,3,BASELINE,2013-09-23,1
1100,CDISCPILOT01,TU,01-701-1415,2,NT02,TUMIDENT,Tumor Identification,NON-TARGET,NON-TARGET,,CT SCAN,INVESTIGATOR,,,3,BASELINE,2013-09-23,1
1101,CDISCPILOT01,TU,01-701-1415,3,NT03,TUMIDENT,Tumor Identification,NON-TARGET,NON-TARGET,,CT SCAN,INVESTIGATOR,,,3,BASELINE,2013-09-23,1
1102,CDISCPILOT01,TU,01-701-1415,4,NT04,TUMIDENT,Tumor Identification,NON-TARGET,NON-TARGET,,CT SCAN,INVESTIGATOR,,,3,BASELINE,2013-09-23,1
1103,CDISCPILOT01,TU,01-701-1415,5,NT05,TUMIDENT,Tumor Identification,NON-TARGET,NON-TARGET,,CT SCAN,INVESTIGATOR,,,3,BASELINE,2013-09-23,1
1104,CDISCPILOT01,TU,01-701-1415,6,R1-NT01,TUMIDENT,Tumor Identification,NON-TARGET,NON-TARGET,,CT SCAN,INDEPENDENT ASSESSOR,RADIOLOGIST 1,Y,3,BASELINE,2013-09-23,1
1105,CDISCPILOT01,TU,01-701-1415,7,R1-NT02,TUMIDENT,Tumor Identification,NON-TARGET,NON-TARGET,,CT SCAN,INDEPENDENT ASSESSOR,RADIOLOGIST 1,Y,3,BASELINE,2013-09-23,1
1106,CDISCPILOT01,TU,01-701-1415,8,R1-NT03,TUMIDENT,Tumor Identification,NON-TARGET,NON-TARGET,,CT SCAN,INDEPENDENT ASSESSOR,RADIOLOGIST 1,Y,3,BASELINE,2013-09-23,1
1107,CDISCPILOT01,TU,01-701-1415,9,R1-NT04,TUMIDENT,Tumor Identification,NON-TARGET,NON-TARGET,,CT SCAN,INDEPENDENT ASSESSOR,RADIOLOGIST 1,Y,3,BASELINE,2013-09-23,1
1108,CDISCPILOT01,TU,01-701-1415,10,R1-NT05,TUMIDENT,Tumor Identification,NON-TARGET,NON-TARGET,,CT SCAN,INDEPENDENT ASSESSOR,RADIOLOGIST 1,Y,3,BASELINE,2013-09-23,1
1109,CDISCPILOT01,TU,01-701-1415,11,R1-T01,TUMIDENT,Tumor Identification,TARGET,TARGET,ABDOMINAL CAVITY,CT SCAN,INDEPENDENT ASSESSOR,RADIOLOGIST 1,Y,3,BASELINE,2013-09-23,1
1110,CDISCPILOT01,TU,01-701-1415,12,R1-T02,TUMIDENT,Tumor Identification,TARGET,TARGET,ADRENAL GLAND,CT SCAN,INDEPENDENT ASSESSOR,RADIOLOGIST 1,Y,3,BASELINE,2013-09-23,1
1111,CDISCPILOT01,TU,01-701-1415,13,R1-T03,TUMIDENT,Tumor Identification,TARGET,TARGET,LYMPH NODE,CT SCAN,INDEPENDENT ASSESSOR,RADIOLOGIST 1,Y,3,BASELINE,2013-09-23,1
1112,CDISCPILOT01,TU,01-701-1415,14,R1-T04,TUMIDENT,Tumor Identification,TARGET,TARGET,BLADDER,CT SCAN,INDEPENDENT ASSESSOR,RADIOLOGIST 1,Y,3,BASELINE,2013-09-23,1
1113,CDISCPILOT01,TU,01-701-1415,15,R1-T05,TUMIDENT,Tumor Identification,TARGET,TARGET,BODY,CT SCAN,INDEPENDENT ASSESSOR,RADIOLOGIST 1,Y,3,BASELINE,2013-09-23,1
1114,CDISCPILOT01,TU,01-701-1415,16,R2-NT01,TUMIDENT,Tumor Identification,NON-TARGET,NON-TARGET,,CT SCAN,INDEPENDENT ASSESSOR,RADIOLOGIST 2,,3,BASELINE,2013-09-23,1
1115,CDISCPILOT01,TU,01-701-1415,17,R2-NT02,TUMIDENT,Tumor Identification,NON-TARGET,NON-TARGET,,CT SCAN,INDEPENDENT ASSESSOR,RADIOLOGIST 2,,3,BASELINE,2013-09-23,1
1116,CDISCPILOT01,TU,01-701-1415,18,R2-NT03,TUMIDENT,Tumor Identification,NON-TARGET,NON-TARGET,,CT SCAN,INDEPENDENT ASSESSOR,RADIOLOGIST 2,,3,BASELINE,2013-09-23,1
1117,CDISCPILOT01,TU,01-701-1415,19,R2-NT04,TUMIDENT,Tumor Identification,NON-TARGET,NON-TARGET,,CT SCAN,INDEPENDENT ASSESSOR,RADIOLOGIST 2,,3,BASELINE,2013-09-23,1
1118,CDISCPILOT01,TU,01-701-1415,20,R2-NT05,TUMIDENT,Tumor Identification,NON-TARGET,NON-TARGET,,CT SCAN,INDEPENDENT ASSESSOR,RADIOLOGIST 2,,3,BASELINE,2013-09-23,1
1119,CDISCPILOT01,TU,01-701-1415,21,R2-T01,TUMIDENT,Tumor Identification,TARGET,TARGET,BLADDER,CT SCAN,INDEPENDENT ASSESSOR,RADIOLOGIST 2,,3,BASELINE,2013-09-23,1
1120,CDISCPILOT01,TU,01-701-1415,22,R2-T02,TUMIDENT,Tumor Identification,TARGET,TARGET,BODY,CT SCAN,INDEPENDENT ASSESSOR,RADIOLOGIST 2,,3,BASELINE,2013-09-23,1
1121,CDISCPILOT01,TU,01-701-1415,23,R2-T03,TUMIDENT,Tumor Identification,TARGET,TARGET,BONE,CT SCAN,INDEPENDENT ASSESSOR,RADIOLOGIST 2,,3,BASELINE,2013-09-23,1
1122,CDISCPILOT01,TU,01-701-1415,24,R2-T04,TUMIDENT,Tumor Identification,TARGET,TARGET,BREAST,CT SCAN,INDEPENDENT ASSESSOR,RADIOLOGIST 2,,3,BASELINE,2013-09-23,1
1123,CDISCPILOT01,TU,01-701-1415,25,R2-T05,TUMIDENT,Tumor Identification,TARGET,TARGET,CHEST,CT SCAN,INDEPENDENT ASSESSOR,RADIOLOGIST 2,,3,BASELINE,2013-09-23,1
1124,CDISCPILOT01,TU,01-701-1415,26,T01,TUMIDENT,Tumor Identification,TARGET,TARGET,ABDOMINAL CAVITY,CT SCAN,INVESTIGATOR,,,3,BASELINE,2013-09-23,1
1125,CDISCPILOT01,TU,01-701-1415,27,T02,TUMIDENT,Tumor Identification,TARGET,TARGET,ADRENAL GLAND,CT SCAN,INVESTIGATOR,,,3,BASELINE,2013-09-23,1
1126,CDISCPILOT01,TU,01-701-1415,28,T03,TUMIDENT,Tumor Identification,TARGET,TARGET,LYMPH NODE,CT SCAN,INVESTIGATOR,,,3,BASELINE,2013-09-23,1
1127,CDISCPILOT01,TU,01-701-1415,29,T04,TUMIDENT,Tumor Identification,TARGET,TARGET,BLADDER,CT SCAN,INVESTIGATOR,,,3,BASELINE,2013-09-23,1
1128,CDISCPILOT01,TU,01-701-1415,30,T05,TUMIDENT,Tumor Identification,TARGET,TARGET,BODY,CT SCAN,INVESTIGATOR,,,3,BASELINE,2013-09-23,1
1129,CDISCPILOT01,TU,01-701-1429,1,NT01,TUMIDENT,Tumor Identification,NON-TARGET,NON-TARGET,,CT SCAN,INVESTIGATOR,,,3,BASELINE,2013-03-19,1
1130,CDISCPILOT01,TU,01-701-1429,2,NT02,TUMIDENT,Tumor Identification,NON-TARGET,NON-TARGET,,CT SCAN,INVESTIGATOR,,,3,BASELINE,2013-03-19,1
1131,CDISCPILOT01,TU,01-701-1429,3,NT03,TUMIDENT,Tumor Identification,NON-TARGET,NON-TARGET,,CT SCAN,INVESTIGATOR,,,3,BASELINE,2013-03-19,1
1132,CDISCPILOT01,TU,01-701-1429,4,NT04,TUMIDENT,Tumor Identification,NON-TARGET,NON-TARGET,,CT SCAN,INVESTIGATOR,,,3,BASELINE,2013-03-19,1
1133,CDISCPILOT01,TU,01-701-1429,5,NT05,TUMIDENT,Tumor Identification,NON-TARGET,NON-TARGET,,CT SCAN,INVESTIGATOR,,,3,BASELINE,2013-03-19,1
1134,CDISCPILOT01,TU,01-701-1429,6,R1-NT01,TUMIDENT,Tumor Identification,NON-TARGET,NON-TARGET,,CT SCAN,INDEPENDENT ASSESSOR,RADIOLOGIST 1,Y,3,BASELINE,2013-03-19,1
1135,CDISCPILOT01,TU,01-701-1429,7,R1-NT02,TUMIDENT,Tumor Identification,NON-TARGET,NON-TARGET,,CT SCAN,INDEPENDENT ASSESSOR,RADIOLOGIST 1,Y,3,BASELINE,2013-03-19,1
1136,CDISCPILOT01,TU,01-701-1429,8,R1-NT03,TUMIDENT,Tumor Identification,NON-TARGET,NON-TARGET,,CT SCAN,INDEPENDENT ASSESSOR,RADIOLOGIST 1,Y,3,BASELINE,2013-03-19,1
1137,CDISCPILOT01,TU,01-701-1429,9,R1-NT04,TUMIDENT,Tumor Identification,NON-TARGET,NON-TARGET,,CT SCAN,INDEPENDENT ASSESSOR,RADIOLOGIST 1,Y,3,BASELINE,2013-03-19,1
1138,CDISCPILOT01,TU,01-701-1429,10,R1-NT05,TUMIDENT,Tumor Identification,NON-TARGET,NON-TARGET,,CT SCAN,INDEPENDENT ASSESSOR,RADIOLOGIST 1,Y,3,BASELINE,2013-03-19,1
1139,CDISCPILOT01,TU,01-701-1429,11,R1-T01,TUMIDENT,Tumor Identification,TARGET,TARGET,LYMPH NODE,CT SCAN,INDEPENDENT ASSESSOR,RADIOLOGIST 1,Y,3,BASELINE,2013-03-19,1
1140,CDISCPILOT01,TU,01-701-1429,12,R1-T02,TUMIDENT,Tumor Identification,TARGET,TARGET,BLADDER,CT SCAN,INDEPENDENT ASSESSOR,RADIOLOGIST 1,Y,3,BASELINE,2013-03-19,1
1141,CDISCPILOT01,TU,01-701-1429,13,R1-T03,TUMIDENT,Tumor Identification,TARGET,TARGET,BODY,CT SCAN,INDEPENDENT ASSESSOR,RADIOLOGIST 1,Y,3,BASELINE,2013-03-19,1
1142,CDISCPILOT01,TU,01-701-1429,14,R1-T04,TUMIDENT,Tumor Identification,TARGET,TARGET,BONE,CT SCAN,INDEPENDENT ASSESSOR,RADIOLOGIST 1,Y,3,BASELINE,2013-03-19,1
1143,CDISCPILOT01,TU,01-701-1429,15,R1-T05,TUMIDENT,Tumor Identification,TARGET,TARGET,BREAST,CT SCAN,INDEPENDENT ASSESSOR,RADIOLOGIST 1,Y,3,BASELINE,2013-03-19,1
1144,CDISCPILOT01,TU,01-701-1429,16,R2-NT01,TUMIDENT,Tumor Identification,NON-TARGET,NON-TARGET,,CT SCAN,INDEPENDENT ASSESSOR,RADIOLOGIST 2,,3,BASELINE,2013-03-19,1
1145,CDISCPILOT01,TU,01-701-1429,17,R2-NT02,TUMIDENT,Tumor Identification,NON-TARGET,NON-TARGET,,CT SCAN,INDEPENDENT ASSESSOR,RADIOLOGIST 2,,3,BASELINE,2013-03-19,1
1146,CDISCPILOT01,TU,01-701-1429,18,R2-NT03,TUMIDENT,Tumor Identification,NON-TARGET,NON-TARGET,,CT SCAN,INDEPENDENT ASSESSOR,RADIOLOGIST 2,,3,BASELINE,2013-03-19,1
1147,CDISCPILOT01,TU,01-701-1429,19,R2-NT04,TUMIDENT,Tumor Identification,NON-TARGET,NON-TARGET,,CT SCAN,INDEPENDENT ASSESSOR,RADIOLOGIST 2,,3,BASELINE,2013-03-19,1
1148,CDISCPILOT01,TU,01-701-1429,20,R2-NT05,TUMIDENT,Tumor Identification,NON-TARGET,NON-TARGET,,CT SCAN,INDEPENDENT ASSESSOR,RADIOLOGIST 2,,3,BASELINE,2013-03-19,1
1149,CDISCPILOT01,TU,01-701-1429,21,R2-T01,TUMIDENT,Tumor Identification,TARGET,TARGET,ADRENAL GLAND,CT SCAN,INDEPENDENT ASSESSOR,RADIOLOGIST 2,,3,BASELINE,2013-03-19,1
1150,CDISCPILOT01,TU,01-701-1429,22,R2-T02,TUMIDENT,Tumor Identification,TARGET,TARGET,LYMPH NODE,CT SCAN,INDEPENDENT ASSESSOR,RADIOLOGIST 2,,3,BASELINE,2013-03-19,1
1151,CDISCPILOT01,TU,01-701-1429,23,R2-T03,TUMIDENT,Tumor Identification,TARGET,TARGET,BLADDER,CT SCAN,INDEPENDENT ASSESSOR,RADIOLOGIST 2,,3,BASELINE,2013-03-19,1
1152,CDISCPILOT01,TU,01-701-1429,24,R2-T04,TUMIDENT,Tumor Identification,TARGET,TARGET,BODY,CT SCAN,INDEPENDENT ASSESSOR,RADIOLOGIST 2,,3,BASELINE,2013-03-19,1
1153,CDISCPILOT01,TU,01-701-1429,25,R2-T05,TUMIDENT,Tumor Identification,TARGET,TARGET,BONE,CT SCAN,INDEPENDENT ASSESSOR,RADIOLOGIST 2,,3,BASELINE,2013-03-19,1
1154,CDISCPILOT01,TU,01-701-1429,26,T01,TUMIDENT,Tumor Identification,TARGET,TARGET,LYMPH NODE,CT SCAN,INVESTIGATOR,,,3,BASELINE,2013-03-19,1
1155,CDISCPILOT01,TU,01-701-1429,27,T02,TUMIDENT,Tumor Identification,TARGET,TARGET,BLADDER,CT SCAN,INVESTIGATOR,,,3,BASELINE,2013-03-19,1
1156,CDISCPILOT01,TU,01-701-1429,28,T03,TUMIDENT,Tumor Identification,TARGET,TARGET,BODY,CT SCAN,INVESTIGATOR,,,3,BASELINE,2013-03-19,1
1157,CDISCPILOT01,TU,01-701-1429,29,T04,TUMIDENT,Tumor Identification,TARGET,TARGET,BONE,CT SCAN,INVESTIGATOR,,,3,BASELINE,2013-03-19,1
1158,CDISCPILOT01,TU,01-701-1429,30,T05,TUMIDENT,Tumor Identification,TARGET,TARGET,BREAST,CT SCAN,INVESTIGATOR,,,3,BASELINE,2013-03-19,1
1159,CDISCPILOT01,TU,01-701-1440,1,NT01,TUMIDENT,Tumor Identification,NON-TARGET,NON-TARGET,,CT SCAN,INVESTIGATOR,,,3,BASELINE,2013-08-08,1
1160,CDISCPILOT01,TU,01-701-1440,2,NT02,TUMIDENT,Tumor Identification,NON-TARGET,NON-TARGET,,CT SCAN,INVESTIGATOR,,,3,BASELINE,2013-08-08,1
1161,CDISCPILOT01,TU,01-701-1440,3,NT03,TUMIDENT,Tumor Identification,NON-TARGET,NON-TARGET,,CT SCAN,INVESTIGATOR,,,3,BASELINE,2013-08-08,1
1162,CDISCPILOT01,TU,01-701-1440,4,NT04,TUMIDENT,Tumor Identification,NON-TARGET,NON-TARGET,,CT SCAN,INVESTIGATOR,,,3,BASELINE,2013-08-08,1
1163,CDISCPILOT01,TU,01-701-1440,5,NT05,TUMIDENT,Tumor Identification,NON-TARGET,NON-TARGET,,CT SCAN,INVESTIGATOR,,,3,BASELINE,2013-08-08,1
1164,CDISCPILOT01,TU,01-701-1440,6,R1-NT01,TUMIDENT,Tumor Identification,NON-TARGET,NON-TARGET,,CT SCAN,INDEPENDENT ASSESSOR,RADIOLOGIST 1,Y,3,BASELINE,2013-08-08,1
1165,CDISCPILOT01,TU,01-701-1440,7,R1-NT02,TUMIDENT,Tumor Identification,NON-TARGET,NON-TARGET,,CT SCAN,INDEPENDENT ASSESSOR,RADIOLOGIST 1,Y,3,BASELINE,2013-08-08,1
1166,CDISCPILOT01,TU,01-701-1440,8,R1-NT03,TUMIDENT,Tumor Identification,NON-TARGET,NON-TARGET,,CT SCAN,INDEPENDENT ASSESSOR,RADIOLOGIST 1,Y,3,BASELINE,2013-08-08,1
1167,CDISCPILOT01,TU,01-701-1440,9,R1-NT04,TUMIDENT,Tumor Identification,NON-TARGET,NON-TARGET,,CT SCAN,INDEPENDENT ASSESSOR,RADIOLOGIST 1,Y,3,BASELINE,2013-08-08,1
1168,CDISCPILOT01,TU,01-701-1440,10,R1-NT05,TUMIDENT,Tumor Identification,NON-TARGET,NON-TARGET,,CT SCAN,INDEPENDENT ASSESSOR,RADIOLOGIST 1,Y,3,BASELINE,2013-08-08,1
1169,CDISCPILOT01,TU,01-701-1440,11,R1-T01,TUMIDENT,Tumor Identification,TARGET,TARGET,ADRENAL GLAND,CT SCAN,INDEPENDENT ASSESSOR,RADIOLOGIST 1,Y,3,BASELINE,2013-08-08,1
1170,CDISCPILOT01,TU,01-701-1440,12,R1-T02,TUMIDENT,Tumor Identification,TARGET,TARGET,LYMPH NODE,CT SCAN,INDEPENDENT ASSESSOR,RADIOLOGIST 1,Y,3,BASELINE,2013-08-08,1
1171,CDISCPILOT01,TU,01-701-1440,13,R1-T03,TUMIDENT,Tumor Identification,TARGET,TARGET,BLADDER,CT SCAN,INDEPENDENT ASSESSOR,RADIOLOGIST 1,Y,3,BASELINE,2013-08-08,1
1172,CDISCPILOT01,TU,01-701-1440,14,R1-T04,TUMIDENT,Tumor Identification,TARGET,TARGET,BODY,CT SCAN,INDEPENDENT ASSESSOR,RADIOLOGIST 1,Y,3,BASELINE,2013-08-08,1
1173,CDISCPILOT01,TU,01-701-1440,15,R1-T05,TUMIDENT,Tumor Identification,TARGET,TARGET,BONE,CT SCAN,INDEPENDENT ASSESSOR,RADIOLOGIST 1,Y,3,BASELINE,2013-08-08,1
1174,CDISCPILOT01,TU,01-701-1440,16,R2-NT01,TUMIDENT,Tumor Identification,NON-TARGET,NON-TARGET,,CT SCAN,INDEPENDENT ASSESSOR,RADIOLOGIST 2,,3,BASELINE,2013-08-08,1
1175,CDISCPILOT01,TU,01-701-1440,17,R2-NT02,TUMIDENT,Tumor Identification,NON-TARGET,NON-TARGET,,CT SCAN,INDEPENDENT ASSESSOR,RADIOLOGIST 2,,3,BASELINE,2013-08-08,1
1176,CDISCPILOT01,TU,01-701-1440,18,R2-NT03,TUMIDENT,Tumor Identification,NON-TARGET,NON-TARGET,,CT SCAN,INDEPENDENT ASSESSOR,RADIOLOGIST 2,,3,BASELINE,2013-08-08,1
1177,CDISCPILOT01,TU,01-701-1440,19,R2-NT04,TUMIDENT,Tumor Identification,NON-TARGET,NON-TARGET,,CT SCAN,INDEPENDENT ASSESSOR,RADIOLOGIST 2,,3,BASELINE,2013-08-08,1
1178,CDISCPILOT01,TU,01-701-1440,20,R2-NT05,TUMIDENT,Tumor Identification,NON-TARGET,NON-TARGET,,CT SCAN,INDEPENDENT ASSESSOR,RADIOLOGIST 2,,3,BASELINE,2013-08-08,1
1179,CDISCPILOT01,TU,01-701-1440,21,R2-T01,TUMIDENT,Tumor Identification,TARGET,TARGET,BLADDER,CT SCAN,INDEPENDENT ASSESSOR,RADIOLOGIST 2,,3,BASELINE,2013-08-08,1
1180,CDISCPILOT01,TU,01-701-1440,22,R2-T02,TUMIDENT,Tumor Identification,TARGET,TARGET,BODY,CT SCAN,INDEPENDENT ASSESSOR,RADIOLOGIST 2,,3,BASELINE,2013-08-08,1
1181,CDISCPILOT01,TU,01-701-1440,23,R2-T03,TUMIDENT,Tumor Identification,TARGET,TARGET,BONE,CT SCAN,INDEPENDENT ASSESSOR,RADIOLOGIST 2,,3,BASELINE,2013-08-08,1
1182,CDISCPILOT01,TU,01-701-1440,24,R2-T04,TUMIDENT,Tumor Identification,TARGET,TARGET,BREAST,CT SCAN,INDEPENDENT ASSESSOR,RADIOLOGIST 2,,3,BASELINE,2013-08-08,1
1183,CDISCPILOT01,TU,01-701-1440,25,R2-T05,TUMIDENT,Tumor Identification,TARGET,TARGET,CHEST,CT SCAN,INDEPENDENT ASSESSOR,RADIOLOGIST 2,,3,BASELINE,2013-08-08,1
1184,CDISCPILOT01,TU,01-701-1440,26,T01,TUMIDENT,Tumor Identification,TARGET,TARGET,LYMPH NODE,CT SCAN,INVESTIGATOR,,,3,BASELINE,2013-08-08,1
1185,CDISCPILOT01,TU,01-701-1440,27,T02,TUMIDENT,Tumor Identification,TARGET,TARGET,BLADDER,CT SCAN,INVESTIGATOR,,,3,BASELINE,2013-08-08,1
1186,CDISCPILOT01,TU,01-701-1440,28,T03,TUMIDENT,Tumor Identification,TARGET,TARGET,BODY,CT SCAN,INVESTIGATOR,,,3,BASELINE,2013-08-08,1
1187,CDISCPILOT01,TU,01-701-1440,29,T04,TUMIDENT,Tumor Identification,TARGET,TARGET,BONE,CT SCAN,INVESTIGATOR,,,3,BASELINE,2013-08-08,1
1188,CDISCPILOT01,TU,01-701-1440,30,T05,TUMIDENT,Tumor Identification,TARGET,TARGET,BREAST,CT SCAN,INVESTIGATOR,,,3,BASELINE,2013-08-08,1
1189,CDISCPILOT01,TU,01-701-1440,31,NEW01,TUMIDENT,Tumor Identification,NEW,NEW,,CT SCAN,INVESTIGATOR,,,12,WEEK 24,2014-01-22,168
1190,CDISCPILOT01,TU,01-701-1440,32,R1-NEW01,TUMIDENT,Tumor Identification,NEW,NEW,,CT SCAN,INDEPENDENT ASSESSOR,RADIOLOGIST 1,Y,12,WEEK 24,2014-01-22,168
1191,CDISCPILOT01,TU,01-701-1440,33,R2-NEW01,TUMIDENT,Tumor Identification,NEW,NEW,,CT SCAN,INDEPENDENT ASSESSOR,RADIOLOGIST 2,,12,WEEK 24,2014-01-22,168
1192,CDISCPILOT01,TU,01-701-1442,1,NT01,TUMIDENT,Tumor Identification,NON-TARGET,NON-TARGET,,CT SCAN,INVESTIGATOR,,,3,BASELINE,2013-10-26,1
1193,CDISCPILOT01,TU,01-701-1442,2,NT02,TUMIDENT,Tumor Identification,NON-TARGET,NON-TARGET,,CT SCAN,INVESTIGATOR,,,3,BASELINE,2013-10-26,1
1194,CDISCPILOT01,TU,01-701-1442,3,NT03,TUMIDENT,Tumor Identification,NON-TARGET,NON-TARGET,,CT SCAN,INVESTIGATOR,,,3,BASELINE,2013-10-26,1
1195,CDISCPILOT01,TU,01-701-1442,4,NT04,TUMIDENT,Tumor Identification,NON-TARGET,NON-TARGET,,CT SCAN,INVESTIGATOR,,,3,BASELINE,2013-10-26,1
1196,CDISCPILOT01,TU,01-701-1442,5,NT05,TUMIDENT,Tumor Identification,NON-TARGET,NON-TARGET,,CT SCAN,INVESTIGATOR,,,3,BASELINE,2013-10-26,1
1197,CDISCPILOT01,TU,01-701-1442,6,R1-NT01,TUMIDENT,Tumor Identification,NON-TARGET,NON-TARGET,,CT SCAN,INDEPENDENT ASSESSOR,RADIOLOGIST 1,Y,3,BASELINE,2013-10-26,1
1198,CDISCPILOT01,TU,01-701-1442,7,R1-NT02,TUMIDENT,Tumor Identification,NON-TARGET,NON-TARGET,,CT SCAN,INDEPENDENT ASSESSOR,RADIOLOGIST 1,Y,3,BASELINE,2013-10-26,1
1199,CDISCPILOT01,TU,01-701-1442,8,R1-NT03,TUMIDENT,Tumor Identification,NON-TARGET,NON-TARGET,,CT SCAN,INDEPENDENT ASSESSOR,RADIOLOGIST 1,Y,3,BASELINE,2013-10-26,1
1200,CDISCPILOT01,TU,01-701-1442,9,R1-NT04,TUMIDENT,Tumor Identification,NON-TARGET,NON-TARGET,,CT SCAN,INDEPENDENT ASSESSOR,RADIOLOGIST 1,Y,3,BASELINE,2013-10-26,1
1201,CDISCPILOT01,TU,01-701-1442,10,R1-NT05,TUMIDENT,Tumor Identification,NON-TARGET,NON-TARGET,,CT SCAN,INDEPENDENT ASSESSOR,RADIOLOGIST 1,Y,3,BASELINE,2013-10-26,1
1202,CDISCPILOT01,TU,01-701-1442,11,R1-T01,TUMIDENT,Tumor Identification,TARGET,TARGET,ABDOMINAL CAVITY,CT SCAN,INDEPENDENT ASSESSOR,RADIOLOGIST 1,Y,3,BASELINE,2013-10-26,1
1203,CDISCPILOT01,TU,01-701-1442,12,R1-T02,TUMIDENT,Tumor Identification,TARGET,TARGET,ADRENAL GLAND,CT SCAN,INDEPENDENT ASSESSOR,RADIOLOGIST 1,Y,3,BASELINE,2013-10-26,1
1204,CDISCPILOT01,TU,01-701-1442,13,R1-T03,TUMIDENT,Tumor Identification,TARGET,TARGET,LYMPH NODE,CT SCAN,INDEPENDENT ASSESSOR,RADIOLOGIST 1,Y,3,BASELINE,2013-10-26,1
1205,CDISCPILOT01,TU,01-701-1442,14,R1-T04,TUMIDENT,Tumor Identification,TARGET,TARGET,BLADDER,CT SCAN,INDEPENDENT ASSESSOR,RADIOLOGIST 1,Y,3,BASELINE,2013-10-26,1
1206,CDISCPILOT01,TU,01-701-1442,15,R1-T05,TUMIDENT,Tumor Identification,TARGET,TARGET,BODY,CT SCAN,INDEPENDENT ASSESSOR,RADIOLOGIST 1,Y,3,BASELINE,2013-10-26,1
1207,CDISCPILOT01,TU,01-701-1442,16,R2-NT01,TUMIDENT,Tumor Identification,NON-TARGET,NON-TARGET,,CT SCAN,INDEPENDENT ASSESSOR,RADIOLOGIST 2,,3,BASELINE,2013-10-26,1
1208,CDISCPILOT01,TU,01-701-1442,17,R2-NT02,TUMIDENT,Tumor Identification,NON-TARGET,NON-TARGET,,CT SCAN,INDEPENDENT ASSESSOR,RADIOLOGIST 2,,3,BASELINE,2013-10-26,1
1209,CDISCPILOT01,TU,01-701-1442,18,R2-NT03,TUMIDENT,Tumor Identification,NON-TARGET,NON-TARGET,,CT SCAN,INDEPENDENT ASSESSOR,RADIOLOGIST 2,,3,BASELINE,2013-10-26,1
1210,CDISCPILOT01,TU,01-701-1442,19,R2-NT04,TUMIDENT,Tumor Identification,NON-TARGET,NON-TARGET,,CT SCAN,INDEPENDENT ASSESSOR,RADIOLOGIST 2,,3,BASELINE,2013-10-26,1
1211,CDISCPILOT01,TU,01-701-1442,20,R2-NT05,TUMIDENT,Tumor Identification,NON-TARGET,NON-TARGET,,CT SCAN,INDEPENDENT ASSESSOR,RADIOLOGIST 2,,3,BASELINE,2013-10-26,1
1212,CDISCPILOT01,TU,01-701-1442,21,R2-T01,TUMIDENT,Tumor Identification,TARGET,TARGET,LYMPH NODE,CT SCAN,INDEPENDENT ASSESSOR,RADIOLOGIST 2,,3,BASELINE,2013-10-26,1
1213,CDISCPILOT01,TU,01-701-1442,22,R2-T02,TUMIDENT,Tumor Identification,TARGET,TARGET,BLADDER,CT SCAN,INDEPENDENT ASSESSOR,RADIOLOGIST 2,,3,BASELINE,2013-10-26,1
1214,CDISCPILOT01,TU,01-701-1442,23,R2-T03,TUMIDENT,Tumor Identification,TARGET,TARGET,BODY,CT SCAN,INDEPENDENT ASSESSOR,RADIOLOGIST 2,,3,BASELINE,2013-10-26,1
1215,CDISCPILOT01,TU,01-701-1442,24,R2-T04,TUMIDENT,Tumor Identification,TARGET,TARGET,BONE,CT SCAN,INDEPENDENT ASSESSOR,RADIOLOGIST 2,,3,BASELINE,2013-10-26,1
1216,CDISCPILOT01,TU,01-701-1442,25,R2-T05,TUMIDENT,Tumor Identification,TARGET,TARGET,BREAST,CT SCAN,INDEPENDENT ASSESSOR,RADIOLOGIST 2,,3,BASELINE,2013-10-26,1
1217,CDISCPILOT01,TU,01-701-1442,26,T01,TUMIDENT,Tumor Identification,TARGET,TARGET,LYMPH NODE,CT SCAN,INVESTIGATOR,,,3,BASELINE,2013-10-26,1
1218,CDISCPILOT01,TU,01-701-1442,27,T02,TUMIDENT,Tumor Identification,TARGET,TARGET,BLADDER,CT SCAN,INVESTIGATOR,,,3,BASELINE,2013-10-26,1
1219,CDISCPILOT01,TU,01-701-1442,28,T03,TUMIDENT,Tumor Identification,TARGET,TARGET,BODY,CT SCAN,INVESTIGATOR,,,3,BASELINE,2013-10-26,1
1220,CDISCPILOT01,TU,01-701-1442,29,T04,TUMIDENT,Tumor Identification,TARGET,TARGET,BONE,CT SCAN,INVESTIGATOR,,,3,BASELINE,2013-10-26,1
1221,CDISCPILOT01,TU,01-701-1442,30,T05,TUMIDENT,Tumor Identification,TARGET,TARGET,BREAST,CT SCAN,INVESTIGATOR,,,3,BASELINE,2013-10-26,1
1222,CDISCPILOT01,TU,01-701-1444,1,NT01,TUMIDENT,Tumor Identification,NON-TARGET,NON-TARGET,,CT SCAN,INVESTIGATOR,,,3,BASELINE,2013-01-05,1
1223,CDISCPILOT01,TU,01-701-1444,2,NT02,TUMIDENT,Tumor Identification,NON-TARGET,NON-TARGET,,CT SCAN,INVESTIGATOR,,,3,BASELINE,2013-01-05,1
1224,CDISCPILOT01,TU,01-701-1444,3,NT03,TUMIDENT,Tumor Identification,NON-TARGET,NON-TARGET,,CT SCAN,INVESTIGATOR,,,3,BASELINE,2013-01-05,1
1225,CDISCPILOT01,TU,01-701-1444,4,NT04,TUMIDENT,Tumor Identification,NON-TARGET,NON-TARGET,,CT SCAN,INVESTIGATOR,,,3,BASELINE,2013-01-05,1
1226,CDISCPILOT01,TU,01-701-1444,5,NT05,TUMIDENT,Tumor Identification,NON-TARGET,NON-TARGET,,CT SCAN,INVESTIGATOR,,,3,BASELINE,2013-01-05,1
1227,CDISCPILOT01,TU,01-701-1444,6,R1-NT01,TUMIDENT,Tumor Identification,NON-TARGET,NON-TARGET,,CT SCAN,INDEPENDENT ASSESSOR,RADIOLOGIST 1,Y,3,BASELINE,2013-01-05,1
1228,CDISCPILOT01,TU,01-701-1444,7,R1-NT02,TUMIDENT,Tumor Identification,NON-TARGET,NON-TARGET,,CT SCAN,INDEPENDENT ASSESSOR,RADIOLOGIST 1,Y,3,BASELINE,2013-01-05,1
1229,CDISCPILOT01,TU,01-701-1444,8,R1-NT03,TUMIDENT,Tumor Identification,NON-TARGET,NON-TARGET,,CT SCAN,INDEPENDENT ASSESSOR,RADIOLOGIST 1,Y,3,BASELINE,2013-01-05,1
1230,CDISCPILOT01,TU,01-701-1444,9,R1-NT04,TUMIDENT,Tumor Identification,NON-TARGET,NON-TARGET,,CT SCAN,INDEPENDENT ASSESSOR,RADIOLOGIST 1,Y,3,BASELINE,2013-01-05,1
1231,CDISCPILOT01,TU,01-701-1444,10,R1-NT05,TUMIDENT,Tumor Identification,NON-TARGET,NON-TARGET,,CT SCAN,INDEPENDENT ASSESSOR,RADIOLOGIST 1,Y,3,BASELINE,2013-01-05,1
1232,CDISCPILOT01,TU,01-701-1444,11,R1-T01,TUMIDENT,Tumor Identification,TARGET,TARGET,BLADDER,CT SCAN,INDEPENDENT ASSESSOR,RADIOLOGIST 1,Y,3,BASELINE,2013-01-05,1
1233,CDISCPILOT01,TU,01-701-1444,12,R1-T02,TUMIDENT,Tumor Identification,TARGET,TARGET,BODY,CT SCAN,INDEPENDENT ASSESSOR,RADIOLOGIST 1,Y,3,BASELINE,2013-01-05,1
1234,CDISCPILOT01,TU,01-701-1444,13,R1-T03,TUMIDENT,Tumor Identification,TARGET,TARGET,BONE,CT SCAN,INDEPENDENT ASSESSOR,RADIOLOGIST 1,Y,3,BASELINE,2013-01-05,1
1235,CDISCPILOT01,TU,01-701-1444,14,R1-T04,TUMIDENT,Tumor Identification,TARGET,TARGET,BREAST,CT SCAN,INDEPENDENT ASSESSOR,RADIOLOGIST 1,Y,3,BASELINE,2013-01-05,1
1236,CDISCPILOT01,TU,01-701-1444,15,R1-T05,TUMIDENT,Tumor Identification,TARGET,TARGET,CHEST,CT SCAN,INDEPENDENT ASSESSOR,RADIOLOGIST 1,Y,3,BASELINE,2013-01-05,1
1237,CDISCPILOT01,TU,01-701-1444,16,R2-NT01,TUMIDENT,Tumor Identification,NON-TARGET,NON-TARGET,,CT SCAN,INDEPENDENT ASSESSOR,RADIOLOGIST 2,,3,BASELINE,2013-01-05,1
1238,CDISCPILOT01,TU,01-701-1444,17,R2-NT02,TUMIDENT,Tumor Identification,NON-TARGET,NON-TARGET,,CT SCAN,INDEPENDENT ASSESSOR,RADIOLOGIST 2,,3,BASELINE,2013-01-05,1
1239,CDISCPILOT01,TU,01-701-1444,18,R2-NT03,TUMIDENT,Tumor Identification,NON-TARGET,NON-TARGET,,CT SCAN,INDEPENDENT ASSESSOR,RADIOLOGIST 2,,3,BASELINE,2013-01-05,1
1240,CDISCPILOT01,TU,01-701-1444,19,R2-NT04,TUMIDENT,Tumor Identification,NON-TARGET,NON-TARGET,,CT SCAN,INDEPENDENT ASSESSOR,RADIOLOGIST 2,,3,BASELINE,2013-01-05,1
1241,CDISCPILOT01,TU,01-701-1444,20,R2-NT05,TUMIDENT,Tumor Identification,NON-TARGET,NON-TARGET,,CT SCAN,INDEPENDENT ASSESSOR,RADIOLOGIST 2,,3,BASELINE,2013-01-05,1
1242,CDISCPILOT01,TU,01-701-1444,21,R2-T01,TUMIDENT,Tumor Identification,TARGET,TARGET,ADRENAL GLAND,CT SCAN,INDEPENDENT ASSESSOR,RADIOLOGIST 2,,3,BASELINE,2013-01-05,1
1243,CDISCPILOT01,TU,01-701-1444,22,R2-T02,TUMIDENT,Tumor Identification,TARGET,TARGET,LYMPH NODE,CT SCAN,INDEPENDENT ASSESSOR,RADIOLOGIST 2,,3,BASELINE,2013-01-05,1
1244,CDISCPILOT01,TU,01-701-1444,23,R2-T03,TUMIDENT,Tumor Identification,TARGET,TARGET,BLADDER,CT SCAN,INDEPENDENT ASSESSOR,RADIOLOGIST 2,,3,BASELINE,2013-01-05,1
1245,CDISCPILOT01,TU,01-701-1444,24,R2-T04,TUMIDENT,Tumor Identification,TARGET,TARGET,BODY,CT SCAN,INDEPENDENT ASSESSOR,RADIOLOGIST 2,,3,BASELINE,2013-01-05,1
1246,CDISCPILOT01,TU,01-701-1444,25,R2-T05,TUMIDENT,Tumor Identification,TARGET,TARGET,BONE,CT SCAN,INDEPENDENT ASSESSOR,RADIOLOGIST 2,,3,BASELINE,2013-01-05,1
1247,CDISCPILOT01,TU,01-701-1444,26,T01,TUMIDENT,Tumor Identification,TARGET,TARGET,ADRENAL GLAND,CT SCAN,INVESTIGATOR,,,3,BASELINE,2013-01-05,1
1248,CDISCPILOT01,TU,01-701-1444,27,T02,TUMIDENT,Tumor Identification,TARGET,TARGET,LYMPH NODE,CT SCAN,INVESTIGATOR,,,3,BASELINE,2013-01-05,1
1249,CDISCPILOT01,TU,01-701-1444,28,T03,TUMIDENT,Tumor Identification,TARGET,TARGET,BLADDER,CT SCAN,INVESTIGATOR,,,3,BASELINE,2013-01-05,1
1250,CDISCPILOT01,TU,01-701-1444,29,T04,TUMIDENT,Tumor Identification,TARGET,TARGET,BODY,CT SCAN,INVESTIGATOR,,,3,BASELINE,2013-01-05,1
1251,CDISCPILOT01,TU,01-701-1444,30,T05,TUMIDENT,Tumor Identification,TARGET,TARGET,BONE,CT SCAN,INVESTIGATOR,,,3,BASELINE,2013-01-05,1
1252,CDISCPILOT01,TU,01-702-1082,1,NT01,TUMIDENT,Tumor Identification,NON-TARGET,NON-TARGET,,CT SCAN,INVESTIGATOR,,,3,BASELINE,2013-07-26,1
1253,CDISCPILOT01,TU,01-702-1082,2,NT02,TUMIDENT,Tumor Identification,NON-TARGET,NON-TARGET,,CT SCAN,INVESTIGATOR,,,3,BASELINE,2013-07-26,1
1254,CDISCPILOT01,TU,01-702-1082,3,NT03,TUMIDENT,Tumor Identification,NON-TARGET,NON-TARGET,,CT SCAN,INVESTIGATOR,,,3,BASELINE,2013-07-26,1
1255,CDISCPILOT01,TU,01-702-1082,4,NT04,TUMIDENT,Tumor Identification,NON-TARGET,NON-TARGET,,CT SCAN,INVESTIGATOR,,,3,BASELINE,2013-07-26,1
1256,CDISCPILOT01,TU,01-702-1082,5,NT05,TUMIDENT,Tumor Identification,NON-TARGET,NON-TARGET,,CT SCAN,INVESTIGATOR,,,3,BASELINE,2013-07-26,1
1257,CDISCPILOT01,TU,01-702-1082,6,R1-NT01,TUMIDENT,Tumor Identification,NON-TARGET,NON-TARGET,,CT SCAN,INDEPENDENT ASSESSOR,RADIOLOGIST 1,Y,3,BASELINE,2013-07-26,1
1258,CDISCPILOT01,TU,01-702-1082,7,R1-NT02,TUMIDENT,Tumor Identification,NON-TARGET,NON-TARGET,,CT SCAN,INDEPENDENT ASSESSOR,RADIOLOGIST 1,Y,3,BASELINE,2013-07-26,1
1259,CDISCPILOT01,TU,01-702-1082,8,R1-NT03,TUMIDENT,Tumor Identification,NON-TARGET,NON-TARGET,,CT SCAN,INDEPENDENT ASSESSOR,RADIOLOGIST 1,Y,3,BASELINE,2013-07-26,1
1260,CDISCPILOT01,TU,01-702-1082,9,R1-NT04,TUMIDENT,Tumor Identification,NON-TARGET,NON-TARGET,,CT SCAN,INDEPENDENT ASSESSOR,RADIOLOGIST 1,Y,3,BASELINE,2013-07-26,1
1261,CDISCPILOT01,TU,01-702-1082,10,R1-NT05,TUMIDENT,Tumor Identification,NON-TARGET,NON-TARGET,,CT SCAN,INDEPENDENT ASSESSOR,RADIOLOGIST 1,Y,3,BASELINE,2013-07-26,1
1262,CDISCPILOT01,TU,01-702-1082,11,R1-T01,TUMIDENT,Tumor Identification,TARGET,TARGET,ABDOMINAL CAVITY,CT SCAN,INDEPENDENT ASSESSOR,RADIOLOGIST 1,Y,3,BASELINE,2013-07-26,1
1263,CDISCPILOT01,TU,01-702-1082,12,R1-T02,TUMIDENT,Tumor Identification,TARGET,TARGET,ADRENAL GLAND,CT SCAN,INDEPENDENT ASSESSOR,RADIOLOGIST 1,Y,3,BASELINE,2013-07-26,1
1264,CDISCPILOT01,TU,01-702-1082,13,R1-T03,TUMIDENT,Tumor Identification,TARGET,TARGET,LYMPH NODE,CT SCAN,INDEPENDENT ASSESSOR,RADIOLOGIST 1,Y,3,BASELINE,2013-07-26,1
1265,CDISCPILOT01,TU,01-702-1082,14,R1-T04,TUMIDENT,Tumor Identification,TARGET,TARGET,BLADDER,CT SCAN,INDEPENDENT ASSESSOR,RADIOLOGIST 1,Y,3,BASELINE,2013-07-26,1
1266,CDISCPILOT01,TU,01-702-1082,15,R1-T05,TUMIDENT,Tumor Identification,TARGET,TARGET,BODY,CT SCAN,INDEPENDENT ASSESSOR,RADIOLOGIST 1,Y,3,BASELINE,2013-07-26,1
1267,CDISCPILOT01,TU,01-702-1082,16,R2-NT01,TUMIDENT,Tumor Identification,NON-TARGET,NON-TARGET,,CT SCAN,INDEPENDENT ASSESSOR,RADIOLOGIST 2,,3,BASELINE,2013-07-26,1
1268,CDISCPILOT01,TU,01-702-1082,17,R2-NT02,TUMIDENT,Tumor Identification,NON-TARGET,NON-TARGET,,CT SCAN,INDEPENDENT ASSESSOR,RADIOLOGIST 2,,3,BASELINE,2013-07-26,1
1269,CDISCPILOT01,TU,01-702-1082,18,R2-NT03,TUMIDENT,Tumor Identification,NON-TARGET,NON-TARGET,,CT SCAN,INDEPENDENT ASSESSOR,RADIOLOGIST 2,,3,BASELINE,2013-07-26,1
1270,CDISCPILOT01,TU,01-702-1082,19,R2-NT04,TUMIDENT,Tumor Identification,NON-TARGET,NON-TARGET,,CT SCAN,INDEPENDENT ASSESSOR,RADIOLOGIST 2,,3,BASELINE,2013-07-26,1
1271,CDISCPILOT01,TU,01-702-1082,20,R2-NT05,TUMIDENT,Tumor Identification,NON-TARGET,NON-TARGET,,CT SCAN,INDEPENDENT ASSESSOR,RADIOLOGIST 2,,3,BASELINE,2013-07-26,1
1272,CDISCPILOT01,TU,01-702-1082,21,R2-T01,TUMIDENT,Tumor Identification,TARGET,TARGET,LYMPH NODE,CT SCAN,INDEPENDENT ASSESSOR,RADIOLOGIST 2,,3,BASELINE,2013-07-26,1
1273,CDISCPILOT01,TU,01-702-1082,22,R2-T02,TUMIDENT,Tumor Identification,TARGET,TARGET,BLADDER,CT SCAN,INDEPENDENT ASSESSOR,RADIOLOGIST 2,,3,BASELINE,2013-07-26,1
1274,CDISCPILOT01,TU,01-702-1082,23,R2-T03,TUMIDENT,Tumor Identification,TARGET,TARGET,BODY,CT SCAN,INDEPENDENT ASSESSOR,RADIOLOGIST 2,,3,BASELINE,2013-07-26,1
1275,CDISCPILOT01,TU,01-702-1082,24,R2-T04,TUMIDENT,Tumor Identification,TARGET,TARGET,BONE,CT SCAN,INDEPENDENT ASSESSOR,RADIOLOGIST 2,,3,BASELINE,2013-07-26,1
1276,CDISCPILOT01,TU,01-702-1082,25,R2-T05,TUMIDENT,Tumor Identification,TARGET,TARGET,BREAST,CT SCAN,INDEPENDENT ASSESSOR,RADIOLOGIST 2,,3,BASELINE,2013-07-26,1
1277,CDISCPILOT01,TU,01-702-1082,26,T01,TUMIDENT,Tumor Identification,TARGET,TARGET,LYMPH NODE,CT SCAN,INVESTIGATOR,,,3,BASELINE,2013-07-26,1
1278,CDISCPILOT01,TU,01-702-1082,27,T02,TUMIDENT,Tumor Identification,TARGET,TARGET,BLADDER,CT SCAN,INVESTIGATOR,,,3,BASELINE,2013-07-26,1
1279,CDISCPILOT01,TU,01-702-1082,28,T03,TUMIDENT,Tumor Identification,TARGET,TARGET,BODY,CT SCAN,INVESTIGATOR,,,3,BASELINE,2013-07-26,1
1280,CDISCPILOT01,TU,01-702-1082,29,T04,TUMIDENT,Tumor Identification,TARGET,TARGET,BONE,CT SCAN,INVESTIGATOR,,,3,BASELINE,2013-07-26,1
1281,CDISCPILOT01,TU,01-702-1082,30,T05,TUMIDENT,Tumor Identification,TARGET,TARGET,BREAST,CT SCAN,INVESTIGATOR,,,3,BASELINE,2013-07-26,1
1282,CDISCPILOT01,TU,01-703-1042,1,NT01,TUMIDENT,Tumor Identification,NON-TARGET,NON-TARGET,,CT SCAN,INVESTIGATOR,,,3,BASELINE,2013-03-02,1
1283,CDISCPILOT01,TU,01-703-1042,2,NT02,TUMIDENT,Tumor Identification,NON-TARGET,NON-TARGET,,CT SCAN,INVESTIGATOR,,,3,BASELINE,2013-03-02,1
1284,CDISCPILOT01,TU,01-703-1042,3,NT03,TUMIDENT,Tumor Identification,NON-TARGET,NON-TARGET,,CT SCAN,INVESTIGATOR,,,3,BASELINE,2013-03-02,1
1285,CDISCPILOT01,TU,01-703-1042,4,NT04,TUMIDENT,Tumor Identification,NON-TARGET,NON-TARGET,,CT SCAN,INVESTIGATOR,,,3,BASELINE,2013-03-02,1
1286,CDISCPILOT01,TU,01-703-1042,5,NT05,TUMIDENT,Tumor Identification,NON-TARGET,NON-TARGET,,CT SCAN,INVESTIGATOR,,,3,BASELINE,2013-03-02,1
1287,CDISCPILOT01,TU,01-703-1042,6,R1-NT01,TUMIDENT,Tumor Identification,NON-TARGET,NON-TARGET,,CT SCAN,INDEPENDENT ASSESSOR,RADIOLOGIST 1,Y,3,BASELINE,2013-03-02,1
1288,CDISCPILOT01,TU,01-703-1042,7,R1-NT02,TUMIDENT,Tumor Identification,NON-TARGET,NON-TARGET,,CT SCAN,INDEPENDENT ASSESSOR,RADIOLOGIST 1,Y,3,BASELINE,2013-03-02,1
