rownames,STUDYID,DOMAIN,USUBJID,VSSEQ,VSTESTCD,VSTEST,VSPOS,VSORRES,VSORRESU,VSSTRESC,VSSTRESN,VSSTRESU,VSSTAT,VSLOC,VSBLFL,VISITNUM,VISIT,VISITDY,VSDTC,VSDY,VSTPT,VSTPTNUM,VSELTM,VSTPTREF,VSEVAL,EPOCH
1,CDISCPILOT01,VS,01-701-1015,1,BMI,BMI,,16.5779328715278,kg/m2,16.5779328715278,16.577932871527807,kg/m2,,,,1,SCREENING 1,,2013-12-26,,,,,,,Epoch
2,CDISCPILOT01,VS,01-701-1015,5,BMI,BMI,,16.6159515916646,kg/m2,16.6159515916646,16.615951591664576,kg/m2,,,,3,BASELINE,,2014-01-02,,,,,,,Epoch
3,CDISCPILOT01,VS,01-701-1015,9,BMI,BMI,,16.6977686495846,kg/m2,16.6977686495846,16.697768649584624,kg/m2,,,,4,WEEK 2,,2014-01-16,,,,,,,Epoch
4,CDISCPILOT01,VS,01-701-1015,13,BMI,BMI,,16.8161956674711,kg/m2,16.8161956674711,16.816195667471117,kg/m2,,,,5,WEEK 4,,2014-01-30,,,,,,,Epoch
5,CDISCPILOT01,VS,01-701-1015,17,BMI,BMI,,16.8246072334467,kg/m2,16.8246072334467,16.824607233446745,kg/m2,,,,7,WEEK 6,,2014-02-12,,,,,,,Epoch
6,CDISCPILOT01,VS,01-701-1015,21,BMI,BMI,,16.9159634735359,kg/m2,16.9159634735359,16.915963473535886,kg/m2,,,,8,WEEK 8,,2014-03-05,,,,,,,Epoch
7,CDISCPILOT01,VS,01-701-1015,25,BMI,BMI,,17.0518553875519,kg/m2,17.0518553875519,17.05185538755192,kg/m2,,,,9,WEEK 12,,2014-03-26,,,,,,,Epoch
8,CDISCPILOT01,VS,01-701-1015,29,BMI,BMI,,17.1620632559648,kg/m2,17.1620632559648,17.162063255964828,kg/m2,,,,10,WEEK 16,,2014-05-07,,,,,,,Epoch
9,CDISCPILOT01,VS,01-701-1015,33,BMI,BMI,,17.2487514234882,kg/m2,17.2487514234882,17.248751423488176,kg/m2,,,,11,WEEK 20,,2014-05-21,,,,,,,Epoch
10,CDISCPILOT01,VS,01-701-1015,37,BMI,BMI,,17.4336757597814,kg/m2,17.4336757597814,17.43367575978138,kg/m2,,,,12,WEEK 24,,2014-06-18,,,,,,,Epoch
11,CDISCPILOT01,VS,01-701-1015,41,BMI,BMI,,17.4024931694471,kg/m2,17.4024931694471,17.402493169447126,kg/m2,,,,13,WEEK 26,,2014-07-02,,,,,,,Epoch
12,CDISCPILOT01,VS,01-701-1015,2,HDCIRC,Head Circumference,,35.61,cm,35.61,35.61,cm,,,,1,SCREENING 1,,2013-12-26,,,,,,,Epoch
13,CDISCPILOT01,VS,01-701-1015,6,HDCIRC,Head Circumference,,37.24,cm,37.24,37.24,cm,,,,3,BASELINE,,2014-01-02,,,,,,,Epoch
14,CDISCPILOT01,VS,01-701-1015,10,HDCIRC,Head Circumference,,38.57,cm,38.57,38.57,cm,,,,4,WEEK 2,,2014-01-16,,,,,,,Epoch
15,CDISCPILOT01,VS,01-701-1015,14,HDCIRC,Head Circumference,,39.84,cm,39.84,39.84,cm,,,,5,WEEK 4,,2014-01-30,,,,,,,Epoch
16,CDISCPILOT01,VS,01-701-1015,18,HDCIRC,Head Circumference,,40.95,cm,40.95,40.95,cm,,,,7,WEEK 6,,2014-02-12,,,,,,,Epoch
17,CDISCPILOT01,VS,01-701-1015,22,HDCIRC,Head Circumference,,42.14,cm,42.14,42.14,cm,,,,8,WEEK 8,,2014-03-05,,,,,,,Epoch
18,CDISCPILOT01,VS,01-701-1015,26,HDCIRC,Head Circumference,,43.67,cm,43.67,43.67,cm,,,,9,WEEK 12,,2014-03-26,,,,,,,Epoch
19,CDISCPILOT01,VS,01-701-1015,30,HDCIRC,Head Circumference,,44.79,cm,44.79,44.79,cm,,,,10,WEEK 16,,2014-05-07,,,,,,,Epoch
20,CDISCPILOT01,VS,01-701-1015,34,HDCIRC,Head Circumference,,45.92,cm,45.92,45.92,cm,,,,11,WEEK 20,,2014-05-21,,,,,,,Epoch
21,CDISCPILOT01,VS,01-701-1015,38,HDCIRC,Head Circumference,,46.88,cm,46.88,46.88,cm,,,,12,WEEK 24,,2014-06-18,,,,,,,Epoch
22,CDISCPILOT01,VS,01-701-1015,42,HDCIRC,Head Circumference,,47.56,cm,47.56,47.56,cm,,,,13,WEEK 26,,2014-07-02,,,,,,,Epoch
23,CDISCPILOT01,VS,01-701-1015,3,HEIGHT,Height,,74.13,cm,74.13,74.13,cm,,,,1,SCREENING 1,,2013-12-26,,,,,,,Epoch
24,CDISCPILOT01,VS,01-701-1015,7,HEIGHT,Height,,74.41,cm,74.41,74.41,cm,,,,3,BASELINE,,2014-01-02,,,,,,,Epoch
25,CDISCPILOT01,VS,01-701-1015,11,HEIGHT,Height,,74.71,cm,74.71,74.71,cm,,,,4,WEEK 2,,2014-01-16,,,,,,,Epoch
26,CDISCPILOT01,VS,01-701-1015,15,HEIGHT,Height,,75.32,cm,75.32,75.32,cm,,,,5,WEEK 4,,2014-01-30,,,,,,,Epoch
27,CDISCPILOT01,VS,01-701-1015,19,HEIGHT,Height,,75.93,cm,75.93,75.93,cm,,,,7,WEEK 6,,2014-02-12,,,,,,,Epoch
28,CDISCPILOT01,VS,01-701-1015,23,HEIGHT,Height,,76.54,cm,76.54,76.54,cm,,,,8,WEEK 8,,2014-03-05,,,,,,,Epoch
29,CDISCPILOT01,VS,01-701-1015,27,HEIGHT,Height,,77.72,cm,77.72,77.72,cm,,,,9,WEEK 12,,2014-03-26,,,,,,,Epoch
30,CDISCPILOT01,VS,01-701-1015,31,HEIGHT,Height,,78.96,cm,78.96,78.96,cm,,,,10,WEEK 16,,2014-05-07,,,,,,,Epoch
31,CDISCPILOT01,VS,01-701-1015,35,HEIGHT,Height,,80.22,cm,80.22,80.22,cm,,,,11,WEEK 20,,2014-05-21,,,,,,,Epoch
32,CDISCPILOT01,VS,01-701-1015,39,HEIGHT,Height,,81.43,cm,81.43,81.43,cm,,,,12,WEEK 24,,2014-06-18,,,,,,,Epoch
33,CDISCPILOT01,VS,01-701-1015,43,HEIGHT,Height,,82.03,cm,82.03,82.03,cm,,,,13,WEEK 26,,2014-07-02,,,,,,,Epoch
34,CDISCPILOT01,VS,01-701-1015,4,WEIGHT,Weight,,9.11,kg,9.11,9.11,kg,,,,1,SCREENING 1,,2013-12-26,,,,,,,Epoch
35,CDISCPILOT01,VS,01-701-1015,8,WEIGHT,Weight,,9.2,kg,9.2,9.2,kg,,,,3,BASELINE,,2014-01-02,,,,,,,Epoch
36,CDISCPILOT01,VS,01-701-1015,12,WEIGHT,Weight,,9.32,kg,9.32,9.32,kg,,,,4,WEEK 2,,2014-01-16,,,,,,,Epoch
37,CDISCPILOT01,VS,01-701-1015,16,WEIGHT,Weight,,9.54,kg,9.54,9.54,kg,,,,5,WEEK 4,,2014-01-30,,,,,,,Epoch
38,CDISCPILOT01,VS,01-701-1015,20,WEIGHT,Weight,,9.7,kg,9.7,9.7,kg,,,,7,WEEK 6,,2014-02-12,,,,,,,Epoch
39,CDISCPILOT01,VS,01-701-1015,24,WEIGHT,Weight,,9.91,kg,9.91,9.91,kg,,,,8,WEEK 8,,2014-03-05,,,,,,,Epoch
40,CDISCPILOT01,VS,01-701-1015,28,WEIGHT,Weight,,10.3,kg,10.3,10.3,kg,,,,9,WEEK 12,,2014-03-26,,,,,,,Epoch
41,CDISCPILOT01,VS,01-701-1015,32,WEIGHT,Weight,,10.7,kg,10.7,10.7,kg,,,,10,WEEK 16,,2014-05-07,,,,,,,Epoch
42,CDISCPILOT01,VS,01-701-1015,36,WEIGHT,Weight,,11.1,kg,11.1,11.1,kg,,,,11,WEEK 20,,2014-05-21,,,,,,,Epoch
43,CDISCPILOT01,VS,01-701-1015,40,WEIGHT,Weight,,11.56,kg,11.56,11.56,kg,,,,12,WEEK 24,,2014-06-18,,,,,,,Epoch
44,CDISCPILOT01,VS,01-701-1015,44,WEIGHT,Weight,,11.71,kg,11.71,11.71,kg,,,,13,WEEK 26,,2014-07-02,,,,,,,Epoch
45,CDISCPILOT01,VS,01-701-1023,45,BMI,BMI,,16.2316478734686,kg/m2,16.2316478734686,16.231647873468642,kg/m2,,,,1,SCREENING 1,,2012-07-22,,,,,,,Epoch
46,CDISCPILOT01,VS,01-701-1023,49,BMI,BMI,,16.5509714386601,kg/m2,16.5509714386601,16.55097143866013,kg/m2,,,,3,BASELINE,,2012-08-05,,,,,,,Epoch
47,CDISCPILOT01,VS,01-701-1023,53,BMI,BMI,,16.6824042848641,kg/m2,16.6824042848641,16.682404284864116,kg/m2,,,,4,WEEK 2,,2012-08-27,,,,,,,Epoch
48,CDISCPILOT01,VS,01-701-1023,57,BMI,BMI,,16.8927555813319,kg/m2,16.8927555813319,16.8927555813319,kg/m2,,,,5,WEEK 4,,2012-09-02,,,,,,,Epoch
49,CDISCPILOT01,VS,01-701-1023,46,HDCIRC,Head Circumference,,48.34,cm,48.34,48.34,cm,,,,1,SCREENING 1,,2012-07-22,,,,,,,Epoch
50,CDISCPILOT01,VS,01-701-1023,50,HDCIRC,Head Circumference,,48.71,cm,48.71,48.71,cm,,,,3,BASELINE,,2012-08-05,,,,,,,Epoch
51,CDISCPILOT01,VS,01-701-1023,54,HDCIRC,Head Circumference,,49.12,cm,49.12,49.12,cm,,,,4,WEEK 2,,2012-08-27,,,,,,,Epoch
52,CDISCPILOT01,VS,01-701-1023,58,HDCIRC,Head Circumference,,49.56,cm,49.56,49.56,cm,,,,5,WEEK 4,,2012-09-02,,,,,,,Epoch
53,CDISCPILOT01,VS,01-701-1023,47,HEIGHT,Height,,87.65,cm,87.65,87.65,cm,,,,1,SCREENING 1,,2012-07-22,,,,,,,Epoch
54,CDISCPILOT01,VS,01-701-1023,51,HEIGHT,Height,,88.25,cm,88.25,88.25,cm,,,,3,BASELINE,,2012-08-05,,,,,,,Epoch
55,CDISCPILOT01,VS,01-701-1023,55,HEIGHT,Height,,88.75,cm,88.75,88.75,cm,,,,4,WEEK 2,,2012-08-27,,,,,,,Epoch
56,CDISCPILOT01,VS,01-701-1023,59,HEIGHT,Height,,89.23,cm,89.23,89.23,cm,,,,5,WEEK 4,,2012-09-02,,,,,,,Epoch
57,CDISCPILOT01,VS,01-701-1023,48,WEIGHT,Weight,,12.47,kg,12.47,12.47,kg,,,,1,SCREENING 1,,2012-07-22,,,,,,,Epoch
58,CDISCPILOT01,VS,01-701-1023,52,WEIGHT,Weight,,12.89,kg,12.89,12.89,kg,,,,3,BASELINE,,2012-08-05,,,,,,,Epoch
59,CDISCPILOT01,VS,01-701-1023,56,WEIGHT,Weight,,13.14,kg,13.14,13.14,kg,,,,4,WEEK 2,,2012-08-27,,,,,,,Epoch
60,CDISCPILOT01,VS,01-701-1023,60,WEIGHT,Weight,,13.45,kg,13.45,13.45,kg,,,,5,WEEK 4,,2012-09-02,,,,,,,Epoch
61,CDISCPILOT01,VS,01-701-1028,61,BMI,BMI,,15.154928262673,kg/m2,15.154928262673,15.154928262672955,kg/m2,,,,1,SCREENING 1,,2013-07-11,,,,,,,Epoch
62,CDISCPILOT01,VS,01-701-1028,65,BMI,BMI,,15.2689648586561,kg/m2,15.2689648586561,15.26896485865611,kg/m2,,,,3,BASELINE,,2013-07-19,,,,,,,Epoch
63,CDISCPILOT01,VS,01-701-1028,69,BMI,BMI,,15.3722440059294,kg/m2,15.3722440059294,15.372244005929367,kg/m2,,,,4,WEEK 2,,2013-08-01,,,,,,,Epoch
64,CDISCPILOT01,VS,01-701-1028,73,BMI,BMI,,15.5292280401619,kg/m2,15.5292280401619,15.529228040161904,kg/m2,,,,5,WEEK 4,,2013-08-14,,,,,,,Epoch
65,CDISCPILOT01,VS,01-701-1028,77,BMI,BMI,,15.6193632588032,kg/m2,15.6193632588032,15.61936325880321,kg/m2,,,,7,WEEK 6,,2013-08-29,,,,,,,Epoch
66,CDISCPILOT01,VS,01-701-1028,81,BMI,BMI,,15.6983965386225,kg/m2,15.6983965386225,15.698396538622493,kg/m2,,,,8,WEEK 8,,2013-09-10,,,,,,,Epoch
67,CDISCPILOT01,VS,01-701-1028,85,BMI,BMI,,16.0116955538951,kg/m2,16.0116955538951,16.011695553895112,kg/m2,,,,9,WEEK 12,,2013-10-09,,,,,,,Epoch
68,CDISCPILOT01,VS,01-701-1028,89,BMI,BMI,,16.2455726202149,kg/m2,16.2455726202149,16.245572620214904,kg/m2,,,,10,WEEK 16,,2013-11-06,,,,,,,Epoch
69,CDISCPILOT01,VS,01-701-1028,93,BMI,BMI,,16.4552759976314,kg/m2,16.4552759976314,16.4552759976314,kg/m2,,,,11,WEEK 20,,2013-12-04,,,,,,,Epoch
70,CDISCPILOT01,VS,01-701-1028,97,BMI,BMI,,16.7334454385238,kg/m2,16.7334454385238,16.733445438523763,kg/m2,,,,12,WEEK 24,,2014-01-06,,,,,,,Epoch
71,CDISCPILOT01,VS,01-701-1028,101,BMI,BMI,,16.8842984953281,kg/m2,16.8842984953281,16.884298495328075,kg/m2,,,,13,WEEK 26,,2014-01-14,,,,,,,Epoch
72,CDISCPILOT01,VS,01-701-1028,62,HDCIRC,Head Circumference,,51.34,cm,51.34,51.34,cm,,,,1,SCREENING 1,,2013-07-11,,,,,,,Epoch
73,CDISCPILOT01,VS,01-701-1028,66,HDCIRC,Head Circumference,,51.71,cm,51.71,51.71,cm,,,,3,BASELINE,,2013-07-19,,,,,,,Epoch
74,CDISCPILOT01,VS,01-701-1028,70,HDCIRC,Head Circumference,,52.12,cm,52.12,52.12,cm,,,,4,WEEK 2,,2013-08-01,,,,,,,Epoch
75,CDISCPILOT01,VS,01-701-1028,74,HDCIRC,Head Circumference,,52.56,cm,52.56,52.56,cm,,,,5,WEEK 4,,2013-08-14,,,,,,,Epoch
76,CDISCPILOT01,VS,01-701-1028,78,HDCIRC,Head Circumference,,52.93,cm,52.93,52.93,cm,,,,7,WEEK 6,,2013-08-29,,,,,,,Epoch
77,CDISCPILOT01,VS,01-701-1028,82,HDCIRC,Head Circumference,,53.45,cm,53.45,53.45,cm,,,,8,WEEK 8,,2013-09-10,,,,,,,Epoch
78,CDISCPILOT01,VS,01-701-1028,86,HDCIRC,Head Circumference,,54.02,cm,54.02,54.02,cm,,,,9,WEEK 12,,2013-10-09,,,,,,,Epoch
79,CDISCPILOT01,VS,01-701-1028,90,HDCIRC,Head Circumference,,54.48,cm,54.48,54.48,cm,,,,10,WEEK 16,,2013-11-06,,,,,,,Epoch
80,CDISCPILOT01,VS,01-701-1028,94,HDCIRC,Head Circumference,,54.97,cm,54.97,54.97,cm,,,,11,WEEK 20,,2013-12-04,,,,,,,Epoch
81,CDISCPILOT01,VS,01-701-1028,98,HDCIRC,Head Circumference,,55.44,cm,55.44,55.44,cm,,,,12,WEEK 24,,2014-01-06,,,,,,,Epoch
82,CDISCPILOT01,VS,01-701-1028,102,HDCIRC,Head Circumference,,55.82,cm,55.82,55.82,cm,,,,13,WEEK 26,,2014-01-14,,,,,,,Epoch
83,CDISCPILOT01,VS,01-701-1028,63,HEIGHT,Height,,98.32,cm,98.32,98.32,cm,,,,1,SCREENING 1,,2013-07-11,,,,,,,Epoch
84,CDISCPILOT01,VS,01-701-1028,67,HEIGHT,Height,,98.95,cm,98.95,98.95,cm,,,,3,BASELINE,,2013-07-19,,,,,,,Epoch
85,CDISCPILOT01,VS,01-701-1028,71,HEIGHT,Height,,99.34,cm,99.34,99.34,cm,,,,4,WEEK 2,,2013-08-01,,,,,,,Epoch
86,CDISCPILOT01,VS,01-701-1028,75,HEIGHT,Height,,99.68,cm,99.68,99.68,cm,,,,5,WEEK 4,,2013-08-14,,,,,,,Epoch
87,CDISCPILOT01,VS,01-701-1028,79,HEIGHT,Height,,100.13,cm,100.13,100.13,cm,,,,7,WEEK 6,,2013-08-29,,,,,,,Epoch
88,CDISCPILOT01,VS,01-701-1028,83,HEIGHT,Height,,100.45,cm,100.45,100.45,cm,,,,8,WEEK 8,,2013-09-10,,,,,,,Epoch
89,CDISCPILOT01,VS,01-701-1028,87,HEIGHT,Height,,101.02,cm,101.02,101.02,cm,,,,9,WEEK 12,,2013-10-09,,,,,,,Epoch
90,CDISCPILOT01,VS,01-701-1028,91,HEIGHT,Height,,101.48,cm,101.48,101.48,cm,,,,10,WEEK 16,,2013-11-06,,,,,,,Epoch
91,CDISCPILOT01,VS,01-701-1028,95,HEIGHT,Height,,101.97,cm,101.97,101.97,cm,,,,11,WEEK 20,,2013-12-04,,,,,,,Epoch
92,CDISCPILOT01,VS,01-701-1028,99,HEIGHT,Height,,102.44,cm,102.44,102.44,cm,,,,12,WEEK 24,,2014-01-06,,,,,,,Epoch
93,CDISCPILOT01,VS,01-701-1028,103,HEIGHT,Height,,102.82,cm,102.82,102.82,cm,,,,13,WEEK 26,,2014-01-14,,,,,,,Epoch
94,CDISCPILOT01,VS,01-701-1028,64,WEIGHT,Weight,,14.65,kg,14.65,14.65,kg,,,,1,SCREENING 1,,2013-07-11,,,,,,,Epoch
95,CDISCPILOT01,VS,01-701-1028,68,WEIGHT,Weight,,14.95,kg,14.95,14.95,kg,,,,3,BASELINE,,2013-07-19,,,,,,,Epoch
96,CDISCPILOT01,VS,01-701-1028,72,WEIGHT,Weight,,15.17,kg,15.17,15.17,kg,,,,4,WEEK 2,,2013-08-01,,,,,,,Epoch
97,CDISCPILOT01,VS,01-701-1028,76,WEIGHT,Weight,,15.43,kg,15.43,15.43,kg,,,,5,WEEK 4,,2013-08-14,,,,,,,Epoch
98,CDISCPILOT01,VS,01-701-1028,80,WEIGHT,Weight,,15.66,kg,15.66,15.66,kg,,,,7,WEEK 6,,2013-08-29,,,,,,,Epoch
99,CDISCPILOT01,VS,01-701-1028,84,WEIGHT,Weight,,15.84,kg,15.84,15.84,kg,,,,8,WEEK 8,,2013-09-10,,,,,,,Epoch
100,CDISCPILOT01,VS,01-701-1028,88,WEIGHT,Weight,,16.34,kg,16.34,16.34,kg,,,,9,WEEK 12,,2013-10-09,,,,,,,Epoch
101,CDISCPILOT01,VS,01-701-1028,92,WEIGHT,Weight,,16.73,kg,16.73,16.73,kg,,,,10,WEEK 16,,2013-11-06,,,,,,,Epoch
102,CDISCPILOT01,VS,01-701-1028,96,WEIGHT,Weight,,17.11,kg,17.11,17.11,kg,,,,11,WEEK 20,,2013-12-04,,,,,,,Epoch
103,CDISCPILOT01,VS,01-701-1028,100,WEIGHT,Weight,,17.56,kg,17.56,17.56,kg,,,,12,WEEK 24,,2014-01-06,,,,,,,Epoch
104,CDISCPILOT01,VS,01-701-1028,104,WEIGHT,Weight,,17.85,kg,17.85,17.85,kg,,,,13,WEEK 26,,2014-01-14,,,,,,,Epoch
105,CDISCPILOT01,VS,01-701-1033,105,BMI,BMI,,15.9012987711154,kg/m2,15.9012987711154,15.901298771115373,kg/m2,,,,1,SCREENING 1,,2014-03-10,,,,,,,Epoch
106,CDISCPILOT01,VS,01-701-1033,109,BMI,BMI,,16.0758500637944,kg/m2,16.0758500637944,16.075850063794373,kg/m2,,,,3,BASELINE,,2014-03-18,,,,,,,Epoch
107,CDISCPILOT01,VS,01-701-1033,113,BMI,BMI,,16.1969532717111,kg/m2,16.1969532717111,16.19695327171106,kg/m2,,,,4,WEEK 2,,2014-04-01,,,,,,,Epoch
108,CDISCPILOT01,VS,01-701-1033,117,BMI,BMI,,16.2974757787294,kg/m2,16.2974757787294,16.2974757787294,kg/m2,,,,5,WEEK 4,,2014-04-14,,,,,,,Epoch
109,CDISCPILOT01,VS,01-701-1033,106,HDCIRC,Head Circumference,,40.34,cm,40.34,40.34,cm,,,,1,SCREENING 1,,2014-03-10,,,,,,,Epoch
110,CDISCPILOT01,VS,01-701-1033,110,HDCIRC,Head Circumference,,40.71,cm,40.71,40.71,cm,,,,3,BASELINE,,2014-03-18,,,,,,,Epoch
111,CDISCPILOT01,VS,01-701-1033,114,HDCIRC,Head Circumference,,41.12,cm,41.12,41.12,cm,,,,4,WEEK 2,,2014-04-01,,,,,,,Epoch
112,CDISCPILOT01,VS,01-701-1033,118,HDCIRC,Head Circumference,,41.56,cm,41.56,41.56,cm,,,,5,WEEK 4,,2014-04-14,,,,,,,Epoch
113,CDISCPILOT01,VS,01-701-1033,107,HEIGHT,Height,,59.45,cm,59.45,59.45,cm,,,,1,SCREENING 1,,2014-03-10,,,,,,,Epoch
114,CDISCPILOT01,VS,01-701-1033,111,HEIGHT,Height,,60.53,cm,60.53,60.53,cm,,,,3,BASELINE,,2014-03-18,,,,,,,Epoch
115,CDISCPILOT01,VS,01-701-1033,115,HEIGHT,Height,,61.72,cm,61.72,61.72,cm,,,,4,WEEK 2,,2014-04-01,,,,,,,Epoch
116,CDISCPILOT01,VS,01-701-1033,119,HEIGHT,Height,,62.91,cm,62.91,62.91,cm,,,,5,WEEK 4,,2014-04-14,,,,,,,Epoch
117,CDISCPILOT01,VS,01-701-1033,108,WEIGHT,Weight,,5.62,kg,5.62,5.62,kg,,,,1,SCREENING 1,,2014-03-10,,,,,,,Epoch
118,CDISCPILOT01,VS,01-701-1033,112,WEIGHT,Weight,,5.89,kg,5.89,5.89,kg,,,,3,BASELINE,,2014-03-18,,,,,,,Epoch
119,CDISCPILOT01,VS,01-701-1033,116,WEIGHT,Weight,,6.17,kg,6.17,6.17,kg,,,,4,WEEK 2,,2014-04-01,,,,,,,Epoch
120,CDISCPILOT01,VS,01-701-1033,120,WEIGHT,Weight,,6.45,kg,6.45,6.45,kg,,,,5,WEEK 4,,2014-04-14,,,,,,,Epoch
121,CDISCPILOT01,VS,01-701-1034,121,BMI,BMI,,14.7655448616338,kg/m2,14.7655448616338,14.765544861633819,kg/m2,,,,1,SCREENING 1,,2014-06-24,,,,,,,Epoch
122,CDISCPILOT01,VS,01-701-1034,125,BMI,BMI,,15.1957026552891,kg/m2,15.1957026552891,15.195702655289079,kg/m2,,,,3,BASELINE,,2014-07-01,,,,,,,Epoch
123,CDISCPILOT01,VS,01-701-1034,129,BMI,BMI,,15.4612705554637,kg/m2,15.4612705554637,15.461270555463713,kg/m2,,,,4,WEEK 2,,2014-07-15,,,,,,,Epoch
124,CDISCPILOT01,VS,01-701-1034,133,BMI,BMI,,15.7734523057969,kg/m2,15.7734523057969,15.77345230579695,kg/m2,,,,5,WEEK 4,,2014-07-29,,,,,,,Epoch
125,CDISCPILOT01,VS,01-701-1034,137,BMI,BMI,,16.1322055181639,kg/m2,16.1322055181639,16.13220551816394,kg/m2,,,,7,WEEK 6,,2014-08-11,,,,,,,Epoch
126,CDISCPILOT01,VS,01-701-1034,141,BMI,BMI,,16.3822989118786,kg/m2,16.3822989118786,16.38229891187865,kg/m2,,,,8,WEEK 8,,2014-08-26,,,,,,,Epoch
127,CDISCPILOT01,VS,01-701-1034,145,BMI,BMI,,16.599431723481,kg/m2,16.599431723481,16.59943172348096,kg/m2,,,,9,WEEK 12,,2014-09-25,,,,,,,Epoch
128,CDISCPILOT01,VS,01-701-1034,149,BMI,BMI,,16.841260070936,kg/m2,16.841260070936,16.841260070936016,kg/m2,,,,10,WEEK 16,,2014-10-21,,,,,,,Epoch
129,CDISCPILOT01,VS,01-701-1034,153,BMI,BMI,,17.0554979079726,kg/m2,17.0554979079726,17.05549790797263,kg/m2,,,,11,WEEK 20,,2014-11-18,,,,,,,Epoch
130,CDISCPILOT01,VS,01-701-1034,157,BMI,BMI,,17.2445716125228,kg/m2,17.2445716125228,17.24457161252282,kg/m2,,,,12,WEEK 24,,2014-12-17,,,,,,,Epoch
131,CDISCPILOT01,VS,01-701-1034,161,BMI,BMI,,17.4106745811808,kg/m2,17.4106745811808,17.4106745811808,kg/m2,,,,13,WEEK 26,,2014-12-30,,,,,,,Epoch
132,CDISCPILOT01,VS,01-701-1034,122,HDCIRC,Head Circumference,,38.45,cm,38.45,38.45,cm,,,,1,SCREENING 1,,2014-06-24,,,,,,,Epoch
133,CDISCPILOT01,VS,01-701-1034,126,HDCIRC,Head Circumference,,38.92,cm,38.92,38.92,cm,,,,3,BASELINE,,2014-07-01,,,,,,,Epoch
134,CDISCPILOT01,VS,01-701-1034,130,HDCIRC,Head Circumference,,39.34,cm,39.34,39.34,cm,,,,4,WEEK 2,,2014-07-15,,,,,,,Epoch
135,CDISCPILOT01,VS,01-701-1034,134,HDCIRC,Head Circumference,,39.78,cm,39.78,39.78,cm,,,,5,WEEK 4,,2014-07-29,,,,,,,Epoch
136,CDISCPILOT01,VS,01-701-1034,138,HDCIRC,Head Circumference,,40.23,cm,40.23,40.23,cm,,,,7,WEEK 6,,2014-08-11,,,,,,,Epoch
137,CDISCPILOT01,VS,01-701-1034,142,HDCIRC,Head Circumference,,40.65,cm,40.65,40.65,cm,,,,8,WEEK 8,,2014-08-26,,,,,,,Epoch
138,CDISCPILOT01,VS,01-701-1034,146,HDCIRC,Head Circumference,,41.07,cm,41.07,41.07,cm,,,,9,WEEK 12,,2014-09-25,,,,,,,Epoch
139,CDISCPILOT01,VS,01-701-1034,150,HDCIRC,Head Circumference,,41.48,cm,41.48,41.48,cm,,,,10,WEEK 16,,2014-10-21,,,,,,,Epoch
140,CDISCPILOT01,VS,01-701-1034,154,HDCIRC,Head Circumference,,41.89,cm,41.89,41.89,cm,,,,11,WEEK 20,,2014-11-18,,,,,,,Epoch
141,CDISCPILOT01,VS,01-701-1034,158,HDCIRC,Head Circumference,,42.3,cm,42.3,42.3,cm,,,,12,WEEK 24,,2014-12-17,,,,,,,Epoch
142,CDISCPILOT01,VS,01-701-1034,162,HDCIRC,Head Circumference,,42.72,cm,42.72,42.72,cm,,,,13,WEEK 26,,2014-12-30,,,,,,,Epoch
143,CDISCPILOT01,VS,01-701-1034,123,HEIGHT,Height,,53.65,cm,53.65,53.65,cm,,,,1,SCREENING 1,,2014-06-24,,,,,,,Epoch
144,CDISCPILOT01,VS,01-701-1034,127,HEIGHT,Height,,54.78,cm,54.78,54.78,cm,,,,3,BASELINE,,2014-07-01,,,,,,,Epoch
145,CDISCPILOT01,VS,01-701-1034,131,HEIGHT,Height,,55.95,cm,55.95,55.95,cm,,,,4,WEEK 2,,2014-07-15,,,,,,,Epoch
146,CDISCPILOT01,VS,01-701-1034,135,HEIGHT,Height,,57.14,cm,57.14,57.14,cm,,,,5,WEEK 4,,2014-07-29,,,,,,,Epoch
147,CDISCPILOT01,VS,01-701-1034,139,HEIGHT,Height,,58.23,cm,58.23,58.23,cm,,,,7,WEEK 6,,2014-08-11,,,,,,,Epoch
148,CDISCPILOT01,VS,01-701-1034,143,HEIGHT,Height,,59.45,cm,59.45,59.45,cm,,,,8,WEEK 8,,2014-08-26,,,,,,,Epoch
149,CDISCPILOT01,VS,01-701-1034,147,HEIGHT,Height,,60.67,cm,60.67,60.67,cm,,,,9,WEEK 12,,2014-09-25,,,,,,,Epoch
150,CDISCPILOT01,VS,01-701-1034,151,HEIGHT,Height,,61.79,cm,61.79,61.79,cm,,,,10,WEEK 16,,2014-10-21,,,,,,,Epoch
151,CDISCPILOT01,VS,01-701-1034,155,HEIGHT,Height,,62.91,cm,62.91,62.91,cm,,,,11,WEEK 20,,2014-11-18,,,,,,,Epoch
152,CDISCPILOT01,VS,01-701-1034,159,HEIGHT,Height,,64.03,cm,64.03,64.03,cm,,,,12,WEEK 24,,2014-12-17,,,,,,,Epoch
153,CDISCPILOT01,VS,01-701-1034,163,HEIGHT,Height,,65.15,cm,65.15,65.15,cm,,,,13,WEEK 26,,2014-12-30,,,,,,,Epoch
154,CDISCPILOT01,VS,01-701-1034,124,WEIGHT,Weight,,4.25,kg,4.25,4.25,kg,,,,1,SCREENING 1,,2014-06-24,,,,,,,Epoch
155,CDISCPILOT01,VS,01-701-1034,128,WEIGHT,Weight,,4.56,kg,4.56,4.56,kg,,,,3,BASELINE,,2014-07-01,,,,,,,Epoch
156,CDISCPILOT01,VS,01-701-1034,132,WEIGHT,Weight,,4.84,kg,4.84,4.84,kg,,,,4,WEEK 2,,2014-07-15,,,,,,,Epoch
157,CDISCPILOT01,VS,01-701-1034,136,WEIGHT,Weight,,5.15,kg,5.15,5.15,kg,,,,5,WEEK 4,,2014-07-29,,,,,,,Epoch
158,CDISCPILOT01,VS,01-701-1034,140,WEIGHT,Weight,,5.47,kg,5.47,5.47,kg,,,,7,WEEK 6,,2014-08-11,,,,,,,Epoch
159,CDISCPILOT01,VS,01-701-1034,144,WEIGHT,Weight,,5.79,kg,5.79,5.79,kg,,,,8,WEEK 8,,2014-08-26,,,,,,,Epoch
160,CDISCPILOT01,VS,01-701-1034,148,WEIGHT,Weight,,6.11,kg,6.11,6.11,kg,,,,9,WEEK 12,,2014-09-25,,,,,,,Epoch
161,CDISCPILOT01,VS,01-701-1034,152,WEIGHT,Weight,,6.43,kg,6.43,6.43,kg,,,,10,WEEK 16,,2014-10-21,,,,,,,Epoch
162,CDISCPILOT01,VS,01-701-1034,156,WEIGHT,Weight,,6.75,kg,6.75,6.75,kg,,,,11,WEEK 20,,2014-11-18,,,,,,,Epoch
163,CDISCPILOT01,VS,01-701-1034,160,WEIGHT,Weight,,7.07,kg,7.07,7.07,kg,,,,12,WEEK 24,,2014-12-17,,,,,,,Epoch
164,CDISCPILOT01,VS,01-701-1034,164,WEIGHT,Weight,,7.39,kg,7.39,7.39,kg,,,,13,WEEK 26,,2014-12-30,,,,,,,Epoch
