rownames,STUDYID,DOMAIN,USUBJID,LBSEQ,LBTESTCD,LBTEST,LBCAT,LBORRES,LBORRESU,LBORNRLO,LBORNRHI,LBSTRESC,LBSTRESN,LBSTRESU,LBSTNRLO,LBSTNRHI,LBNRIND,LBBLFL,VISITNUM,VISIT,VISITDY,LBDTC,LBDY,TRTSDT,TRTEDT,TRT01A,TRT01P,ADT,ADY,PARAMCD,PARAM,PARAMN,PARCAT1,AVAL,AVALC,ANRLO,ANRHI,DTYPE,AVISIT,AVISITN,ONTRTFL,ANRIND,BASETYPE,ABLFL,BASE,BASEC,BNRIND,CHG,PCHG,ATOXDSCL,ATOXDSCH,ATOXGRL,ATOXGRH,ATOXGR,BTOXGRL,BTOXGRH,BTOXGR,R2BASE,R2ANRLO,R2ANRHI,SHIFT1,SHIFT2,ANL01FL,LVOTFL,TRTP,TRTA,ASEQ,SUBJID,RFSTDTC,RFENDTC,RFXSTDTC,RFXENDTC,RFICDTC,RFPENDTC,DTHDTC,DTHFL,SITEID,AGE,AGEU,SEX,RACE,ETHNIC,ARMCD,ARM,ACTARMCD,ACTARM,COUNTRY,DMDTC,DMDY,TRTSDTM,TRTSTMF,TRTEDTM,TRTETMF,TRTDURD,SCRFDT,EOSDT,EOSSTT,FRVDT,RANDDT,DTHDT,DTHDTF,DTHADY,LDDTHELD,DTHCAUS,DTHDOM,DTHCGR1,LSTALVDT,SAFFL,RACEGR1,AGEGR1,REGION1,LDDTHGR1,DTH30FL,DTHA30FL,DTHB30FL
1,CDISCPILOT01,LB,01-701-1015,3,ALT,Alanine Aminotransferase,CHEMISTRY,27,U/L,6,34,27,27,U/L,6,34,NORMAL,Y,1,SCREENING 1,-7,2013-12-26T14:45,-7,2014-01-02,2014-07-02,Placebo,Placebo,2013-12-26,-7,ALT,Alanine Aminotransferase (U/L),3,CHEMISTRY,27,,6,34,,Baseline,0,,NORMAL,LAST,Y,27,,NORMAL,,,,Alanine aminotransferase increased,,0,0,,0,0,1,4.5,0.7941176470588235,NORMAL to NORMAL,0 to 0,,,Placebo,Placebo,27,1015,2014-01-02,2014-07-02,2014-01-02,2014-07-02,,2014-07-02T11:45,,,701,63,YEARS,F,WHITE,HISPANIC OR LATINO,Pbo,Placebo,Pbo,Placebo,USA,2013-12-26,-7,2014-01-02T00:00:00Z,H,2014-07-02T23:59:59Z,H,182,,2014-07-02,COMPLETED,,2014-01-02,,,,,,,,2014-07-02,Y,White,18-64,NA,,,,
2,CDISCPILOT01,LB,01-701-1015,41,ALT,Alanine Aminotransferase,CHEMISTRY,41,U/L,6,34,41,41,U/L,6,34,HIGH,,4,WEEK 2,14,2014-01-16T13:17,15,2014-01-02,2014-07-02,Placebo,Placebo,2014-01-16,15,ALT,Alanine Aminotransferase (U/L),3,CHEMISTRY,41,,6,34,,Week 2,4,Y,HIGH,LAST,,27,,NORMAL,14,51.85185185185185,,Alanine aminotransferase increased,,1,1,,0,0,1.5185185185185186,6.833333333333333,1.2058823529411764,NORMAL to HIGH,0 to 1,Y,,Placebo,Placebo,28,1015,2014-01-02,2014-07-02,2014-01-02,2014-07-02,,2014-07-02T11:45,,,701,63,YEARS,F,WHITE,HISPANIC OR LATINO,Pbo,Placebo,Pbo,Placebo,USA,2013-12-26,-7,2014-01-02T00:00:00Z,H,2014-07-02T23:59:59Z,H,182,,2014-07-02,COMPLETED,,2014-01-02,,,,,,,,2014-07-02,Y,White,18-64,NA,,,,
3,CDISCPILOT01,LB,01-701-1015,41,ALT,Alanine Aminotransferase,CHEMISTRY,41,U/L,6,34,41,41,U/L,6,34,HIGH,,4,WEEK 2,14,2014-01-16T13:17,15,2014-01-02,2014-07-02,Placebo,Placebo,2014-01-16,15,ALT,Alanine Aminotransferase (U/L),3,CHEMISTRY,41,,6,34,MAXIMUM,POST-BASELINE MAXIMUM,9998,Y,HIGH,LAST,,27,,NORMAL,14,51.85185185185185,,Alanine aminotransferase increased,,1,1,,0,0,1.5185185185185186,6.833333333333333,1.2058823529411764,NORMAL to HIGH,0 to 1,Y,,Placebo,Placebo,29,1015,2014-01-02,2014-07-02,2014-01-02,2014-07-02,,2014-07-02T11:45,,,701,63,YEARS,F,WHITE,HISPANIC OR LATINO,Pbo,Placebo,Pbo,Placebo,USA,2013-12-26,-7,2014-01-02T00:00:00Z,H,2014-07-02T23:59:59Z,H,182,,2014-07-02,COMPLETED,,2014-01-02,,,,,,,,2014-07-02,Y,White,18-64,NA,,,,
4,CDISCPILOT01,LB,01-701-1015,76,ALT,Alanine Aminotransferase,CHEMISTRY,18,U/L,6,34,18,18,U/L,6,34,NORMAL,,5,WEEK 4,28,2014-01-30T08:50,29,2014-01-02,2014-07-02,Placebo,Placebo,2014-01-30,29,ALT,Alanine Aminotransferase (U/L),3,CHEMISTRY,18,,6,34,,Week 4,5,Y,NORMAL,LAST,,27,,NORMAL,-9,-33.33333333333333,,Alanine aminotransferase increased,,0,0,,0,0,0.6666666666666666,3,0.5294117647058824,NORMAL to NORMAL,0 to 0,Y,,Placebo,Placebo,30,1015,2014-01-02,2014-07-02,2014-01-02,2014-07-02,,2014-07-02T11:45,,,701,63,YEARS,F,WHITE,HISPANIC OR LATINO,Pbo,Placebo,Pbo,Placebo,USA,2013-12-26,-7,2014-01-02T00:00:00Z,H,2014-07-02T23:59:59Z,H,182,,2014-07-02,COMPLETED,,2014-01-02,,,,,,,,2014-07-02,Y,White,18-64,NA,,,,
5,CDISCPILOT01,LB,01-701-1015,106,ALT,Alanine Aminotransferase,CHEMISTRY,26,U/L,6,34,26,26,U/L,6,34,NORMAL,,7,WEEK 6,42,2014-02-12T12:56,42,2014-01-02,2014-07-02,Placebo,Placebo,2014-02-12,42,ALT,Alanine Aminotransferase (U/L),3,CHEMISTRY,26,,6,34,,Week 6,7,Y,NORMAL,LAST,,27,,NORMAL,-1,-3.7037037037037033,,Alanine aminotransferase increased,,0,0,,0,0,0.9629629629629629,4.333333333333333,0.7647058823529411,NORMAL to NORMAL,0 to 0,Y,,Placebo,Placebo,31,1015,2014-01-02,2014-07-02,2014-01-02,2014-07-02,,2014-07-02T11:45,,,701,63,YEARS,F,WHITE,HISPANIC OR LATINO,Pbo,Placebo,Pbo,Placebo,USA,2013-12-26,-7,2014-01-02T00:00:00Z,H,2014-07-02T23:59:59Z,H,182,,2014-07-02,COMPLETED,,2014-01-02,,,,,,,,2014-07-02,Y,White,18-64,NA,,,,
6,CDISCPILOT01,LB,01-701-1015,136,ALT,Alanine Aminotransferase,CHEMISTRY,22,U/L,6,34,22,22,U/L,6,34,NORMAL,,8,WEEK 8,56,2014-03-05T12:25,63,2014-01-02,2014-07-02,Placebo,Placebo,2014-03-05,63,ALT,Alanine Aminotransferase (U/L),3,CHEMISTRY,22,,6,34,,Week 8,8,Y,NORMAL,LAST,,27,,NORMAL,-5,-18.51851851851852,,Alanine aminotransferase increased,,0,0,,0,0,0.8148148148148148,3.6666666666666665,0.6470588235294118,NORMAL to NORMAL,0 to 0,Y,,Placebo,Placebo,32,1015,2014-01-02,2014-07-02,2014-01-02,2014-07-02,,2014-07-02T11:45,,,701,63,YEARS,F,WHITE,HISPANIC OR LATINO,Pbo,Placebo,Pbo,Placebo,USA,2013-12-26,-7,2014-01-02T00:00:00Z,H,2014-07-02T23:59:59Z,H,182,,2014-07-02,COMPLETED,,2014-01-02,,,,,,,,2014-07-02,Y,White,18-64,NA,,,,
7,CDISCPILOT01,LB,01-701-1015,166,ALT,Alanine Aminotransferase,CHEMISTRY,27,U/L,6,34,27,27,U/L,6,34,NORMAL,,9,WEEK 12,84,2014-03-26T15:15,84,2014-01-02,2014-07-02,Placebo,Placebo,2014-03-26,84,ALT,Alanine Aminotransferase (U/L),3,CHEMISTRY,27,,6,34,,Week 12,9,Y,NORMAL,LAST,,27,,NORMAL,0,0,,Alanine aminotransferase increased,,0,0,,0,0,1,4.5,0.7941176470588235,NORMAL to NORMAL,0 to 0,Y,,Placebo,Placebo,33,1015,2014-01-02,2014-07-02,2014-01-02,2014-07-02,,2014-07-02T11:45,,,701,63,YEARS,F,WHITE,HISPANIC OR LATINO,Pbo,Placebo,Pbo,Placebo,USA,2013-12-26,-7,2014-01-02T00:00:00Z,H,2014-07-02T23:59:59Z,H,182,,2014-07-02,COMPLETED,,2014-01-02,,,,,,,,2014-07-02,Y,White,18-64,NA,,,,
8,CDISCPILOT01,LB,01-701-1015,201,ALT,Alanine Aminotransferase,CHEMISTRY,17,U/L,6,34,17,17,U/L,6,34,NORMAL,,10,WEEK 16,112,2014-05-07T11:21,126,2014-01-02,2014-07-02,Placebo,Placebo,2014-05-07,126,ALT,Alanine Aminotransferase (U/L),3,CHEMISTRY,17,,6,34,,Week 16,10,Y,NORMAL,LAST,,27,,NORMAL,-10,-37.03703703703704,,Alanine aminotransferase increased,,0,0,,0,0,0.6296296296296297,2.8333333333333335,0.5,NORMAL to NORMAL,0 to 0,Y,,Placebo,Placebo,34,1015,2014-01-02,2014-07-02,2014-01-02,2014-07-02,,2014-07-02T11:45,,,701,63,YEARS,F,WHITE,HISPANIC OR LATINO,Pbo,Placebo,Pbo,Placebo,USA,2013-12-26,-7,2014-01-02T00:00:00Z,H,2014-07-02T23:59:59Z,H,182,,2014-07-02,COMPLETED,,2014-01-02,,,,,,,,2014-07-02,Y,White,18-64,NA,,,,
9,CDISCPILOT01,LB,01-701-1015,201,ALT,Alanine Aminotransferase,CHEMISTRY,17,U/L,6,34,17,17,U/L,6,34,NORMAL,,10,WEEK 16,112,2014-05-07T11:21,126,2014-01-02,2014-07-02,Placebo,Placebo,2014-05-07,126,ALT,Alanine Aminotransferase (U/L),3,CHEMISTRY,17,,6,34,MINIMUM,POST-BASELINE MINIMUM,9997,Y,NORMAL,LAST,,27,,NORMAL,-10,-37.03703703703704,,Alanine aminotransferase increased,,0,0,,0,0,0.6296296296296297,2.8333333333333335,0.5,NORMAL to NORMAL,0 to 0,Y,,Placebo,Placebo,35,1015,2014-01-02,2014-07-02,2014-01-02,2014-07-02,,2014-07-02T11:45,,,701,63,YEARS,F,WHITE,HISPANIC OR LATINO,Pbo,Placebo,Pbo,Placebo,USA,2013-12-26,-7,2014-01-02T00:00:00Z,H,2014-07-02T23:59:59Z,H,182,,2014-07-02,COMPLETED,,2014-01-02,,,,,,,,2014-07-02,Y,White,18-64,NA,,,,
10,CDISCPILOT01,LB,01-701-1015,231,ALT,Alanine Aminotransferase,CHEMISTRY,21,U/L,6,34,21,21,U/L,6,34,NORMAL,,11,WEEK 20,140,2014-05-21T10:58,140,2014-01-02,2014-07-02,Placebo,Placebo,2014-05-21,140,ALT,Alanine Aminotransferase (U/L),3,CHEMISTRY,21,,6,34,,Week 20,11,Y,NORMAL,LAST,,27,,NORMAL,-6,-22.22222222222222,,Alanine aminotransferase increased,,0,0,,0,0,0.7777777777777778,3.5,0.6176470588235294,NORMAL to NORMAL,0 to 0,Y,,Placebo,Placebo,36,1015,2014-01-02,2014-07-02,2014-01-02,2014-07-02,,2014-07-02T11:45,,,701,63,YEARS,F,WHITE,HISPANIC OR LATINO,Pbo,Placebo,Pbo,Placebo,USA,2013-12-26,-7,2014-01-02T00:00:00Z,H,2014-07-02T23:59:59Z,H,182,,2014-07-02,COMPLETED,,2014-01-02,,,,,,,,2014-07-02,Y,White,18-64,NA,,,,
11,CDISCPILOT01,LB,01-701-1015,261,ALT,Alanine Aminotransferase,CHEMISTRY,23,U/L,6,34,23,23,U/L,6,34,NORMAL,,12,WEEK 24,168,2014-06-18T13:00,168,2014-01-02,2014-07-02,Placebo,Placebo,2014-06-18,168,ALT,Alanine Aminotransferase (U/L),3,CHEMISTRY,23,,6,34,,Week 24,12,Y,NORMAL,LAST,,27,,NORMAL,-4,-14.814814814814813,,Alanine aminotransferase increased,,0,0,,0,0,0.8518518518518519,3.8333333333333335,0.6764705882352942,NORMAL to NORMAL,0 to 0,Y,,Placebo,Placebo,37,1015,2014-01-02,2014-07-02,2014-01-02,2014-07-02,,2014-07-02T11:45,,,701,63,YEARS,F,WHITE,HISPANIC OR LATINO,Pbo,Placebo,Pbo,Placebo,USA,2013-12-26,-7,2014-01-02T00:00:00Z,H,2014-07-02T23:59:59Z,H,182,,2014-07-02,COMPLETED,,2014-01-02,,,,,,,,2014-07-02,Y,White,18-64,NA,,,,
12,CDISCPILOT01,LB,01-701-1015,296,ALT,Alanine Aminotransferase,CHEMISTRY,23,U/L,6,34,23,23,U/L,6,34,NORMAL,,13,WEEK 26,182,2014-07-02T11:45,182,2014-01-02,2014-07-02,Placebo,Placebo,2014-07-02,182,ALT,Alanine Aminotransferase (U/L),3,CHEMISTRY,23,,6,34,,Week 26,13,Y,NORMAL,LAST,,27,,NORMAL,-4,-14.814814814814813,,Alanine aminotransferase increased,,0,0,,0,0,0.8518518518518519,3.8333333333333335,0.6764705882352942,NORMAL to NORMAL,0 to 0,Y,Y,Placebo,Placebo,38,1015,2014-01-02,2014-07-02,2014-01-02,2014-07-02,,2014-07-02T11:45,,,701,63,YEARS,F,WHITE,HISPANIC OR LATINO,Pbo,Placebo,Pbo,Placebo,USA,2013-12-26,-7,2014-01-02T00:00:00Z,H,2014-07-02T23:59:59Z,H,182,,2014-07-02,COMPLETED,,2014-01-02,,,,,,,,2014-07-02,Y,White,18-64,NA,,,,
13,CDISCPILOT01,LB,01-701-1015,296,ALT,Alanine Aminotransferase,CHEMISTRY,23,U/L,6,34,23,23,U/L,6,34,NORMAL,,13,WEEK 26,182,2014-07-02T11:45,182,2014-01-02,2014-07-02,Placebo,Placebo,2014-07-02,182,ALT,Alanine Aminotransferase (U/L),3,CHEMISTRY,23,,6,34,LOV,POST-BASELINE LAST,9999,Y,NORMAL,LAST,,27,,NORMAL,-4,-14.814814814814813,,Alanine aminotransferase increased,,0,0,,0,0,0.8518518518518519,3.8333333333333335,0.6764705882352942,NORMAL to NORMAL,0 to 0,Y,Y,Placebo,Placebo,39,1015,2014-01-02,2014-07-02,2014-01-02,2014-07-02,,2014-07-02T11:45,,,701,63,YEARS,F,WHITE,HISPANIC OR LATINO,Pbo,Placebo,Pbo,Placebo,USA,2013-12-26,-7,2014-01-02T00:00:00Z,H,2014-07-02T23:59:59Z,H,182,,2014-07-02,COMPLETED,,2014-01-02,,,,,,,,2014-07-02,Y,White,18-64,NA,,,,
14,CDISCPILOT01,LB,01-701-1015,5,AST,Aspartate Aminotransferase,CHEMISTRY,40,U/L,9,34,40,40,U/L,9,34,HIGH,Y,1,SCREENING 1,-7,2013-12-26T14:45,-7,2014-01-02,2014-07-02,Placebo,Placebo,2013-12-26,-7,AST,Aspartate Aminotransferase (U/L),5,CHEMISTRY,40,,9,34,,Baseline,0,,HIGH,LAST,Y,40,,HIGH,,,,Aspartate aminotransferase increased,,1,1,,1,1,1,4.444444444444445,1.1764705882352942,HIGH to HIGH,1 to 1,,,Placebo,Placebo,41,1015,2014-01-02,2014-07-02,2014-01-02,2014-07-02,,2014-07-02T11:45,,,701,63,YEARS,F,WHITE,HISPANIC OR LATINO,Pbo,Placebo,Pbo,Placebo,USA,2013-12-26,-7,2014-01-02T00:00:00Z,H,2014-07-02T23:59:59Z,H,182,,2014-07-02,COMPLETED,,2014-01-02,,,,,,,,2014-07-02,Y,White,18-64,NA,,,,
15,CDISCPILOT01,LB,01-701-1015,42,AST,Aspartate Aminotransferase,CHEMISTRY,33,U/L,9,34,33,33,U/L,9,34,NORMAL,,4,WEEK 2,14,2014-01-16T13:17,15,2014-01-02,2014-07-02,Placebo,Placebo,2014-01-16,15,AST,Aspartate Aminotransferase (U/L),5,CHEMISTRY,33,,9,34,,Week 2,4,Y,NORMAL,LAST,,40,,HIGH,-7,-17.5,,Aspartate aminotransferase increased,,0,0,,1,1,0.825,3.6666666666666665,0.9705882352941176,HIGH to NORMAL,1 to 0,Y,,Placebo,Placebo,42,1015,2014-01-02,2014-07-02,2014-01-02,2014-07-02,,2014-07-02T11:45,,,701,63,YEARS,F,WHITE,HISPANIC OR LATINO,Pbo,Placebo,Pbo,Placebo,USA,2013-12-26,-7,2014-01-02T00:00:00Z,H,2014-07-02T23:59:59Z,H,182,,2014-07-02,COMPLETED,,2014-01-02,,,,,,,,2014-07-02,Y,White,18-64,NA,,,,
16,CDISCPILOT01,LB,01-701-1015,42,AST,Aspartate Aminotransferase,CHEMISTRY,33,U/L,9,34,33,33,U/L,9,34,NORMAL,,4,WEEK 2,14,2014-01-16T13:17,15,2014-01-02,2014-07-02,Placebo,Placebo,2014-01-16,15,AST,Aspartate Aminotransferase (U/L),5,CHEMISTRY,33,,9,34,MAXIMUM,POST-BASELINE MAXIMUM,9998,Y,NORMAL,LAST,,40,,HIGH,-7,-17.5,,Aspartate aminotransferase increased,,0,0,,1,1,0.825,3.6666666666666665,0.9705882352941176,HIGH to NORMAL,1 to 0,Y,,Placebo,Placebo,43,1015,2014-01-02,2014-07-02,2014-01-02,2014-07-02,,2014-07-02T11:45,,,701,63,YEARS,F,WHITE,HISPANIC OR LATINO,Pbo,Placebo,Pbo,Placebo,USA,2013-12-26,-7,2014-01-02T00:00:00Z,H,2014-07-02T23:59:59Z,H,182,,2014-07-02,COMPLETED,,2014-01-02,,,,,,,,2014-07-02,Y,White,18-64,NA,,,,
17,CDISCPILOT01,LB,01-701-1015,77,AST,Aspartate Aminotransferase,CHEMISTRY,21,U/L,9,34,21,21,U/L,9,34,NORMAL,,5,WEEK 4,28,2014-01-30T08:50,29,2014-01-02,2014-07-02,Placebo,Placebo,2014-01-30,29,AST,Aspartate Aminotransferase (U/L),5,CHEMISTRY,21,,9,34,,Week 4,5,Y,NORMAL,LAST,,40,,HIGH,-19,-47.5,,Aspartate aminotransferase increased,,0,0,,1,1,0.525,2.3333333333333335,0.6176470588235294,HIGH to NORMAL,1 to 0,Y,,Placebo,Placebo,44,1015,2014-01-02,2014-07-02,2014-01-02,2014-07-02,,2014-07-02T11:45,,,701,63,YEARS,F,WHITE,HISPANIC OR LATINO,Pbo,Placebo,Pbo,Placebo,USA,2013-12-26,-7,2014-01-02T00:00:00Z,H,2014-07-02T23:59:59Z,H,182,,2014-07-02,COMPLETED,,2014-01-02,,,,,,,,2014-07-02,Y,White,18-64,NA,,,,
18,CDISCPILOT01,LB,01-701-1015,107,AST,Aspartate Aminotransferase,CHEMISTRY,26,U/L,9,34,26,26,U/L,9,34,NORMAL,,7,WEEK 6,42,2014-02-12T12:56,42,2014-01-02,2014-07-02,Placebo,Placebo,2014-02-12,42,AST,Aspartate Aminotransferase (U/L),5,CHEMISTRY,26,,9,34,,Week 6,7,Y,NORMAL,LAST,,40,,HIGH,-14,-35,,Aspartate aminotransferase increased,,0,0,,1,1,0.65,2.888888888888889,0.7647058823529411,HIGH to NORMAL,1 to 0,Y,,Placebo,Placebo,45,1015,2014-01-02,2014-07-02,2014-01-02,2014-07-02,,2014-07-02T11:45,,,701,63,YEARS,F,WHITE,HISPANIC OR LATINO,Pbo,Placebo,Pbo,Placebo,USA,2013-12-26,-7,2014-01-02T00:00:00Z,H,2014-07-02T23:59:59Z,H,182,,2014-07-02,COMPLETED,,2014-01-02,,,,,,,,2014-07-02,Y,White,18-64,NA,,,,
19,CDISCPILOT01,LB,01-701-1015,137,AST,Aspartate Aminotransferase,CHEMISTRY,21,U/L,9,34,21,21,U/L,9,34,NORMAL,,8,WEEK 8,56,2014-03-05T12:25,63,2014-01-02,2014-07-02,Placebo,Placebo,2014-03-05,63,AST,Aspartate Aminotransferase (U/L),5,CHEMISTRY,21,,9,34,,Week 8,8,Y,NORMAL,LAST,,40,,HIGH,-19,-47.5,,Aspartate aminotransferase increased,,0,0,,1,1,0.525,2.3333333333333335,0.6176470588235294,HIGH to NORMAL,1 to 0,Y,,Placebo,Placebo,46,1015,2014-01-02,2014-07-02,2014-01-02,2014-07-02,,2014-07-02T11:45,,,701,63,YEARS,F,WHITE,HISPANIC OR LATINO,Pbo,Placebo,Pbo,Placebo,USA,2013-12-26,-7,2014-01-02T00:00:00Z,H,2014-07-02T23:59:59Z,H,182,,2014-07-02,COMPLETED,,2014-01-02,,,,,,,,2014-07-02,Y,White,18-64,NA,,,,
20,CDISCPILOT01,LB,01-701-1015,167,AST,Aspartate Aminotransferase,CHEMISTRY,22,U/L,9,34,22,22,U/L,9,34,NORMAL,,9,WEEK 12,84,2014-03-26T15:15,84,2014-01-02,2014-07-02,Placebo,Placebo,2014-03-26,84,AST,Aspartate Aminotransferase (U/L),5,CHEMISTRY,22,,9,34,,Week 12,9,Y,NORMAL,LAST,,40,,HIGH,-18,-45,,Aspartate aminotransferase increased,,0,0,,1,1,0.55,2.4444444444444446,0.6470588235294118,HIGH to NORMAL,1 to 0,Y,,Placebo,Placebo,47,1015,2014-01-02,2014-07-02,2014-01-02,2014-07-02,,2014-07-02T11:45,,,701,63,YEARS,F,WHITE,HISPANIC OR LATINO,Pbo,Placebo,Pbo,Placebo,USA,2013-12-26,-7,2014-01-02T00:00:00Z,H,2014-07-02T23:59:59Z,H,182,,2014-07-02,COMPLETED,,2014-01-02,,,,,,,,2014-07-02,Y,White,18-64,NA,,,,
21,CDISCPILOT01,LB,01-701-1015,202,AST,Aspartate Aminotransferase,CHEMISTRY,23,U/L,9,34,23,23,U/L,9,34,NORMAL,,10,WEEK 16,112,2014-05-07T11:21,126,2014-01-02,2014-07-02,Placebo,Placebo,2014-05-07,126,AST,Aspartate Aminotransferase (U/L),5,CHEMISTRY,23,,9,34,,Week 16,10,Y,NORMAL,LAST,,40,,HIGH,-17,-42.5,,Aspartate aminotransferase increased,,0,0,,1,1,0.575,2.5555555555555554,0.6764705882352942,HIGH to NORMAL,1 to 0,Y,,Placebo,Placebo,48,1015,2014-01-02,2014-07-02,2014-01-02,2014-07-02,,2014-07-02T11:45,,,701,63,YEARS,F,WHITE,HISPANIC OR LATINO,Pbo,Placebo,Pbo,Placebo,USA,2013-12-26,-7,2014-01-02T00:00:00Z,H,2014-07-02T23:59:59Z,H,182,,2014-07-02,COMPLETED,,2014-01-02,,,,,,,,2014-07-02,Y,White,18-64,NA,,,,
22,CDISCPILOT01,LB,01-701-1015,232,AST,Aspartate Aminotransferase,CHEMISTRY,19,U/L,9,34,19,19,U/L,9,34,NORMAL,,11,WEEK 20,140,2014-05-21T10:58,140,2014-01-02,2014-07-02,Placebo,Placebo,2014-05-21,140,AST,Aspartate Aminotransferase (U/L),5,CHEMISTRY,19,,9,34,,Week 20,11,Y,NORMAL,LAST,,40,,HIGH,-21,-52.5,,Aspartate aminotransferase increased,,0,0,,1,1,0.475,2.111111111111111,0.5588235294117647,HIGH to NORMAL,1 to 0,Y,,Placebo,Placebo,49,1015,2014-01-02,2014-07-02,2014-01-02,2014-07-02,,2014-07-02T11:45,,,701,63,YEARS,F,WHITE,HISPANIC OR LATINO,Pbo,Placebo,Pbo,Placebo,USA,2013-12-26,-7,2014-01-02T00:00:00Z,H,2014-07-02T23:59:59Z,H,182,,2014-07-02,COMPLETED,,2014-01-02,,,,,,,,2014-07-02,Y,White,18-64,NA,,,,
23,CDISCPILOT01,LB,01-701-1015,232,AST,Aspartate Aminotransferase,CHEMISTRY,19,U/L,9,34,19,19,U/L,9,34,NORMAL,,11,WEEK 20,140,2014-05-21T10:58,140,2014-01-02,2014-07-02,Placebo,Placebo,2014-05-21,140,AST,Aspartate Aminotransferase (U/L),5,CHEMISTRY,19,,9,34,MINIMUM,POST-BASELINE MINIMUM,9997,Y,NORMAL,LAST,,40,,HIGH,-21,-52.5,,Aspartate aminotransferase increased,,0,0,,1,1,0.475,2.111111111111111,0.5588235294117647,HIGH to NORMAL,1 to 0,Y,,Placebo,Placebo,50,1015,2014-01-02,2014-07-02,2014-01-02,2014-07-02,,2014-07-02T11:45,,,701,63,YEARS,F,WHITE,HISPANIC OR LATINO,Pbo,Placebo,Pbo,Placebo,USA,2013-12-26,-7,2014-01-02T00:00:00Z,H,2014-07-02T23:59:59Z,H,182,,2014-07-02,COMPLETED,,2014-01-02,,,,,,,,2014-07-02,Y,White,18-64,NA,,,,
24,CDISCPILOT01,LB,01-701-1015,262,AST,Aspartate Aminotransferase,CHEMISTRY,23,U/L,9,34,23,23,U/L,9,34,NORMAL,,12,WEEK 24,168,2014-06-18T13:00,168,2014-01-02,2014-07-02,Placebo,Placebo,2014-06-18,168,AST,Aspartate Aminotransferase (U/L),5,CHEMISTRY,23,,9,34,,Week 24,12,Y,NORMAL,LAST,,40,,HIGH,-17,-42.5,,Aspartate aminotransferase increased,,0,0,,1,1,0.575,2.5555555555555554,0.6764705882352942,HIGH to NORMAL,1 to 0,Y,,Placebo,Placebo,51,1015,2014-01-02,2014-07-02,2014-01-02,2014-07-02,,2014-07-02T11:45,,,701,63,YEARS,F,WHITE,HISPANIC OR LATINO,Pbo,Placebo,Pbo,Placebo,USA,2013-12-26,-7,2014-01-02T00:00:00Z,H,2014-07-02T23:59:59Z,H,182,,2014-07-02,COMPLETED,,2014-01-02,,,,,,,,2014-07-02,Y,White,18-64,NA,,,,
25,CDISCPILOT01,LB,01-701-1015,297,AST,Aspartate Aminotransferase,CHEMISTRY,19,U/L,9,34,19,19,U/L,9,34,NORMAL,,13,WEEK 26,182,2014-07-02T11:45,182,2014-01-02,2014-07-02,Placebo,Placebo,2014-07-02,182,AST,Aspartate Aminotransferase (U/L),5,CHEMISTRY,19,,9,34,,Week 26,13,Y,NORMAL,LAST,,40,,HIGH,-21,-52.5,,Aspartate aminotransferase increased,,0,0,,1,1,0.475,2.111111111111111,0.5588235294117647,HIGH to NORMAL,1 to 0,Y,Y,Placebo,Placebo,52,1015,2014-01-02,2014-07-02,2014-01-02,2014-07-02,,2014-07-02T11:45,,,701,63,YEARS,F,WHITE,HISPANIC OR LATINO,Pbo,Placebo,Pbo,Placebo,USA,2013-12-26,-7,2014-01-02T00:00:00Z,H,2014-07-02T23:59:59Z,H,182,,2014-07-02,COMPLETED,,2014-01-02,,,,,,,,2014-07-02,Y,White,18-64,NA,,,,
26,CDISCPILOT01,LB,01-701-1015,297,AST,Aspartate Aminotransferase,CHEMISTRY,19,U/L,9,34,19,19,U/L,9,34,NORMAL,,13,WEEK 26,182,2014-07-02T11:45,182,2014-01-02,2014-07-02,Placebo,Placebo,2014-07-02,182,AST,Aspartate Aminotransferase (U/L),5,CHEMISTRY,19,,9,34,LOV,POST-BASELINE LAST,9999,Y,NORMAL,LAST,,40,,HIGH,-21,-52.5,,Aspartate aminotransferase increased,,0,0,,1,1,0.475,2.111111111111111,0.5588235294117647,HIGH to NORMAL,1 to 0,Y,Y,Placebo,Placebo,53,1015,2014-01-02,2014-07-02,2014-01-02,2014-07-02,,2014-07-02T11:45,,,701,63,YEARS,F,WHITE,HISPANIC OR LATINO,Pbo,Placebo,Pbo,Placebo,USA,2013-12-26,-7,2014-01-02T00:00:00Z,H,2014-07-02T23:59:59Z,H,182,,2014-07-02,COMPLETED,,2014-01-02,,,,,,,,2014-07-02,Y,White,18-64,NA,,,,
27,CDISCPILOT01,LB,01-701-1015,7,BILI,Bilirubin,CHEMISTRY,0.6,mg/dL,0.2,1.2,10.26,10.26,umol/L,3,21,NORMAL,Y,1,SCREENING 1,-7,2013-12-26T14:45,-7,2014-01-02,2014-07-02,Placebo,Placebo,2013-12-26,-7,BILI,Bilirubin (umol/L),8,CHEMISTRY,10.26,,3,21,,Baseline,0,,NORMAL,LAST,Y,10.26,,NORMAL,,,,Blood bilirubin increased,,0,0,,0,0,1,3.42,0.48857142857142855,NORMAL to NORMAL,0 to 0,,,Placebo,Placebo,72,1015,2014-01-02,2014-07-02,2014-01-02,2014-07-02,,2014-07-02T11:45,,,701,63,YEARS,F,WHITE,HISPANIC OR LATINO,Pbo,Placebo,Pbo,Placebo,USA,2013-12-26,-7,2014-01-02T00:00:00Z,H,2014-07-02T23:59:59Z,H,182,,2014-07-02,COMPLETED,,2014-01-02,,,,,,,,2014-07-02,Y,White,18-64,NA,,,,
28,CDISCPILOT01,LB,01-701-1015,44,BILI,Bilirubin,CHEMISTRY,0.5,mg/dL,0.2,1.2,8.55,8.549999999999999,umol/L,3,21,NORMAL,,4,WEEK 2,14,2014-01-16T13:17,15,2014-01-02,2014-07-02,Placebo,Placebo,2014-01-16,15,BILI,Bilirubin (umol/L),8,CHEMISTRY,8.549999999999999,,3,21,,Week 2,4,Y,NORMAL,LAST,,10.26,,NORMAL,-1.7100000000000009,-16.666666666666675,,Blood bilirubin increased,,0,0,,0,0,0.8333333333333333,2.8499999999999996,0.4071428571428571,NORMAL to NORMAL,0 to 0,Y,,Placebo,Placebo,73,1015,2014-01-02,2014-07-02,2014-01-02,2014-07-02,,2014-07-02T11:45,,,701,63,YEARS,F,WHITE,HISPANIC OR LATINO,Pbo,Placebo,Pbo,Placebo,USA,2013-12-26,-7,2014-01-02T00:00:00Z,H,2014-07-02T23:59:59Z,H,182,,2014-07-02,COMPLETED,,2014-01-02,,,,,,,,2014-07-02,Y,White,18-64,NA,,,,
29,CDISCPILOT01,LB,01-701-1015,44,BILI,Bilirubin,CHEMISTRY,0.5,mg/dL,0.2,1.2,8.55,8.549999999999999,umol/L,3,21,NORMAL,,4,WEEK 2,14,2014-01-16T13:17,15,2014-01-02,2014-07-02,Placebo,Placebo,2014-01-16,15,BILI,Bilirubin (umol/L),8,CHEMISTRY,8.549999999999999,,3,21,MAXIMUM,POST-BASELINE MAXIMUM,9998,Y,NORMAL,LAST,,10.26,,NORMAL,-1.7100000000000009,-16.666666666666675,,Blood bilirubin increased,,0,0,,0,0,0.8333333333333333,2.8499999999999996,0.4071428571428571,NORMAL to NORMAL,0 to 0,Y,,Placebo,Placebo,74,1015,2014-01-02,2014-07-02,2014-01-02,2014-07-02,,2014-07-02T11:45,,,701,63,YEARS,F,WHITE,HISPANIC OR LATINO,Pbo,Placebo,Pbo,Placebo,USA,2013-12-26,-7,2014-01-02T00:00:00Z,H,2014-07-02T23:59:59Z,H,182,,2014-07-02,COMPLETED,,2014-01-02,,,,,,,,2014-07-02,Y,White,18-64,NA,,,,
30,CDISCPILOT01,LB,01-701-1015,79,BILI,Bilirubin,CHEMISTRY,0.4,mg/dL,0.2,1.2,6.84,6.84,umol/L,3,21,NORMAL,,5,WEEK 4,28,2014-01-30T08:50,29,2014-01-02,2014-07-02,Placebo,Placebo,2014-01-30,29,BILI,Bilirubin (umol/L),8,CHEMISTRY,6.84,,3,21,,Week 4,5,Y,NORMAL,LAST,,10.26,,NORMAL,-3.42,-33.33333333333333,,Blood bilirubin increased,,0,0,,0,0,0.6666666666666666,2.28,0.32571428571428573,NORMAL to NORMAL,0 to 0,Y,,Placebo,Placebo,75,1015,2014-01-02,2014-07-02,2014-01-02,2014-07-02,,2014-07-02T11:45,,,701,63,YEARS,F,WHITE,HISPANIC OR LATINO,Pbo,Placebo,Pbo,Placebo,USA,2013-12-26,-7,2014-01-02T00:00:00Z,H,2014-07-02T23:59:59Z,H,182,,2014-07-02,COMPLETED,,2014-01-02,,,,,,,,2014-07-02,Y,White,18-64,NA,,,,
31,CDISCPILOT01,LB,01-701-1015,109,BILI,Bilirubin,CHEMISTRY,0.3,mg/dL,0.2,1.2,5.13,5.13,umol/L,3,21,NORMAL,,7,WEEK 6,42,2014-02-12T12:56,42,2014-01-02,2014-07-02,Placebo,Placebo,2014-02-12,42,BILI,Bilirubin (umol/L),8,CHEMISTRY,5.13,,3,21,,Week 6,7,Y,NORMAL,LAST,,10.26,,NORMAL,-5.13,-50,,Blood bilirubin increased,,0,0,,0,0,0.5,1.71,0.24428571428571427,NORMAL to NORMAL,0 to 0,Y,,Placebo,Placebo,76,1015,2014-01-02,2014-07-02,2014-01-02,2014-07-02,,2014-07-02T11:45,,,701,63,YEARS,F,WHITE,HISPANIC OR LATINO,Pbo,Placebo,Pbo,Placebo,USA,2013-12-26,-7,2014-01-02T00:00:00Z,H,2014-07-02T23:59:59Z,H,182,,2014-07-02,COMPLETED,,2014-01-02,,,,,,,,2014-07-02,Y,White,18-64,NA,,,,
32,CDISCPILOT01,LB,01-701-1015,109,BILI,Bilirubin,CHEMISTRY,0.3,mg/dL,0.2,1.2,5.13,5.13,umol/L,3,21,NORMAL,,7,WEEK 6,42,2014-02-12T12:56,42,2014-01-02,2014-07-02,Placebo,Placebo,2014-02-12,42,BILI,Bilirubin (umol/L),8,CHEMISTRY,5.13,,3,21,MINIMUM,POST-BASELINE MINIMUM,9997,Y,NORMAL,LAST,,10.26,,NORMAL,-5.13,-50,,Blood bilirubin increased,,0,0,,0,0,0.5,1.71,0.24428571428571427,NORMAL to NORMAL,0 to 0,Y,,Placebo,Placebo,77,1015,2014-01-02,2014-07-02,2014-01-02,2014-07-02,,2014-07-02T11:45,,,701,63,YEARS,F,WHITE,HISPANIC OR LATINO,Pbo,Placebo,Pbo,Placebo,USA,2013-12-26,-7,2014-01-02T00:00:00Z,H,2014-07-02T23:59:59Z,H,182,,2014-07-02,COMPLETED,,2014-01-02,,,,,,,,2014-07-02,Y,White,18-64,NA,,,,
33,CDISCPILOT01,LB,01-701-1015,139,BILI,Bilirubin,CHEMISTRY,0.5,mg/dL,0.2,1.2,8.55,8.549999999999999,umol/L,3,21,NORMAL,,8,WEEK 8,56,2014-03-05T12:25,63,2014-01-02,2014-07-02,Placebo,Placebo,2014-03-05,63,BILI,Bilirubin (umol/L),8,CHEMISTRY,8.549999999999999,,3,21,,Week 8,8,Y,NORMAL,LAST,,10.26,,NORMAL,-1.7100000000000009,-16.666666666666675,,Blood bilirubin increased,,0,0,,0,0,0.8333333333333333,2.8499999999999996,0.4071428571428571,NORMAL to NORMAL,0 to 0,Y,,Placebo,Placebo,78,1015,2014-01-02,2014-07-02,2014-01-02,2014-07-02,,2014-07-02T11:45,,,701,63,YEARS,F,WHITE,HISPANIC OR LATINO,Pbo,Placebo,Pbo,Placebo,USA,2013-12-26,-7,2014-01-02T00:00:00Z,H,2014-07-02T23:59:59Z,H,182,,2014-07-02,COMPLETED,,2014-01-02,,,,,,,,2014-07-02,Y,White,18-64,NA,,,,
34,CDISCPILOT01,LB,01-701-1015,169,BILI,Bilirubin,CHEMISTRY,0.4,mg/dL,0.2,1.2,6.84,6.84,umol/L,3,21,NORMAL,,9,WEEK 12,84,2014-03-26T15:15,84,2014-01-02,2014-07-02,Placebo,Placebo,2014-03-26,84,BILI,Bilirubin (umol/L),8,CHEMISTRY,6.84,,3,21,,Week 12,9,Y,NORMAL,LAST,,10.26,,NORMAL,-3.42,-33.33333333333333,,Blood bilirubin increased,,0,0,,0,0,0.6666666666666666,2.28,0.32571428571428573,NORMAL to NORMAL,0 to 0,Y,,Placebo,Placebo,79,1015,2014-01-02,2014-07-02,2014-01-02,2014-07-02,,2014-07-02T11:45,,,701,63,YEARS,F,WHITE,HISPANIC OR LATINO,Pbo,Placebo,Pbo,Placebo,USA,2013-12-26,-7,2014-01-02T00:00:00Z,H,2014-07-02T23:59:59Z,H,182,,2014-07-02,COMPLETED,,2014-01-02,,,,,,,,2014-07-02,Y,White,18-64,NA,,,,
35,CDISCPILOT01,LB,01-701-1015,204,BILI,Bilirubin,CHEMISTRY,0.4,mg/dL,0.2,1.2,6.84,6.84,umol/L,3,21,NORMAL,,10,WEEK 16,112,2014-05-07T11:21,126,2014-01-02,2014-07-02,Placebo,Placebo,2014-05-07,126,BILI,Bilirubin (umol/L),8,CHEMISTRY,6.84,,3,21,,Week 16,10,Y,NORMAL,LAST,,10.26,,NORMAL,-3.42,-33.33333333333333,,Blood bilirubin increased,,0,0,,0,0,0.6666666666666666,2.28,0.32571428571428573,NORMAL to NORMAL,0 to 0,Y,,Placebo,Placebo,80,1015,2014-01-02,2014-07-02,2014-01-02,2014-07-02,,2014-07-02T11:45,,,701,63,YEARS,F,WHITE,HISPANIC OR LATINO,Pbo,Placebo,Pbo,Placebo,USA,2013-12-26,-7,2014-01-02T00:00:00Z,H,2014-07-02T23:59:59Z,H,182,,2014-07-02,COMPLETED,,2014-01-02,,,,,,,,2014-07-02,Y,White,18-64,NA,,,,
36,CDISCPILOT01,LB,01-701-1015,234,BILI,Bilirubin,CHEMISTRY,0.4,mg/dL,0.2,1.2,6.84,6.84,umol/L,3,21,NORMAL,,11,WEEK 20,140,2014-05-21T10:58,140,2014-01-02,2014-07-02,Placebo,Placebo,2014-05-21,140,BILI,Bilirubin (umol/L),8,CHEMISTRY,6.84,,3,21,,Week 20,11,Y,NORMAL,LAST,,10.26,,NORMAL,-3.42,-33.33333333333333,,Blood bilirubin increased,,0,0,,0,0,0.6666666666666666,2.28,0.32571428571428573,NORMAL to NORMAL,0 to 0,Y,,Placebo,Placebo,81,1015,2014-01-02,2014-07-02,2014-01-02,2014-07-02,,2014-07-02T11:45,,,701,63,YEARS,F,WHITE,HISPANIC OR LATINO,Pbo,Placebo,Pbo,Placebo,USA,2013-12-26,-7,2014-01-02T00:00:00Z,H,2014-07-02T23:59:59Z,H,182,,2014-07-02,COMPLETED,,2014-01-02,,,,,,,,2014-07-02,Y,White,18-64,NA,,,,
37,CDISCPILOT01,LB,01-701-1015,264,BILI,Bilirubin,CHEMISTRY,0.4,mg/dL,0.2,1.2,6.84,6.84,umol/L,3,21,NORMAL,,12,WEEK 24,168,2014-06-18T13:00,168,2014-01-02,2014-07-02,Placebo,Placebo,2014-06-18,168,BILI,Bilirubin (umol/L),8,CHEMISTRY,6.84,,3,21,,Week 24,12,Y,NORMAL,LAST,,10.26,,NORMAL,-3.42,-33.33333333333333,,Blood bilirubin increased,,0,0,,0,0,0.6666666666666666,2.28,0.32571428571428573,NORMAL to NORMAL,0 to 0,Y,,Placebo,Placebo,82,1015,2014-01-02,2014-07-02,2014-01-02,2014-07-02,,2014-07-02T11:45,,,701,63,YEARS,F,WHITE,HISPANIC OR LATINO,Pbo,Placebo,Pbo,Placebo,USA,2013-12-26,-7,2014-01-02T00:00:00Z,H,2014-07-02T23:59:59Z,H,182,,2014-07-02,COMPLETED,,2014-01-02,,,,,,,,2014-07-02,Y,White,18-64,NA,,,,
38,CDISCPILOT01,LB,01-701-1015,299,BILI,Bilirubin,CHEMISTRY,0.3,mg/dL,0.2,1.2,5.13,5.13,umol/L,3,21,NORMAL,,13,WEEK 26,182,2014-07-02T11:45,182,2014-01-02,2014-07-02,Placebo,Placebo,2014-07-02,182,BILI,Bilirubin (umol/L),8,CHEMISTRY,5.13,,3,21,,Week 26,13,Y,NORMAL,LAST,,10.26,,NORMAL,-5.13,-50,,Blood bilirubin increased,,0,0,,0,0,0.5,1.71,0.24428571428571427,NORMAL to NORMAL,0 to 0,Y,Y,Placebo,Placebo,83,1015,2014-01-02,2014-07-02,2014-01-02,2014-07-02,,2014-07-02T11:45,,,701,63,YEARS,F,WHITE,HISPANIC OR LATINO,Pbo,Placebo,Pbo,Placebo,USA,2013-12-26,-7,2014-01-02T00:00:00Z,H,2014-07-02T23:59:59Z,H,182,,2014-07-02,COMPLETED,,2014-01-02,,,,,,,,2014-07-02,Y,White,18-64,NA,,,,
39,CDISCPILOT01,LB,01-701-1015,299,BILI,Bilirubin,CHEMISTRY,0.3,mg/dL,0.2,1.2,5.13,5.13,umol/L,3,21,NORMAL,,13,WEEK 26,182,2014-07-02T11:45,182,2014-01-02,2014-07-02,Placebo,Placebo,2014-07-02,182,BILI,Bilirubin (umol/L),8,CHEMISTRY,5.13,,3,21,LOV,POST-BASELINE LAST,9999,Y,NORMAL,LAST,,10.26,,NORMAL,-5.13,-50,,Blood bilirubin increased,,0,0,,0,0,0.5,1.71,0.24428571428571427,NORMAL to NORMAL,0 to 0,Y,Y,Placebo,Placebo,84,1015,2014-01-02,2014-07-02,2014-01-02,2014-07-02,,2014-07-02T11:45,,,701,63,YEARS,F,WHITE,HISPANIC OR LATINO,Pbo,Placebo,Pbo,Placebo,USA,2013-12-26,-7,2014-01-02T00:00:00Z,H,2014-07-02T23:59:59Z,H,182,,2014-07-02,COMPLETED,,2014-01-02,,,,,,,,2014-07-02,Y,White,18-64,NA,,,,
40,CDISCPILOT01,LB,01-701-1023,3,ALT,Alanine Aminotransferase,CHEMISTRY,23,U/L,6,43,23,23,U/L,6,43,NORMAL,Y,1,SCREENING 1,-7,2012-07-22T12:13,-14,2012-08-05,2012-09-01,Placebo,Placebo,2012-07-22,-14,ALT,Alanine Aminotransferase (U/L),3,CHEMISTRY,23,,6,43,,Baseline,0,,NORMAL,LAST,Y,23,,NORMAL,,,,Alanine aminotransferase increased,,0,0,,0,0,1,3.8333333333333335,0.5348837209302325,NORMAL to NORMAL,0 to 0,,,Placebo,Placebo,13,1023,2012-08-05,2012-09-02,2012-08-05,2012-09-01,,2013-02-18,,,701,64,YEARS,M,WHITE,HISPANIC OR LATINO,Pbo,Placebo,Pbo,Placebo,USA,2012-07-22,-14,2012-08-05T00:00:00Z,H,2012-09-01T23:59:59Z,H,28,,2012-09-02,DISCONTINUED,2013-02-18,2012-08-05,,,,,,,,2012-09-02,Y,White,18-64,NA,,,,
41,CDISCPILOT01,LB,01-701-1023,40,ALT,Alanine Aminotransferase,CHEMISTRY,30,U/L,6,43,30,30,U/L,6,43,NORMAL,,4,WEEK 2,14,2012-08-27T15:47,23,2012-08-05,2012-09-01,Placebo,Placebo,2012-08-27,23,ALT,Alanine Aminotransferase (U/L),3,CHEMISTRY,30,,6,43,,Week 2,4,Y,NORMAL,LAST,,23,,NORMAL,7,30.434782608695656,,Alanine aminotransferase increased,,0,0,,0,0,1.3043478260869565,5,0.6976744186046512,NORMAL to NORMAL,0 to 0,Y,Y,Placebo,Placebo,14,1023,2012-08-05,2012-09-02,2012-08-05,2012-09-01,,2013-02-18,,,701,64,YEARS,M,WHITE,HISPANIC OR LATINO,Pbo,Placebo,Pbo,Placebo,USA,2012-07-22,-14,2012-08-05T00:00:00Z,H,2012-09-01T23:59:59Z,H,28,,2012-09-02,DISCONTINUED,2013-02-18,2012-08-05,,,,,,,,2012-09-02,Y,White,18-64,NA,,,,
42,CDISCPILOT01,LB,01-701-1023,40,ALT,Alanine Aminotransferase,CHEMISTRY,30,U/L,6,43,30,30,U/L,6,43,NORMAL,,4,WEEK 2,14,2012-08-27T15:47,23,2012-08-05,2012-09-01,Placebo,Placebo,2012-08-27,23,ALT,Alanine Aminotransferase (U/L),3,CHEMISTRY,30,,6,43,MINIMUM,POST-BASELINE MINIMUM,9997,Y,NORMAL,LAST,,23,,NORMAL,7,30.434782608695656,,Alanine aminotransferase increased,,0,0,,0,0,1.3043478260869565,5,0.6976744186046512,NORMAL to NORMAL,0 to 0,Y,Y,Placebo,Placebo,15,1023,2012-08-05,2012-09-02,2012-08-05,2012-09-01,,2013-02-18,,,701,64,YEARS,M,WHITE,HISPANIC OR LATINO,Pbo,Placebo,Pbo,Placebo,USA,2012-07-22,-14,2012-08-05T00:00:00Z,H,2012-09-01T23:59:59Z,H,28,,2012-09-02,DISCONTINUED,2013-02-18,2012-08-05,,,,,,,,2012-09-02,Y,White,18-64,NA,,,,
43,CDISCPILOT01,LB,01-701-1023,40,ALT,Alanine Aminotransferase,CHEMISTRY,30,U/L,6,43,30,30,U/L,6,43,NORMAL,,4,WEEK 2,14,2012-08-27T15:47,23,2012-08-05,2012-09-01,Placebo,Placebo,2012-08-27,23,ALT,Alanine Aminotransferase (U/L),3,CHEMISTRY,30,,6,43,MAXIMUM,POST-BASELINE MAXIMUM,9998,Y,NORMAL,LAST,,23,,NORMAL,7,30.434782608695656,,Alanine aminotransferase increased,,0,0,,0,0,1.3043478260869565,5,0.6976744186046512,NORMAL to NORMAL,0 to 0,Y,Y,Placebo,Placebo,16,1023,2012-08-05,2012-09-02,2012-08-05,2012-09-01,,2013-02-18,,,701,64,YEARS,M,WHITE,HISPANIC OR LATINO,Pbo,Placebo,Pbo,Placebo,USA,2012-07-22,-14,2012-08-05T00:00:00Z,H,2012-09-01T23:59:59Z,H,28,,2012-09-02,DISCONTINUED,2013-02-18,2012-08-05,,,,,,,,2012-09-02,Y,White,18-64,NA,,,,
44,CDISCPILOT01,LB,01-701-1023,40,ALT,Alanine Aminotransferase,CHEMISTRY,30,U/L,6,43,30,30,U/L,6,43,NORMAL,,4,WEEK 2,14,2012-08-27T15:47,23,2012-08-05,2012-09-01,Placebo,Placebo,2012-08-27,23,ALT,Alanine Aminotransferase (U/L),3,CHEMISTRY,30,,6,43,LOV,POST-BASELINE LAST,9999,Y,NORMAL,LAST,,23,,NORMAL,7,30.434782608695656,,Alanine aminotransferase increased,,0,0,,0,0,1.3043478260869565,5,0.6976744186046512,NORMAL to NORMAL,0 to 0,Y,Y,Placebo,Placebo,17,1023,2012-08-05,2012-09-02,2012-08-05,2012-09-01,,2013-02-18,,,701,64,YEARS,M,WHITE,HISPANIC OR LATINO,Pbo,Placebo,Pbo,Placebo,USA,2012-07-22,-14,2012-08-05T00:00:00Z,H,2012-09-01T23:59:59Z,H,28,,2012-09-02,DISCONTINUED,2013-02-18,2012-08-05,,,,,,,,2012-09-02,Y,White,18-64,NA,,,,
45,CDISCPILOT01,LB,01-701-1023,75,ALT,Alanine Aminotransferase,CHEMISTRY,38,U/L,6,43,38,38,U/L,6,43,NORMAL,,5,WEEK 4,28,2012-09-02T10:15,29,2012-08-05,2012-09-01,Placebo,Placebo,2012-09-02,29,ALT,Alanine Aminotransferase (U/L),3,CHEMISTRY,38,,6,43,,Week 4,5,,NORMAL,LAST,,23,,NORMAL,15,65.21739130434783,,Alanine aminotransferase increased,,0,0,,0,0,1.6521739130434783,6.333333333333333,0.8837209302325582,NORMAL to NORMAL,0 to 0,,,Placebo,Placebo,18,1023,2012-08-05,2012-09-02,2012-08-05,2012-09-01,,2013-02-18,,,701,64,YEARS,M,WHITE,HISPANIC OR LATINO,Pbo,Placebo,Pbo,Placebo,USA,2012-07-22,-14,2012-08-05T00:00:00Z,H,2012-09-01T23:59:59Z,H,28,,2012-09-02,DISCONTINUED,2013-02-18,2012-08-05,,,,,,,,2012-09-02,Y,White,18-64,NA,,,,
46,CDISCPILOT01,LB,01-701-1023,4,AST,Aspartate Aminotransferase,CHEMISTRY,21,U/L,11,36,21,21,U/L,11,36,NORMAL,Y,1,SCREENING 1,-7,2012-07-22T12:13,-14,2012-08-05,2012-09-01,Placebo,Placebo,2012-07-22,-14,AST,Aspartate Aminotransferase (U/L),5,CHEMISTRY,21,,11,36,,Baseline,0,,NORMAL,LAST,Y,21,,NORMAL,,,,Aspartate aminotransferase increased,,0,0,,0,0,1,1.9090909090909092,0.5833333333333334,NORMAL to NORMAL,0 to 0,,,Placebo,Placebo,19,1023,2012-08-05,2012-09-02,2012-08-05,2012-09-01,,2013-02-18,,,701,64,YEARS,M,WHITE,HISPANIC OR LATINO,Pbo,Placebo,Pbo,Placebo,USA,2012-07-22,-14,2012-08-05T00:00:00Z,H,2012-09-01T23:59:59Z,H,28,,2012-09-02,DISCONTINUED,2013-02-18,2012-08-05,,,,,,,,2012-09-02,Y,White,18-64,NA,,,,
47,CDISCPILOT01,LB,01-701-1023,41,AST,Aspartate Aminotransferase,CHEMISTRY,25,U/L,11,36,25,25,U/L,11,36,NORMAL,,4,WEEK 2,14,2012-08-27T15:47,23,2012-08-05,2012-09-01,Placebo,Placebo,2012-08-27,23,AST,Aspartate Aminotransferase (U/L),5,CHEMISTRY,25,,11,36,,Week 2,4,Y,NORMAL,LAST,,21,,NORMAL,4,19.047619047619047,,Aspartate aminotransferase increased,,0,0,,0,0,1.1904761904761905,2.272727272727273,0.6944444444444444,NORMAL to NORMAL,0 to 0,Y,Y,Placebo,Placebo,20,1023,2012-08-05,2012-09-02,2012-08-05,2012-09-01,,2013-02-18,,,701,64,YEARS,M,WHITE,HISPANIC OR LATINO,Pbo,Placebo,Pbo,Placebo,USA,2012-07-22,-14,2012-08-05T00:00:00Z,H,2012-09-01T23:59:59Z,H,28,,2012-09-02,DISCONTINUED,2013-02-18,2012-08-05,,,,,,,,2012-09-02,Y,White,18-64,NA,,,,
48,CDISCPILOT01,LB,01-701-1023,41,AST,Aspartate Aminotransferase,CHEMISTRY,25,U/L,11,36,25,25,U/L,11,36,NORMAL,,4,WEEK 2,14,2012-08-27T15:47,23,2012-08-05,2012-09-01,Placebo,Placebo,2012-08-27,23,AST,Aspartate Aminotransferase (U/L),5,CHEMISTRY,25,,11,36,MINIMUM,POST-BASELINE MINIMUM,9997,Y,NORMAL,LAST,,21,,NORMAL,4,19.047619047619047,,Aspartate aminotransferase increased,,0,0,,0,0,1.1904761904761905,2.272727272727273,0.6944444444444444,NORMAL to NORMAL,0 to 0,Y,Y,Placebo,Placebo,21,1023,2012-08-05,2012-09-02,2012-08-05,2012-09-01,,2013-02-18,,,701,64,YEARS,M,WHITE,HISPANIC OR LATINO,Pbo,Placebo,Pbo,Placebo,USA,2012-07-22,-14,2012-08-05T00:00:00Z,H,2012-09-01T23:59:59Z,H,28,,2012-09-02,DISCONTINUED,2013-02-18,2012-08-05,,,,,,,,2012-09-02,Y,White,18-64,NA,,,,
49,CDISCPILOT01,LB,01-701-1023,41,AST,Aspartate Aminotransferase,CHEMISTRY,25,U/L,11,36,25,25,U/L,11,36,NORMAL,,4,WEEK 2,14,2012-08-27T15:47,23,2012-08-05,2012-09-01,Placebo,Placebo,2012-08-27,23,AST,Aspartate Aminotransferase (U/L),5,CHEMISTRY,25,,11,36,MAXIMUM,POST-BASELINE MAXIMUM,9998,Y,NORMAL,LAST,,21,,NORMAL,4,19.047619047619047,,Aspartate aminotransferase increased,,0,0,,0,0,1.1904761904761905,2.272727272727273,0.6944444444444444,NORMAL to NORMAL,0 to 0,Y,Y,Placebo,Placebo,22,1023,2012-08-05,2012-09-02,2012-08-05,2012-09-01,,2013-02-18,,,701,64,YEARS,M,WHITE,HISPANIC OR LATINO,Pbo,Placebo,Pbo,Placebo,USA,2012-07-22,-14,2012-08-05T00:00:00Z,H,2012-09-01T23:59:59Z,H,28,,2012-09-02,DISCONTINUED,2013-02-18,2012-08-05,,,,,,,,2012-09-02,Y,White,18-64,NA,,,,
50,CDISCPILOT01,LB,01-701-1023,41,AST,Aspartate Aminotransferase,CHEMISTRY,25,U/L,11,36,25,25,U/L,11,36,NORMAL,,4,WEEK 2,14,2012-08-27T15:47,23,2012-08-05,2012-09-01,Placebo,Placebo,2012-08-27,23,AST,Aspartate Aminotransferase (U/L),5,CHEMISTRY,25,,11,36,LOV,POST-BASELINE LAST,9999,Y,NORMAL,LAST,,21,,NORMAL,4,19.047619047619047,,Aspartate aminotransferase increased,,0,0,,0,0,1.1904761904761905,2.272727272727273,0.6944444444444444,NORMAL to NORMAL,0 to 0,Y,Y,Placebo,Placebo,23,1023,2012-08-05,2012-09-02,2012-08-05,2012-09-01,,2013-02-18,,,701,64,YEARS,M,WHITE,HISPANIC OR LATINO,Pbo,Placebo,Pbo,Placebo,USA,2012-07-22,-14,2012-08-05T00:00:00Z,H,2012-09-01T23:59:59Z,H,28,,2012-09-02,DISCONTINUED,2013-02-18,2012-08-05,,,,,,,,2012-09-02,Y,White,18-64,NA,,,,
51,CDISCPILOT01,LB,01-701-1023,76,AST,Aspartate Aminotransferase,CHEMISTRY,30,U/L,11,36,30,30,U/L,11,36,NORMAL,,5,WEEK 4,28,2012-09-02T10:15,29,2012-08-05,2012-09-01,Placebo,Placebo,2012-09-02,29,AST,Aspartate Aminotransferase (U/L),5,CHEMISTRY,30,,11,36,,Week 4,5,,NORMAL,LAST,,21,,NORMAL,9,42.857142857142854,,Aspartate aminotransferase increased,,0,0,,0,0,1.4285714285714286,2.727272727272727,0.8333333333333334,NORMAL to NORMAL,0 to 0,,,Placebo,Placebo,24,1023,2012-08-05,2012-09-02,2012-08-05,2012-09-01,,2013-02-18,,,701,64,YEARS,M,WHITE,HISPANIC OR LATINO,Pbo,Placebo,Pbo,Placebo,USA,2012-07-22,-14,2012-08-05T00:00:00Z,H,2012-09-01T23:59:59Z,H,28,,2012-09-02,DISCONTINUED,2013-02-18,2012-08-05,,,,,,,,2012-09-02,Y,White,18-64,NA,,,,
52,CDISCPILOT01,LB,01-701-1023,6,BILI,Bilirubin,CHEMISTRY,0.7,mg/dL,0.2,1.2,11.97,11.969999999999999,umol/L,3,21,NORMAL,Y,1,SCREENING 1,-7,2012-07-22T12:13,-14,2012-08-05,2012-09-01,Placebo,Placebo,2012-07-22,-14,BILI,Bilirubin (umol/L),8,CHEMISTRY,11.969999999999999,,3,21,,Baseline,0,,NORMAL,LAST,Y,11.969999999999999,,NORMAL,,,,Blood bilirubin increased,,0,0,,0,0,1,3.9899999999999998,0.57,NORMAL to NORMAL,0 to 0,,,Placebo,Placebo,36,1023,2012-08-05,2012-09-02,2012-08-05,2012-09-01,,2013-02-18,,,701,64,YEARS,M,WHITE,HISPANIC OR LATINO,Pbo,Placebo,Pbo,Placebo,USA,2012-07-22,-14,2012-08-05T00:00:00Z,H,2012-09-01T23:59:59Z,H,28,,2012-09-02,DISCONTINUED,2013-02-18,2012-08-05,,,,,,,,2012-09-02,Y,White,18-64,NA,,,,
53,CDISCPILOT01,LB,01-701-1023,43,BILI,Bilirubin,CHEMISTRY,0.4,mg/dL,0.2,1.2,6.84,6.84,umol/L,3,21,NORMAL,,4,WEEK 2,14,2012-08-27T15:47,23,2012-08-05,2012-09-01,Placebo,Placebo,2012-08-27,23,BILI,Bilirubin (umol/L),8,CHEMISTRY,6.84,,3,21,,Week 2,4,Y,NORMAL,LAST,,11.969999999999999,,NORMAL,-5.129999999999999,-42.857142857142854,,Blood bilirubin increased,,0,0,,0,0,0.5714285714285715,2.28,0.32571428571428573,NORMAL to NORMAL,0 to 0,Y,Y,Placebo,Placebo,37,1023,2012-08-05,2012-09-02,2012-08-05,2012-09-01,,2013-02-18,,,701,64,YEARS,M,WHITE,HISPANIC OR LATINO,Pbo,Placebo,Pbo,Placebo,USA,2012-07-22,-14,2012-08-05T00:00:00Z,H,2012-09-01T23:59:59Z,H,28,,2012-09-02,DISCONTINUED,2013-02-18,2012-08-05,,,,,,,,2012-09-02,Y,White,18-64,NA,,,,
54,CDISCPILOT01,LB,01-701-1023,43,BILI,Bilirubin,CHEMISTRY,0.4,mg/dL,0.2,1.2,6.84,6.84,umol/L,3,21,NORMAL,,4,WEEK 2,14,2012-08-27T15:47,23,2012-08-05,2012-09-01,Placebo,Placebo,2012-08-27,23,BILI,Bilirubin (umol/L),8,CHEMISTRY,6.84,,3,21,MINIMUM,POST-BASELINE MINIMUM,9997,Y,NORMAL,LAST,,11.969999999999999,,NORMAL,-5.129999999999999,-42.857142857142854,,Blood bilirubin increased,,0,0,,0,0,0.5714285714285715,2.28,0.32571428571428573,NORMAL to NORMAL,0 to 0,Y,Y,Placebo,Placebo,38,1023,2012-08-05,2012-09-02,2012-08-05,2012-09-01,,2013-02-18,,,701,64,YEARS,M,WHITE,HISPANIC OR LATINO,Pbo,Placebo,Pbo,Placebo,USA,2012-07-22,-14,2012-08-05T00:00:00Z,H,2012-09-01T23:59:59Z,H,28,,2012-09-02,DISCONTINUED,2013-02-18,2012-08-05,,,,,,,,2012-09-02,Y,White,18-64,NA,,,,
55,CDISCPILOT01,LB,01-701-1023,43,BILI,Bilirubin,CHEMISTRY,0.4,mg/dL,0.2,1.2,6.84,6.84,umol/L,3,21,NORMAL,,4,WEEK 2,14,2012-08-27T15:47,23,2012-08-05,2012-09-01,Placebo,Placebo,2012-08-27,23,BILI,Bilirubin (umol/L),8,CHEMISTRY,6.84,,3,21,MAXIMUM,POST-BASELINE MAXIMUM,9998,Y,NORMAL,LAST,,11.969999999999999,,NORMAL,-5.129999999999999,-42.857142857142854,,Blood bilirubin increased,,0,0,,0,0,0.5714285714285715,2.28,0.32571428571428573,NORMAL to NORMAL,0 to 0,Y,Y,Placebo,Placebo,39,1023,2012-08-05,2012-09-02,2012-08-05,2012-09-01,,2013-02-18,,,701,64,YEARS,M,WHITE,HISPANIC OR LATINO,Pbo,Placebo,Pbo,Placebo,USA,2012-07-22,-14,2012-08-05T00:00:00Z,H,2012-09-01T23:59:59Z,H,28,,2012-09-02,DISCONTINUED,2013-02-18,2012-08-05,,,,,,,,2012-09-02,Y,White,18-64,NA,,,,
56,CDISCPILOT01,LB,01-701-1023,43,BILI,Bilirubin,CHEMISTRY,0.4,mg/dL,0.2,1.2,6.84,6.84,umol/L,3,21,NORMAL,,4,WEEK 2,14,2012-08-27T15:47,23,2012-08-05,2012-09-01,Placebo,Placebo,2012-08-27,23,BILI,Bilirubin (umol/L),8,CHEMISTRY,6.84,,3,21,LOV,POST-BASELINE LAST,9999,Y,NORMAL,LAST,,11.969999999999999,,NORMAL,-5.129999999999999,-42.857142857142854,,Blood bilirubin increased,,0,0,,0,0,0.5714285714285715,2.28,0.32571428571428573,NORMAL to NORMAL,0 to 0,Y,Y,Placebo,Placebo,40,1023,2012-08-05,2012-09-02,2012-08-05,2012-09-01,,2013-02-18,,,701,64,YEARS,M,WHITE,HISPANIC OR LATINO,Pbo,Placebo,Pbo,Placebo,USA,2012-07-22,-14,2012-08-05T00:00:00Z,H,2012-09-01T23:59:59Z,H,28,,2012-09-02,DISCONTINUED,2013-02-18,2012-08-05,,,,,,,,2012-09-02,Y,White,18-64,NA,,,,
57,CDISCPILOT01,LB,01-701-1023,78,BILI,Bilirubin,CHEMISTRY,0.5,mg/dL,0.2,1.2,8.55,8.549999999999999,umol/L,3,21,NORMAL,,5,WEEK 4,28,2012-09-02T10:15,29,2012-08-05,2012-09-01,Placebo,Placebo,2012-09-02,29,BILI,Bilirubin (umol/L),8,CHEMISTRY,8.549999999999999,,3,21,,Week 4,5,,NORMAL,LAST,,11.969999999999999,,NORMAL,-3.42,-28.571428571428577,,Blood bilirubin increased,,0,0,,0,0,0.7142857142857143,2.8499999999999996,0.4071428571428571,NORMAL to NORMAL,0 to 0,,,Placebo,Placebo,41,1023,2012-08-05,2012-09-02,2012-08-05,2012-09-01,,2013-02-18,,,701,64,YEARS,M,WHITE,HISPANIC OR LATINO,Pbo,Placebo,Pbo,Placebo,USA,2012-07-22,-14,2012-08-05T00:00:00Z,H,2012-09-01T23:59:59Z,H,28,,2012-09-02,DISCONTINUED,2013-02-18,2012-08-05,,,,,,,,2012-09-02,Y,White,18-64,NA,,,,
58,CDISCPILOT01,LB,01-701-1028,3,ALT,Alanine Aminotransferase,CHEMISTRY,26,U/L,6,35,26,26,U/L,6,35,NORMAL,Y,1,SCREENING 1,-7,2013-07-11T12:02,-8,2013-07-19,2014-01-14,Xanomeline High Dose,Xanomeline High Dose,2013-07-11,-8,ALT,Alanine Aminotransferase (U/L),3,CHEMISTRY,26,,6,35,,Baseline,0,,NORMAL,LAST,Y,26,,NORMAL,,,,Alanine aminotransferase increased,,0,0,,0,0,1,4.333333333333333,0.7428571428571429,NORMAL to NORMAL,0 to 0,,,Xanomeline High Dose,Xanomeline High Dose,27,1028,2013-07-19,2014-01-14,2013-07-19,2014-01-14,,2014-01-14T11:10,,,701,71,YEARS,M,WHITE,NOT HISPANIC OR LATINO,Xan_Hi,Xanomeline High Dose,Xan_Hi,Xanomeline High Dose,USA,2013-07-11,-8,2013-07-19T00:00:00Z,H,2014-01-14T23:59:59Z,H,180,,2014-01-14,COMPLETED,,2013-07-19,,,,,,,,2014-01-14,Y,White,>64,NA,,,,
59,CDISCPILOT01,LB,01-701-1028,40,ALT,Alanine Aminotransferase,CHEMISTRY,30,U/L,6,35,30,30,U/L,6,35,NORMAL,,4,WEEK 2,14,2013-08-01T09:15,14,2013-07-19,2014-01-14,Xanomeline High Dose,Xanomeline High Dose,2013-08-01,14,ALT,Alanine Aminotransferase (U/L),3,CHEMISTRY,30,,6,35,,Week 2,4,Y,NORMAL,LAST,,26,,NORMAL,4,15.384615384615385,,Alanine aminotransferase increased,,0,0,,0,0,1.1538461538461537,5,0.8571428571428571,NORMAL to NORMAL,0 to 0,Y,,Xanomeline High Dose,Xanomeline High Dose,28,1028,2013-07-19,2014-01-14,2013-07-19,2014-01-14,,2014-01-14T11:10,,,701,71,YEARS,M,WHITE,NOT HISPANIC OR LATINO,Xan_Hi,Xanomeline High Dose,Xan_Hi,Xanomeline High Dose,USA,2013-07-11,-8,2013-07-19T00:00:00Z,H,2014-01-14T23:59:59Z,H,180,,2014-01-14,COMPLETED,,2013-07-19,,,,,,,,2014-01-14,Y,White,>64,NA,,,,
60,CDISCPILOT01,LB,01-701-1028,75,ALT,Alanine Aminotransferase,CHEMISTRY,29,U/L,6,35,29,29,U/L,6,35,NORMAL,,5,WEEK 4,28,2013-08-14T13:24,27,2013-07-19,2014-01-14,Xanomeline High Dose,Xanomeline High Dose,2013-08-14,27,ALT,Alanine Aminotransferase (U/L),3,CHEMISTRY,29,,6,35,,Week 4,5,Y,NORMAL,LAST,,26,,NORMAL,3,11.538461538461538,,Alanine aminotransferase increased,,0,0,,0,0,1.1153846153846154,4.833333333333333,0.8285714285714286,NORMAL to NORMAL,0 to 0,Y,,Xanomeline High Dose,Xanomeline High Dose,29,1028,2013-07-19,2014-01-14,2013-07-19,2014-01-14,,2014-01-14T11:10,,,701,71,YEARS,M,WHITE,NOT HISPANIC OR LATINO,Xan_Hi,Xanomeline High Dose,Xan_Hi,Xanomeline High Dose,USA,2013-07-11,-8,2013-07-19T00:00:00Z,H,2014-01-14T23:59:59Z,H,180,,2014-01-14,COMPLETED,,2013-07-19,,,,,,,,2014-01-14,Y,White,>64,NA,,,,
61,CDISCPILOT01,LB,01-701-1028,105,ALT,Alanine Aminotransferase,CHEMISTRY,32,U/L,6,35,32,32,U/L,6,35,NORMAL,,7,WEEK 6,42,2013-08-29T11:54,42,2013-07-19,2014-01-14,Xanomeline High Dose,Xanomeline High Dose,2013-08-29,42,ALT,Alanine Aminotransferase (U/L),3,CHEMISTRY,32,,6,35,,Week 6,7,Y,NORMAL,LAST,,26,,NORMAL,6,23.076923076923077,,Alanine aminotransferase increased,,0,0,,0,0,1.2307692307692308,5.333333333333333,0.9142857142857143,NORMAL to NORMAL,0 to 0,Y,,Xanomeline High Dose,Xanomeline High Dose,30,1028,2013-07-19,2014-01-14,2013-07-19,2014-01-14,,2014-01-14T11:10,,,701,71,YEARS,M,WHITE,NOT HISPANIC OR LATINO,Xan_Hi,Xanomeline High Dose,Xan_Hi,Xanomeline High Dose,USA,2013-07-11,-8,2013-07-19T00:00:00Z,H,2014-01-14T23:59:59Z,H,180,,2014-01-14,COMPLETED,,2013-07-19,,,,,,,,2014-01-14,Y,White,>64,NA,,,,
62,CDISCPILOT01,LB,01-701-1028,135,ALT,Alanine Aminotransferase,CHEMISTRY,33,U/L,6,35,33,33,U/L,6,35,NORMAL,,8,WEEK 8,56,2013-09-10T09:13,54,2013-07-19,2014-01-14,Xanomeline High Dose,Xanomeline High Dose,2013-09-10,54,ALT,Alanine Aminotransferase (U/L),3,CHEMISTRY,33,,6,35,,Week 8,8,Y,NORMAL,LAST,,26,,NORMAL,7,26.923076923076923,,Alanine aminotransferase increased,,0,0,,0,0,1.2692307692307692,5.5,0.9428571428571428,NORMAL to NORMAL,0 to 0,Y,,Xanomeline High Dose,Xanomeline High Dose,31,1028,2013-07-19,2014-01-14,2013-07-19,2014-01-14,,2014-01-14T11:10,,,701,71,YEARS,M,WHITE,NOT HISPANIC OR LATINO,Xan_Hi,Xanomeline High Dose,Xan_Hi,Xanomeline High Dose,USA,2013-07-11,-8,2013-07-19T00:00:00Z,H,2014-01-14T23:59:59Z,H,180,,2014-01-14,COMPLETED,,2013-07-19,,,,,,,,2014-01-14,Y,White,>64,NA,,,,
63,CDISCPILOT01,LB,01-701-1028,135,ALT,Alanine Aminotransferase,CHEMISTRY,33,U/L,6,35,33,33,U/L,6,35,NORMAL,,8,WEEK 8,56,2013-09-10T09:13,54,2013-07-19,2014-01-14,Xanomeline High Dose,Xanomeline High Dose,2013-09-10,54,ALT,Alanine Aminotransferase (U/L),3,CHEMISTRY,33,,6,35,MAXIMUM,POST-BASELINE MAXIMUM,9998,Y,NORMAL,LAST,,26,,NORMAL,7,26.923076923076923,,Alanine aminotransferase increased,,0,0,,0,0,1.2692307692307692,5.5,0.9428571428571428,NORMAL to NORMAL,0 to 0,Y,,Xanomeline High Dose,Xanomeline High Dose,32,1028,2013-07-19,2014-01-14,2013-07-19,2014-01-14,,2014-01-14T11:10,,,701,71,YEARS,M,WHITE,NOT HISPANIC OR LATINO,Xan_Hi,Xanomeline High Dose,Xan_Hi,Xanomeline High Dose,USA,2013-07-11,-8,2013-07-19T00:00:00Z,H,2014-01-14T23:59:59Z,H,180,,2014-01-14,COMPLETED,,2013-07-19,,,,,,,,2014-01-14,Y,White,>64,NA,,,,
64,CDISCPILOT01,LB,01-701-1028,165,ALT,Alanine Aminotransferase,CHEMISTRY,29,U/L,6,35,29,29,U/L,6,35,NORMAL,,9,WEEK 12,84,2013-10-09T08:42,83,2013-07-19,2014-01-14,Xanomeline High Dose,Xanomeline High Dose,2013-10-09,83,ALT,Alanine Aminotransferase (U/L),3,CHEMISTRY,29,,6,35,,Week 12,9,Y,NORMAL,LAST,,26,,NORMAL,3,11.538461538461538,,Alanine aminotransferase increased,,0,0,,0,0,1.1153846153846154,4.833333333333333,0.8285714285714286,NORMAL to NORMAL,0 to 0,Y,,Xanomeline High Dose,Xanomeline High Dose,33,1028,2013-07-19,2014-01-14,2013-07-19,2014-01-14,,2014-01-14T11:10,,,701,71,YEARS,M,WHITE,NOT HISPANIC OR LATINO,Xan_Hi,Xanomeline High Dose,Xan_Hi,Xanomeline High Dose,USA,2013-07-11,-8,2013-07-19T00:00:00Z,H,2014-01-14T23:59:59Z,H,180,,2014-01-14,COMPLETED,,2013-07-19,,,,,,,,2014-01-14,Y,White,>64,NA,,,,
65,CDISCPILOT01,LB,01-701-1028,200,ALT,Alanine Aminotransferase,CHEMISTRY,24,U/L,6,35,24,24,U/L,6,35,NORMAL,,10,WEEK 16,112,2013-11-06T10:08,111,2013-07-19,2014-01-14,Xanomeline High Dose,Xanomeline High Dose,2013-11-06,111,ALT,Alanine Aminotransferase (U/L),3,CHEMISTRY,24,,6,35,,Week 16,10,Y,NORMAL,LAST,,26,,NORMAL,-2,-7.6923076923076925,,Alanine aminotransferase increased,,0,0,,0,0,0.9230769230769231,4,0.6857142857142857,NORMAL to NORMAL,0 to 0,Y,,Xanomeline High Dose,Xanomeline High Dose,34,1028,2013-07-19,2014-01-14,2013-07-19,2014-01-14,,2014-01-14T11:10,,,701,71,YEARS,M,WHITE,NOT HISPANIC OR LATINO,Xan_Hi,Xanomeline High Dose,Xan_Hi,Xanomeline High Dose,USA,2013-07-11,-8,2013-07-19T00:00:00Z,H,2014-01-14T23:59:59Z,H,180,,2014-01-14,COMPLETED,,2013-07-19,,,,,,,,2014-01-14,Y,White,>64,NA,,,,
66,CDISCPILOT01,LB,01-701-1028,232,ALT,Alanine Aminotransferase,CHEMISTRY,22,U/L,6,35,22,22,U/L,6,35,NORMAL,,11,WEEK 20,140,2013-12-04T15:10,139,2013-07-19,2014-01-14,Xanomeline High Dose,Xanomeline High Dose,2013-12-04,139,ALT,Alanine Aminotransferase (U/L),3,CHEMISTRY,22,,6,35,,Week 20,11,Y,NORMAL,LAST,,26,,NORMAL,-4,-15.384615384615385,,Alanine aminotransferase increased,,0,0,,0,0,0.8461538461538461,3.6666666666666665,0.6285714285714286,NORMAL to NORMAL,0 to 0,Y,,Xanomeline High Dose,Xanomeline High Dose,35,1028,2013-07-19,2014-01-14,2013-07-19,2014-01-14,,2014-01-14T11:10,,,701,71,YEARS,M,WHITE,NOT HISPANIC OR LATINO,Xan_Hi,Xanomeline High Dose,Xan_Hi,Xanomeline High Dose,USA,2013-07-11,-8,2013-07-19T00:00:00Z,H,2014-01-14T23:59:59Z,H,180,,2014-01-14,COMPLETED,,2013-07-19,,,,,,,,2014-01-14,Y,White,>64,NA,,,,
67,CDISCPILOT01,LB,01-701-1028,232,ALT,Alanine Aminotransferase,CHEMISTRY,22,U/L,6,35,22,22,U/L,6,35,NORMAL,,11,WEEK 20,140,2013-12-04T15:10,139,2013-07-19,2014-01-14,Xanomeline High Dose,Xanomeline High Dose,2013-12-04,139,ALT,Alanine Aminotransferase (U/L),3,CHEMISTRY,22,,6,35,MINIMUM,POST-BASELINE MINIMUM,9997,Y,NORMAL,LAST,,26,,NORMAL,-4,-15.384615384615385,,Alanine aminotransferase increased,,0,0,,0,0,0.8461538461538461,3.6666666666666665,0.6285714285714286,NORMAL to NORMAL,0 to 0,Y,,Xanomeline High Dose,Xanomeline High Dose,36,1028,2013-07-19,2014-01-14,2013-07-19,2014-01-14,,2014-01-14T11:10,,,701,71,YEARS,M,WHITE,NOT HISPANIC OR LATINO,Xan_Hi,Xanomeline High Dose,Xan_Hi,Xanomeline High Dose,USA,2013-07-11,-8,2013-07-19T00:00:00Z,H,2014-01-14T23:59:59Z,H,180,,2014-01-14,COMPLETED,,2013-07-19,,,,,,,,2014-01-14,Y,White,>64,NA,,,,
68,CDISCPILOT01,LB,01-701-1028,263,ALT,Alanine Aminotransferase,CHEMISTRY,24,U/L,6,35,24,24,U/L,6,35,NORMAL,,12,WEEK 24,168,2014-01-06T10:00,172,2013-07-19,2014-01-14,Xanomeline High Dose,Xanomeline High Dose,2014-01-06,172,ALT,Alanine Aminotransferase (U/L),3,CHEMISTRY,24,,6,35,,Week 24,12,Y,NORMAL,LAST,,26,,NORMAL,-2,-7.6923076923076925,,Alanine aminotransferase increased,,0,0,,0,0,0.9230769230769231,4,0.6857142857142857,NORMAL to NORMAL,0 to 0,Y,,Xanomeline High Dose,Xanomeline High Dose,37,1028,2013-07-19,2014-01-14,2013-07-19,2014-01-14,,2014-01-14T11:10,,,701,71,YEARS,M,WHITE,NOT HISPANIC OR LATINO,Xan_Hi,Xanomeline High Dose,Xan_Hi,Xanomeline High Dose,USA,2013-07-11,-8,2013-07-19T00:00:00Z,H,2014-01-14T23:59:59Z,H,180,,2014-01-14,COMPLETED,,2013-07-19,,,,,,,,2014-01-14,Y,White,>64,NA,,,,
69,CDISCPILOT01,LB,01-701-1028,300,ALT,Alanine Aminotransferase,CHEMISTRY,26,U/L,6,35,26,26,U/L,6,35,NORMAL,,13,WEEK 26,182,2014-01-14T11:10,180,2013-07-19,2014-01-14,Xanomeline High Dose,Xanomeline High Dose,2014-01-14,180,ALT,Alanine Aminotransferase (U/L),3,CHEMISTRY,26,,6,35,,Week 26,13,Y,NORMAL,LAST,,26,,NORMAL,0,0,,Alanine aminotransferase increased,,0,0,,0,0,1,4.333333333333333,0.7428571428571429,NORMAL to NORMAL,0 to 0,Y,Y,Xanomeline High Dose,Xanomeline High Dose,38,1028,2013-07-19,2014-01-14,2013-07-19,2014-01-14,,2014-01-14T11:10,,,701,71,YEARS,M,WHITE,NOT HISPANIC OR LATINO,Xan_Hi,Xanomeline High Dose,Xan_Hi,Xanomeline High Dose,USA,2013-07-11,-8,2013-07-19T00:00:00Z,H,2014-01-14T23:59:59Z,H,180,,2014-01-14,COMPLETED,,2013-07-19,,,,,,,,2014-01-14,Y,White,>64,NA,,,,
70,CDISCPILOT01,LB,01-701-1028,300,ALT,Alanine Aminotransferase,CHEMISTRY,26,U/L,6,35,26,26,U/L,6,35,NORMAL,,13,WEEK 26,182,2014-01-14T11:10,180,2013-07-19,2014-01-14,Xanomeline High Dose,Xanomeline High Dose,2014-01-14,180,ALT,Alanine Aminotransferase (U/L),3,CHEMISTRY,26,,6,35,LOV,POST-BASELINE LAST,9999,Y,NORMAL,LAST,,26,,NORMAL,0,0,,Alanine aminotransferase increased,,0,0,,0,0,1,4.333333333333333,0.7428571428571429,NORMAL to NORMAL,0 to 0,Y,Y,Xanomeline High Dose,Xanomeline High Dose,39,1028,2013-07-19,2014-01-14,2013-07-19,2014-01-14,,2014-01-14T11:10,,,701,71,YEARS,M,WHITE,NOT HISPANIC OR LATINO,Xan_Hi,Xanomeline High Dose,Xan_Hi,Xanomeline High Dose,USA,2013-07-11,-8,2013-07-19T00:00:00Z,H,2014-01-14T23:59:59Z,H,180,,2014-01-14,COMPLETED,,2013-07-19,,,,,,,,2014-01-14,Y,White,>64,NA,,,,
71,CDISCPILOT01,LB,01-701-1028,4,AST,Aspartate Aminotransferase,CHEMISTRY,24,U/L,11,36,24,24,U/L,11,36,NORMAL,Y,1,SCREENING 1,-7,2013-07-11T12:02,-8,2013-07-19,2014-01-14,Xanomeline High Dose,Xanomeline High Dose,2013-07-11,-8,AST,Aspartate Aminotransferase (U/L),5,CHEMISTRY,24,,11,36,,Baseline,0,,NORMAL,LAST,Y,24,,NORMAL,,,,Aspartate aminotransferase increased,,0,0,,0,0,1,2.1818181818181817,0.6666666666666666,NORMAL to NORMAL,0 to 0,,,Xanomeline High Dose,Xanomeline High Dose,45,1028,2013-07-19,2014-01-14,2013-07-19,2014-01-14,,2014-01-14T11:10,,,701,71,YEARS,M,WHITE,NOT HISPANIC OR LATINO,Xan_Hi,Xanomeline High Dose,Xan_Hi,Xanomeline High Dose,USA,2013-07-11,-8,2013-07-19T00:00:00Z,H,2014-01-14T23:59:59Z,H,180,,2014-01-14,COMPLETED,,2013-07-19,,,,,,,,2014-01-14,Y,White,>64,NA,,,,
72,CDISCPILOT01,LB,01-701-1028,41,AST,Aspartate Aminotransferase,CHEMISTRY,23,U/L,11,36,23,23,U/L,11,36,NORMAL,,4,WEEK 2,14,2013-08-01T09:15,14,2013-07-19,2014-01-14,Xanomeline High Dose,Xanomeline High Dose,2013-08-01,14,AST,Aspartate Aminotransferase (U/L),5,CHEMISTRY,23,,11,36,,Week 2,4,Y,NORMAL,LAST,,24,,NORMAL,-1,-4.166666666666666,,Aspartate aminotransferase increased,,0,0,,0,0,0.9583333333333334,2.090909090909091,0.6388888888888888,NORMAL to NORMAL,0 to 0,Y,,Xanomeline High Dose,Xanomeline High Dose,46,1028,2013-07-19,2014-01-14,2013-07-19,2014-01-14,,2014-01-14T11:10,,,701,71,YEARS,M,WHITE,NOT HISPANIC OR LATINO,Xan_Hi,Xanomeline High Dose,Xan_Hi,Xanomeline High Dose,USA,2013-07-11,-8,2013-07-19T00:00:00Z,H,2014-01-14T23:59:59Z,H,180,,2014-01-14,COMPLETED,,2013-07-19,,,,,,,,2014-01-14,Y,White,>64,NA,,,,
73,CDISCPILOT01,LB,01-701-1028,76,AST,Aspartate Aminotransferase,CHEMISTRY,24,U/L,11,36,24,24,U/L,11,36,NORMAL,,5,WEEK 4,28,2013-08-14T13:24,27,2013-07-19,2014-01-14,Xanomeline High Dose,Xanomeline High Dose,2013-08-14,27,AST,Aspartate Aminotransferase (U/L),5,CHEMISTRY,24,,11,36,,Week 4,5,Y,NORMAL,LAST,,24,,NORMAL,0,0,,Aspartate aminotransferase increased,,0,0,,0,0,1,2.1818181818181817,0.6666666666666666,NORMAL to NORMAL,0 to 0,Y,,Xanomeline High Dose,Xanomeline High Dose,47,1028,2013-07-19,2014-01-14,2013-07-19,2014-01-14,,2014-01-14T11:10,,,701,71,YEARS,M,WHITE,NOT HISPANIC OR LATINO,Xan_Hi,Xanomeline High Dose,Xan_Hi,Xanomeline High Dose,USA,2013-07-11,-8,2013-07-19T00:00:00Z,H,2014-01-14T23:59:59Z,H,180,,2014-01-14,COMPLETED,,2013-07-19,,,,,,,,2014-01-14,Y,White,>64,NA,,,,
74,CDISCPILOT01,LB,01-701-1028,106,AST,Aspartate Aminotransferase,CHEMISTRY,26,U/L,11,36,26,26,U/L,11,36,NORMAL,,7,WEEK 6,42,2013-08-29T11:54,42,2013-07-19,2014-01-14,Xanomeline High Dose,Xanomeline High Dose,2013-08-29,42,AST,Aspartate Aminotransferase (U/L),5,CHEMISTRY,26,,11,36,,Week 6,7,Y,NORMAL,LAST,,24,,NORMAL,2,8.333333333333332,,Aspartate aminotransferase increased,,0,0,,0,0,1.0833333333333333,2.3636363636363638,0.7222222222222222,NORMAL to NORMAL,0 to 0,Y,,Xanomeline High Dose,Xanomeline High Dose,48,1028,2013-07-19,2014-01-14,2013-07-19,2014-01-14,,2014-01-14T11:10,,,701,71,YEARS,M,WHITE,NOT HISPANIC OR LATINO,Xan_Hi,Xanomeline High Dose,Xan_Hi,Xanomeline High Dose,USA,2013-07-11,-8,2013-07-19T00:00:00Z,H,2014-01-14T23:59:59Z,H,180,,2014-01-14,COMPLETED,,2013-07-19,,,,,,,,2014-01-14,Y,White,>64,NA,,,,
75,CDISCPILOT01,LB,01-701-1028,136,AST,Aspartate Aminotransferase,CHEMISTRY,28,U/L,11,36,28,28,U/L,11,36,NORMAL,,8,WEEK 8,56,2013-09-10T09:13,54,2013-07-19,2014-01-14,Xanomeline High Dose,Xanomeline High Dose,2013-09-10,54,AST,Aspartate Aminotransferase (U/L),5,CHEMISTRY,28,,11,36,,Week 8,8,Y,NORMAL,LAST,,24,,NORMAL,4,16.666666666666664,,Aspartate aminotransferase increased,,0,0,,0,0,1.1666666666666667,2.5454545454545454,0.7777777777777778,NORMAL to NORMAL,0 to 0,Y,,Xanomeline High Dose,Xanomeline High Dose,49,1028,2013-07-19,2014-01-14,2013-07-19,2014-01-14,,2014-01-14T11:10,,,701,71,YEARS,M,WHITE,NOT HISPANIC OR LATINO,Xan_Hi,Xanomeline High Dose,Xan_Hi,Xanomeline High Dose,USA,2013-07-11,-8,2013-07-19T00:00:00Z,H,2014-01-14T23:59:59Z,H,180,,2014-01-14,COMPLETED,,2013-07-19,,,,,,,,2014-01-14,Y,White,>64,NA,,,,
76,CDISCPILOT01,LB,01-701-1028,136,AST,Aspartate Aminotransferase,CHEMISTRY,28,U/L,11,36,28,28,U/L,11,36,NORMAL,,8,WEEK 8,56,2013-09-10T09:13,54,2013-07-19,2014-01-14,Xanomeline High Dose,Xanomeline High Dose,2013-09-10,54,AST,Aspartate Aminotransferase (U/L),5,CHEMISTRY,28,,11,36,MAXIMUM,POST-BASELINE MAXIMUM,9998,Y,NORMAL,LAST,,24,,NORMAL,4,16.666666666666664,,Aspartate aminotransferase increased,,0,0,,0,0,1.1666666666666667,2.5454545454545454,0.7777777777777778,NORMAL to NORMAL,0 to 0,Y,,Xanomeline High Dose,Xanomeline High Dose,50,1028,2013-07-19,2014-01-14,2013-07-19,2014-01-14,,2014-01-14T11:10,,,701,71,YEARS,M,WHITE,NOT HISPANIC OR LATINO,Xan_Hi,Xanomeline High Dose,Xan_Hi,Xanomeline High Dose,USA,2013-07-11,-8,2013-07-19T00:00:00Z,H,2014-01-14T23:59:59Z,H,180,,2014-01-14,COMPLETED,,2013-07-19,,,,,,,,2014-01-14,Y,White,>64,NA,,,,
77,CDISCPILOT01,LB,01-701-1028,166,AST,Aspartate Aminotransferase,CHEMISTRY,28,U/L,11,36,28,28,U/L,11,36,NORMAL,,9,WEEK 12,84,2013-10-09T08:42,83,2013-07-19,2014-01-14,Xanomeline High Dose,Xanomeline High Dose,2013-10-09,83,AST,Aspartate Aminotransferase (U/L),5,CHEMISTRY,28,,11,36,,Week 12,9,Y,NORMAL,LAST,,24,,NORMAL,4,16.666666666666664,,Aspartate aminotransferase increased,,0,0,,0,0,1.1666666666666667,2.5454545454545454,0.7777777777777778,NORMAL to NORMAL,0 to 0,Y,,Xanomeline High Dose,Xanomeline High Dose,51,1028,2013-07-19,2014-01-14,2013-07-19,2014-01-14,,2014-01-14T11:10,,,701,71,YEARS,M,WHITE,NOT HISPANIC OR LATINO,Xan_Hi,Xanomeline High Dose,Xan_Hi,Xanomeline High Dose,USA,2013-07-11,-8,2013-07-19T00:00:00Z,H,2014-01-14T23:59:59Z,H,180,,2014-01-14,COMPLETED,,2013-07-19,,,,,,,,2014-01-14,Y,White,>64,NA,,,,
78,CDISCPILOT01,LB,01-701-1028,202,AST,Aspartate Aminotransferase,CHEMISTRY,18,U/L,11,36,18,18,U/L,11,36,NORMAL,,10,WEEK 16,112,2013-11-06T10:08,111,2013-07-19,2014-01-14,Xanomeline High Dose,Xanomeline High Dose,2013-11-06,111,AST,Aspartate Aminotransferase (U/L),5,CHEMISTRY,18,,11,36,,Week 16,10,Y,NORMAL,LAST,,24,,NORMAL,-6,-25,,Aspartate aminotransferase increased,,0,0,,0,0,0.75,1.6363636363636365,0.5,NORMAL to NORMAL,0 to 0,Y,,Xanomeline High Dose,Xanomeline High Dose,52,1028,2013-07-19,2014-01-14,2013-07-19,2014-01-14,,2014-01-14T11:10,,,701,71,YEARS,M,WHITE,NOT HISPANIC OR LATINO,Xan_Hi,Xanomeline High Dose,Xan_Hi,Xanomeline High Dose,USA,2013-07-11,-8,2013-07-19T00:00:00Z,H,2014-01-14T23:59:59Z,H,180,,2014-01-14,COMPLETED,,2013-07-19,,,,,,,,2014-01-14,Y,White,>64,NA,,,,
79,CDISCPILOT01,LB,01-701-1028,202,AST,Aspartate Aminotransferase,CHEMISTRY,18,U/L,11,36,18,18,U/L,11,36,NORMAL,,10,WEEK 16,112,2013-11-06T10:08,111,2013-07-19,2014-01-14,Xanomeline High Dose,Xanomeline High Dose,2013-11-06,111,AST,Aspartate Aminotransferase (U/L),5,CHEMISTRY,18,,11,36,MINIMUM,POST-BASELINE MINIMUM,9997,Y,NORMAL,LAST,,24,,NORMAL,-6,-25,,Aspartate aminotransferase increased,,0,0,,0,0,0.75,1.6363636363636365,0.5,NORMAL to NORMAL,0 to 0,Y,,Xanomeline High Dose,Xanomeline High Dose,53,1028,2013-07-19,2014-01-14,2013-07-19,2014-01-14,,2014-01-14T11:10,,,701,71,YEARS,M,WHITE,NOT HISPANIC OR LATINO,Xan_Hi,Xanomeline High Dose,Xan_Hi,Xanomeline High Dose,USA,2013-07-11,-8,2013-07-19T00:00:00Z,H,2014-01-14T23:59:59Z,H,180,,2014-01-14,COMPLETED,,2013-07-19,,,,,,,,2014-01-14,Y,White,>64,NA,,,,
80,CDISCPILOT01,LB,01-701-1028,234,AST,Aspartate Aminotransferase,CHEMISTRY,21,U/L,11,36,21,21,U/L,11,36,NORMAL,,11,WEEK 20,140,2013-12-04T15:10,139,2013-07-19,2014-01-14,Xanomeline High Dose,Xanomeline High Dose,2013-12-04,139,AST,Aspartate Aminotransferase (U/L),5,CHEMISTRY,21,,11,36,,Week 20,11,Y,NORMAL,LAST,,24,,NORMAL,-3,-12.5,,Aspartate aminotransferase increased,,0,0,,0,0,0.875,1.9090909090909092,0.5833333333333334,NORMAL to NORMAL,0 to 0,Y,,Xanomeline High Dose,Xanomeline High Dose,54,1028,2013-07-19,2014-01-14,2013-07-19,2014-01-14,,2014-01-14T11:10,,,701,71,YEARS,M,WHITE,NOT HISPANIC OR LATINO,Xan_Hi,Xanomeline High Dose,Xan_Hi,Xanomeline High Dose,USA,2013-07-11,-8,2013-07-19T00:00:00Z,H,2014-01-14T23:59:59Z,H,180,,2014-01-14,COMPLETED,,2013-07-19,,,,,,,,2014-01-14,Y,White,>64,NA,,,,
81,CDISCPILOT01,LB,01-701-1028,264,AST,Aspartate Aminotransferase,CHEMISTRY,23,U/L,11,36,23,23,U/L,11,36,NORMAL,,12,WEEK 24,168,2014-01-06T10:00,172,2013-07-19,2014-01-14,Xanomeline High Dose,Xanomeline High Dose,2014-01-06,172,AST,Aspartate Aminotransferase (U/L),5,CHEMISTRY,23,,11,36,,Week 24,12,Y,NORMAL,LAST,,24,,NORMAL,-1,-4.166666666666666,,Aspartate aminotransferase increased,,0,0,,0,0,0.9583333333333334,2.090909090909091,0.6388888888888888,NORMAL to NORMAL,0 to 0,Y,,Xanomeline High Dose,Xanomeline High Dose,55,1028,2013-07-19,2014-01-14,2013-07-19,2014-01-14,,2014-01-14T11:10,,,701,71,YEARS,M,WHITE,NOT HISPANIC OR LATINO,Xan_Hi,Xanomeline High Dose,Xan_Hi,Xanomeline High Dose,USA,2013-07-11,-8,2013-07-19T00:00:00Z,H,2014-01-14T23:59:59Z,H,180,,2014-01-14,COMPLETED,,2013-07-19,,,,,,,,2014-01-14,Y,White,>64,NA,,,,
82,CDISCPILOT01,LB,01-701-1028,301,AST,Aspartate Aminotransferase,CHEMISTRY,24,U/L,11,36,24,24,U/L,11,36,NORMAL,,13,WEEK 26,182,2014-01-14T11:10,180,2013-07-19,2014-01-14,Xanomeline High Dose,Xanomeline High Dose,2014-01-14,180,AST,Aspartate Aminotransferase (U/L),5,CHEMISTRY,24,,11,36,,Week 26,13,Y,NORMAL,LAST,,24,,NORMAL,0,0,,Aspartate aminotransferase increased,,0,0,,0,0,1,2.1818181818181817,0.6666666666666666,NORMAL to NORMAL,0 to 0,Y,Y,Xanomeline High Dose,Xanomeline High Dose,56,1028,2013-07-19,2014-01-14,2013-07-19,2014-01-14,,2014-01-14T11:10,,,701,71,YEARS,M,WHITE,NOT HISPANIC OR LATINO,Xan_Hi,Xanomeline High Dose,Xan_Hi,Xanomeline High Dose,USA,2013-07-11,-8,2013-07-19T00:00:00Z,H,2014-01-14T23:59:59Z,H,180,,2014-01-14,COMPLETED,,2013-07-19,,,,,,,,2014-01-14,Y,White,>64,NA,,,,
83,CDISCPILOT01,LB,01-701-1028,301,AST,Aspartate Aminotransferase,CHEMISTRY,24,U/L,11,36,24,24,U/L,11,36,NORMAL,,13,WEEK 26,182,2014-01-14T11:10,180,2013-07-19,2014-01-14,Xanomeline High Dose,Xanomeline High Dose,2014-01-14,180,AST,Aspartate Aminotransferase (U/L),5,CHEMISTRY,24,,11,36,LOV,POST-BASELINE LAST,9999,Y,NORMAL,LAST,,24,,NORMAL,0,0,,Aspartate aminotransferase increased,,0,0,,0,0,1,2.1818181818181817,0.6666666666666666,NORMAL to NORMAL,0 to 0,Y,Y,Xanomeline High Dose,Xanomeline High Dose,57,1028,2013-07-19,2014-01-14,2013-07-19,2014-01-14,,2014-01-14T11:10,,,701,71,YEARS,M,WHITE,NOT HISPANIC OR LATINO,Xan_Hi,Xanomeline High Dose,Xan_Hi,Xanomeline High Dose,USA,2013-07-11,-8,2013-07-19T00:00:00Z,H,2014-01-14T23:59:59Z,H,180,,2014-01-14,COMPLETED,,2013-07-19,,,,,,,,2014-01-14,Y,White,>64,NA,,,,
84,CDISCPILOT01,LB,01-701-1028,6,BILI,Bilirubin,CHEMISTRY,1.1,mg/dL,0.2,1.2,18.81,18.81,umol/L,3,21,NORMAL,Y,1,SCREENING 1,-7,2013-07-11T12:02,-8,2013-07-19,2014-01-14,Xanomeline High Dose,Xanomeline High Dose,2013-07-11,-8,BILI,Bilirubin (umol/L),8,CHEMISTRY,18.81,,3,21,,Baseline,0,,NORMAL,LAST,Y,18.81,,NORMAL,,,,Blood bilirubin increased,,0,0,,0,0,1,6.27,0.8957142857142857,NORMAL to NORMAL,0 to 0,,,Xanomeline High Dose,Xanomeline High Dose,76,1028,2013-07-19,2014-01-14,2013-07-19,2014-01-14,,2014-01-14T11:10,,,701,71,YEARS,M,WHITE,NOT HISPANIC OR LATINO,Xan_Hi,Xanomeline High Dose,Xan_Hi,Xanomeline High Dose,USA,2013-07-11,-8,2013-07-19T00:00:00Z,H,2014-01-14T23:59:59Z,H,180,,2014-01-14,COMPLETED,,2013-07-19,,,,,,,,2014-01-14,Y,White,>64,NA,,,,
85,CDISCPILOT01,LB,01-701-1028,43,BILI,Bilirubin,CHEMISTRY,0.7,mg/dL,0.2,1.2,11.97,11.969999999999999,umol/L,3,21,NORMAL,,4,WEEK 2,14,2013-08-01T09:15,14,2013-07-19,2014-01-14,Xanomeline High Dose,Xanomeline High Dose,2013-08-01,14,BILI,Bilirubin (umol/L),8,CHEMISTRY,11.969999999999999,,3,21,,Week 2,4,Y,NORMAL,LAST,,18.81,,NORMAL,-6.84,-36.36363636363637,,Blood bilirubin increased,,0,0,,0,0,0.6363636363636364,3.9899999999999998,0.57,NORMAL to NORMAL,0 to 0,Y,,Xanomeline High Dose,Xanomeline High Dose,77,1028,2013-07-19,2014-01-14,2013-07-19,2014-01-14,,2014-01-14T11:10,,,701,71,YEARS,M,WHITE,NOT HISPANIC OR LATINO,Xan_Hi,Xanomeline High Dose,Xan_Hi,Xanomeline High Dose,USA,2013-07-11,-8,2013-07-19T00:00:00Z,H,2014-01-14T23:59:59Z,H,180,,2014-01-14,COMPLETED,,2013-07-19,,,,,,,,2014-01-14,Y,White,>64,NA,,,,
86,CDISCPILOT01,LB,01-701-1028,43,BILI,Bilirubin,CHEMISTRY,0.7,mg/dL,0.2,1.2,11.97,11.969999999999999,umol/L,3,21,NORMAL,,4,WEEK 2,14,2013-08-01T09:15,14,2013-07-19,2014-01-14,Xanomeline High Dose,Xanomeline High Dose,2013-08-01,14,BILI,Bilirubin (umol/L),8,CHEMISTRY,11.969999999999999,,3,21,MINIMUM,POST-BASELINE MINIMUM,9997,Y,NORMAL,LAST,,18.81,,NORMAL,-6.84,-36.36363636363637,,Blood bilirubin increased,,0,0,,0,0,0.6363636363636364,3.9899999999999998,0.57,NORMAL to NORMAL,0 to 0,Y,,Xanomeline High Dose,Xanomeline High Dose,78,1028,2013-07-19,2014-01-14,2013-07-19,2014-01-14,,2014-01-14T11:10,,,701,71,YEARS,M,WHITE,NOT HISPANIC OR LATINO,Xan_Hi,Xanomeline High Dose,Xan_Hi,Xanomeline High Dose,USA,2013-07-11,-8,2013-07-19T00:00:00Z,H,2014-01-14T23:59:59Z,H,180,,2014-01-14,COMPLETED,,2013-07-19,,,,,,,,2014-01-14,Y,White,>64,NA,,,,
87,CDISCPILOT01,LB,01-701-1028,78,BILI,Bilirubin,CHEMISTRY,0.8,mg/dL,0.2,1.2,13.68,13.68,umol/L,3,21,NORMAL,,5,WEEK 4,28,2013-08-14T13:24,27,2013-07-19,2014-01-14,Xanomeline High Dose,Xanomeline High Dose,2013-08-14,27,BILI,Bilirubin (umol/L),8,CHEMISTRY,13.68,,3,21,,Week 4,5,Y,NORMAL,LAST,,18.81,,NORMAL,-5.129999999999999,-27.27272727272727,,Blood bilirubin increased,,0,0,,0,0,0.7272727272727273,4.56,0.6514285714285715,NORMAL to NORMAL,0 to 0,Y,,Xanomeline High Dose,Xanomeline High Dose,79,1028,2013-07-19,2014-01-14,2013-07-19,2014-01-14,,2014-01-14T11:10,,,701,71,YEARS,M,WHITE,NOT HISPANIC OR LATINO,Xan_Hi,Xanomeline High Dose,Xan_Hi,Xanomeline High Dose,USA,2013-07-11,-8,2013-07-19T00:00:00Z,H,2014-01-14T23:59:59Z,H,180,,2014-01-14,COMPLETED,,2013-07-19,,,,,,,,2014-01-14,Y,White,>64,NA,,,,
88,CDISCPILOT01,LB,01-701-1028,108,BILI,Bilirubin,CHEMISTRY,0.7,mg/dL,0.2,1.2,11.97,11.969999999999999,umol/L,3,21,NORMAL,,7,WEEK 6,42,2013-08-29T11:54,42,2013-07-19,2014-01-14,Xanomeline High Dose,Xanomeline High Dose,2013-08-29,42,BILI,Bilirubin (umol/L),8,CHEMISTRY,11.969999999999999,,3,21,,Week 6,7,Y,NORMAL,LAST,,18.81,,NORMAL,-6.84,-36.36363636363637,,Blood bilirubin increased,,0,0,,0,0,0.6363636363636364,3.9899999999999998,0.57,NORMAL to NORMAL,0 to 0,Y,,Xanomeline High Dose,Xanomeline High Dose,80,1028,2013-07-19,2014-01-14,2013-07-19,2014-01-14,,2014-01-14T11:10,,,701,71,YEARS,M,WHITE,NOT HISPANIC OR LATINO,Xan_Hi,Xanomeline High Dose,Xan_Hi,Xanomeline High Dose,USA,2013-07-11,-8,2013-07-19T00:00:00Z,H,2014-01-14T23:59:59Z,H,180,,2014-01-14,COMPLETED,,2013-07-19,,,,,,,,2014-01-14,Y,White,>64,NA,,,,
89,CDISCPILOT01,LB,01-701-1028,138,BILI,Bilirubin,CHEMISTRY,0.8,mg/dL,0.2,1.2,13.68,13.68,umol/L,3,21,NORMAL,,8,WEEK 8,56,2013-09-10T09:13,54,2013-07-19,2014-01-14,Xanomeline High Dose,Xanomeline High Dose,2013-09-10,54,BILI,Bilirubin (umol/L),8,CHEMISTRY,13.68,,3,21,,Week 8,8,Y,NORMAL,LAST,,18.81,,NORMAL,-5.129999999999999,-27.27272727272727,,Blood bilirubin increased,,0,0,,0,0,0.7272727272727273,4.56,0.6514285714285715,NORMAL to NORMAL,0 to 0,Y,,Xanomeline High Dose,Xanomeline High Dose,81,1028,2013-07-19,2014-01-14,2013-07-19,2014-01-14,,2014-01-14T11:10,,,701,71,YEARS,M,WHITE,NOT HISPANIC OR LATINO,Xan_Hi,Xanomeline High Dose,Xan_Hi,Xanomeline High Dose,USA,2013-07-11,-8,2013-07-19T00:00:00Z,H,2014-01-14T23:59:59Z,H,180,,2014-01-14,COMPLETED,,2013-07-19,,,,,,,,2014-01-14,Y,White,>64,NA,,,,
90,CDISCPILOT01,LB,01-701-1028,168,BILI,Bilirubin,CHEMISTRY,0.8,mg/dL,0.2,1.2,13.68,13.68,umol/L,3,21,NORMAL,,9,WEEK 12,84,2013-10-09T08:42,83,2013-07-19,2014-01-14,Xanomeline High Dose,Xanomeline High Dose,2013-10-09,83,BILI,Bilirubin (umol/L),8,CHEMISTRY,13.68,,3,21,,Week 12,9,Y,NORMAL,LAST,,18.81,,NORMAL,-5.129999999999999,-27.27272727272727,,Blood bilirubin increased,,0,0,,0,0,0.7272727272727273,4.56,0.6514285714285715,NORMAL to NORMAL,0 to 0,Y,,Xanomeline High Dose,Xanomeline High Dose,82,1028,2013-07-19,2014-01-14,2013-07-19,2014-01-14,,2014-01-14T11:10,,,701,71,YEARS,M,WHITE,NOT HISPANIC OR LATINO,Xan_Hi,Xanomeline High Dose,Xan_Hi,Xanomeline High Dose,USA,2013-07-11,-8,2013-07-19T00:00:00Z,H,2014-01-14T23:59:59Z,H,180,,2014-01-14,COMPLETED,,2013-07-19,,,,,,,,2014-01-14,Y,White,>64,NA,,,,
91,CDISCPILOT01,LB,01-701-1028,204,BILI,Bilirubin,CHEMISTRY,0.7,mg/dL,0.2,1.2,11.97,11.969999999999999,umol/L,3,21,NORMAL,,10,WEEK 16,112,2013-11-06T10:08,111,2013-07-19,2014-01-14,Xanomeline High Dose,Xanomeline High Dose,2013-11-06,111,BILI,Bilirubin (umol/L),8,CHEMISTRY,11.969999999999999,,3,21,,Week 16,10,Y,NORMAL,LAST,,18.81,,NORMAL,-6.84,-36.36363636363637,,Blood bilirubin increased,,0,0,,0,0,0.6363636363636364,3.9899999999999998,0.57,NORMAL to NORMAL,0 to 0,Y,,Xanomeline High Dose,Xanomeline High Dose,83,1028,2013-07-19,2014-01-14,2013-07-19,2014-01-14,,2014-01-14T11:10,,,701,71,YEARS,M,WHITE,NOT HISPANIC OR LATINO,Xan_Hi,Xanomeline High Dose,Xan_Hi,Xanomeline High Dose,USA,2013-07-11,-8,2013-07-19T00:00:00Z,H,2014-01-14T23:59:59Z,H,180,,2014-01-14,COMPLETED,,2013-07-19,,,,,,,,2014-01-14,Y,White,>64,NA,,,,
92,CDISCPILOT01,LB,01-701-1028,236,BILI,Bilirubin,CHEMISTRY,0.8,mg/dL,0.2,1.2,13.68,13.68,umol/L,3,21,NORMAL,,11,WEEK 20,140,2013-12-04T15:10,139,2013-07-19,2014-01-14,Xanomeline High Dose,Xanomeline High Dose,2013-12-04,139,BILI,Bilirubin (umol/L),8,CHEMISTRY,13.68,,3,21,,Week 20,11,Y,NORMAL,LAST,,18.81,,NORMAL,-5.129999999999999,-27.27272727272727,,Blood bilirubin increased,,0,0,,0,0,0.7272727272727273,4.56,0.6514285714285715,NORMAL to NORMAL,0 to 0,Y,,Xanomeline High Dose,Xanomeline High Dose,84,1028,2013-07-19,2014-01-14,2013-07-19,2014-01-14,,2014-01-14T11:10,,,701,71,YEARS,M,WHITE,NOT HISPANIC OR LATINO,Xan_Hi,Xanomeline High Dose,Xan_Hi,Xanomeline High Dose,USA,2013-07-11,-8,2013-07-19T00:00:00Z,H,2014-01-14T23:59:59Z,H,180,,2014-01-14,COMPLETED,,2013-07-19,,,,,,,,2014-01-14,Y,White,>64,NA,,,,
93,CDISCPILOT01,LB,01-701-1028,266,BILI,Bilirubin,CHEMISTRY,0.9,mg/dL,0.2,1.2,15.39,15.389999999999999,umol/L,3,21,NORMAL,,12,WEEK 24,168,2014-01-06T10:00,172,2013-07-19,2014-01-14,Xanomeline High Dose,Xanomeline High Dose,2014-01-06,172,BILI,Bilirubin (umol/L),8,CHEMISTRY,15.389999999999999,,3,21,,Week 24,12,Y,NORMAL,LAST,,18.81,,NORMAL,-3.42,-18.181818181818183,,Blood bilirubin increased,,0,0,,0,0,0.8181818181818181,5.13,0.7328571428571428,NORMAL to NORMAL,0 to 0,Y,,Xanomeline High Dose,Xanomeline High Dose,85,1028,2013-07-19,2014-01-14,2013-07-19,2014-01-14,,2014-01-14T11:10,,,701,71,YEARS,M,WHITE,NOT HISPANIC OR LATINO,Xan_Hi,Xanomeline High Dose,Xan_Hi,Xanomeline High Dose,USA,2013-07-11,-8,2013-07-19T00:00:00Z,H,2014-01-14T23:59:59Z,H,180,,2014-01-14,COMPLETED,,2013-07-19,,,,,,,,2014-01-14,Y,White,>64,NA,,,,
94,CDISCPILOT01,LB,01-701-1028,266,BILI,Bilirubin,CHEMISTRY,0.9,mg/dL,0.2,1.2,15.39,15.389999999999999,umol/L,3,21,NORMAL,,12,WEEK 24,168,2014-01-06T10:00,172,2013-07-19,2014-01-14,Xanomeline High Dose,Xanomeline High Dose,2014-01-06,172,BILI,Bilirubin (umol/L),8,CHEMISTRY,15.389999999999999,,3,21,MAXIMUM,POST-BASELINE MAXIMUM,9998,Y,NORMAL,LAST,,18.81,,NORMAL,-3.42,-18.181818181818183,,Blood bilirubin increased,,0,0,,0,0,0.8181818181818181,5.13,0.7328571428571428,NORMAL to NORMAL,0 to 0,Y,,Xanomeline High Dose,Xanomeline High Dose,86,1028,2013-07-19,2014-01-14,2013-07-19,2014-01-14,,2014-01-14T11:10,,,701,71,YEARS,M,WHITE,NOT HISPANIC OR LATINO,Xan_Hi,Xanomeline High Dose,Xan_Hi,Xanomeline High Dose,USA,2013-07-11,-8,2013-07-19T00:00:00Z,H,2014-01-14T23:59:59Z,H,180,,2014-01-14,COMPLETED,,2013-07-19,,,,,,,,2014-01-14,Y,White,>64,NA,,,,
95,CDISCPILOT01,LB,01-701-1028,303,BILI,Bilirubin,CHEMISTRY,0.8,mg/dL,0.2,1.2,13.68,13.68,umol/L,3,21,NORMAL,,13,WEEK 26,182,2014-01-14T11:10,180,2013-07-19,2014-01-14,Xanomeline High Dose,Xanomeline High Dose,2014-01-14,180,BILI,Bilirubin (umol/L),8,CHEMISTRY,13.68,,3,21,,Week 26,13,Y,NORMAL,LAST,,18.81,,NORMAL,-5.129999999999999,-27.27272727272727,,Blood bilirubin increased,,0,0,,0,0,0.7272727272727273,4.56,0.6514285714285715,NORMAL to NORMAL,0 to 0,Y,Y,Xanomeline High Dose,Xanomeline High Dose,87,1028,2013-07-19,2014-01-14,2013-07-19,2014-01-14,,2014-01-14T11:10,,,701,71,YEARS,M,WHITE,NOT HISPANIC OR LATINO,Xan_Hi,Xanomeline High Dose,Xan_Hi,Xanomeline High Dose,USA,2013-07-11,-8,2013-07-19T00:00:00Z,H,2014-01-14T23:59:59Z,H,180,,2014-01-14,COMPLETED,,2013-07-19,,,,,,,,2014-01-14,Y,White,>64,NA,,,,
96,CDISCPILOT01,LB,01-701-1028,303,BILI,Bilirubin,CHEMISTRY,0.8,mg/dL,0.2,1.2,13.68,13.68,umol/L,3,21,NORMAL,,13,WEEK 26,182,2014-01-14T11:10,180,2013-07-19,2014-01-14,Xanomeline High Dose,Xanomeline High Dose,2014-01-14,180,BILI,Bilirubin (umol/L),8,CHEMISTRY,13.68,,3,21,LOV,POST-BASELINE LAST,9999,Y,NORMAL,LAST,,18.81,,NORMAL,-5.129999999999999,-27.27272727272727,,Blood bilirubin increased,,0,0,,0,0,0.7272727272727273,4.56,0.6514285714285715,NORMAL to NORMAL,0 to 0,Y,Y,Xanomeline High Dose,Xanomeline High Dose,88,1028,2013-07-19,2014-01-14,2013-07-19,2014-01-14,,2014-01-14T11:10,,,701,71,YEARS,M,WHITE,NOT HISPANIC OR LATINO,Xan_Hi,Xanomeline High Dose,Xan_Hi,Xanomeline High Dose,USA,2013-07-11,-8,2013-07-19T00:00:00Z,H,2014-01-14T23:59:59Z,H,180,,2014-01-14,COMPLETED,,2013-07-19,,,,,,,,2014-01-14,Y,White,>64,NA,,,,
97,CDISCPILOT01,LB,01-701-1033,3,ALT,Alanine Aminotransferase,CHEMISTRY,16,U/L,6,35,16,16,U/L,6,35,NORMAL,Y,1,SCREENING 1,-7,2014-03-10T12:31,-8,2014-03-18,2014-03-31,Xanomeline Low Dose,Xanomeline Low Dose,2014-03-10,-8,ALT,Alanine Aminotransferase (U/L),3,CHEMISTRY,16,,6,35,,Baseline,0,,NORMAL,LAST,Y,16,,NORMAL,,,,Alanine aminotransferase increased,,0,0,,0,0,1,2.6666666666666665,0.45714285714285713,NORMAL to NORMAL,0 to 0,,,Xanomeline Low Dose,Xanomeline Low Dose,7,1033,2014-03-18,2014-04-14,2014-03-18,2014-03-31,,2014-09-15,,,701,74,YEARS,M,WHITE,NOT HISPANIC OR LATINO,Xan_Lo,Xanomeline Low Dose,Xan_Lo,Xanomeline Low Dose,USA,2014-03-10,-8,2014-03-18T00:00:00Z,H,2014-03-31T23:59:59Z,H,14,,2014-04-14,DISCONTINUED,2014-09-15,2014-03-18,,,,,,,,2014-04-14,Y,White,>64,NA,,,,
98,CDISCPILOT01,LB,01-701-1033,40,ALT,Alanine Aminotransferase,CHEMISTRY,35,U/L,6,35,35,35,U/L,6,35,NORMAL,,4,WEEK 2,14,2014-04-01T08:55,15,2014-03-18,2014-03-31,Xanomeline Low Dose,Xanomeline Low Dose,2014-04-01,15,ALT,Alanine Aminotransferase (U/L),3,CHEMISTRY,35,,6,35,,Week 2,4,,NORMAL,LAST,,16,,NORMAL,19,118.75,,Alanine aminotransferase increased,,0,0,,0,0,2.1875,5.833333333333333,1,NORMAL to NORMAL,0 to 0,,,Xanomeline Low Dose,Xanomeline Low Dose,8,1033,2014-03-18,2014-04-14,2014-03-18,2014-03-31,,2014-09-15,,,701,74,YEARS,M,WHITE,NOT HISPANIC OR LATINO,Xan_Lo,Xanomeline Low Dose,Xan_Lo,Xanomeline Low Dose,USA,2014-03-10,-8,2014-03-18T00:00:00Z,H,2014-03-31T23:59:59Z,H,14,,2014-04-14,DISCONTINUED,2014-09-15,2014-03-18,,,,,,,,2014-04-14,Y,White,>64,NA,,,,
99,CDISCPILOT01,LB,01-701-1033,75,ALT,Alanine Aminotransferase,CHEMISTRY,14,U/L,6,35,14,14,U/L,6,35,NORMAL,,5,WEEK 4,28,2014-04-14T10:38,28,2014-03-18,2014-03-31,Xanomeline Low Dose,Xanomeline Low Dose,2014-04-14,28,ALT,Alanine Aminotransferase (U/L),3,CHEMISTRY,14,,6,35,,Week 4,5,,NORMAL,LAST,,16,,NORMAL,-2,-12.5,,Alanine aminotransferase increased,,0,0,,0,0,0.875,2.3333333333333335,0.4,NORMAL to NORMAL,0 to 0,,,Xanomeline Low Dose,Xanomeline Low Dose,9,1033,2014-03-18,2014-04-14,2014-03-18,2014-03-31,,2014-09-15,,,701,74,YEARS,M,WHITE,NOT HISPANIC OR LATINO,Xan_Lo,Xanomeline Low Dose,Xan_Lo,Xanomeline Low Dose,USA,2014-03-10,-8,2014-03-18T00:00:00Z,H,2014-03-31T23:59:59Z,H,14,,2014-04-14,DISCONTINUED,2014-09-15,2014-03-18,,,,,,,,2014-04-14,Y,White,>64,NA,,,,
100,CDISCPILOT01,LB,01-701-1033,4,AST,Aspartate Aminotransferase,CHEMISTRY,20,U/L,11,36,20,20,U/L,11,36,NORMAL,Y,1,SCREENING 1,-7,2014-03-10T12:31,-8,2014-03-18,2014-03-31,Xanomeline Low Dose,Xanomeline Low Dose,2014-03-10,-8,AST,Aspartate Aminotransferase (U/L),5,CHEMISTRY,20,,11,36,,Baseline,0,,NORMAL,LAST,Y,20,,NORMAL,,,,Aspartate aminotransferase increased,,0,0,,0,0,1,1.8181818181818181,0.5555555555555556,NORMAL to NORMAL,0 to 0,,,Xanomeline Low Dose,Xanomeline Low Dose,10,1033,2014-03-18,2014-04-14,2014-03-18,2014-03-31,,2014-09-15,,,701,74,YEARS,M,WHITE,NOT HISPANIC OR LATINO,Xan_Lo,Xanomeline Low Dose,Xan_Lo,Xanomeline Low Dose,USA,2014-03-10,-8,2014-03-18T00:00:00Z,H,2014-03-31T23:59:59Z,H,14,,2014-04-14,DISCONTINUED,2014-09-15,2014-03-18,,,,,,,,2014-04-14,Y,White,>64,NA,,,,
101,CDISCPILOT01,LB,01-701-1033,41,AST,Aspartate Aminotransferase,CHEMISTRY,26,U/L,11,36,26,26,U/L,11,36,NORMAL,,4,WEEK 2,14,2014-04-01T08:55,15,2014-03-18,2014-03-31,Xanomeline Low Dose,Xanomeline Low Dose,2014-04-01,15,AST,Aspartate Aminotransferase (U/L),5,CHEMISTRY,26,,11,36,,Week 2,4,,NORMAL,LAST,,20,,NORMAL,6,30,,Aspartate aminotransferase increased,,0,0,,0,0,1.3,2.3636363636363638,0.7222222222222222,NORMAL to NORMAL,0 to 0,,,Xanomeline Low Dose,Xanomeline Low Dose,11,1033,2014-03-18,2014-04-14,2014-03-18,2014-03-31,,2014-09-15,,,701,74,YEARS,M,WHITE,NOT HISPANIC OR LATINO,Xan_Lo,Xanomeline Low Dose,Xan_Lo,Xanomeline Low Dose,USA,2014-03-10,-8,2014-03-18T00:00:00Z,H,2014-03-31T23:59:59Z,H,14,,2014-04-14,DISCONTINUED,2014-09-15,2014-03-18,,,,,,,,2014-04-14,Y,White,>64,NA,,,,
102,CDISCPILOT01,LB,01-701-1033,76,AST,Aspartate Aminotransferase,CHEMISTRY,20,U/L,11,36,20,20,U/L,11,36,NORMAL,,5,WEEK 4,28,2014-04-14T10:38,28,2014-03-18,2014-03-31,Xanomeline Low Dose,Xanomeline Low Dose,2014-04-14,28,AST,Aspartate Aminotransferase (U/L),5,CHEMISTRY,20,,11,36,,Week 4,5,,NORMAL,LAST,,20,,NORMAL,0,0,,Aspartate aminotransferase increased,,0,0,,0,0,1,1.8181818181818181,0.5555555555555556,NORMAL to NORMAL,0 to 0,,,Xanomeline Low Dose,Xanomeline Low Dose,12,1033,2014-03-18,2014-04-14,2014-03-18,2014-03-31,,2014-09-15,,,701,74,YEARS,M,WHITE,NOT HISPANIC OR LATINO,Xan_Lo,Xanomeline Low Dose,Xan_Lo,Xanomeline Low Dose,USA,2014-03-10,-8,2014-03-18T00:00:00Z,H,2014-03-31T23:59:59Z,H,14,,2014-04-14,DISCONTINUED,2014-09-15,2014-03-18,,,,,,,,2014-04-14,Y,White,>64,NA,,,,
103,CDISCPILOT01,LB,01-701-1033,6,BILI,Bilirubin,CHEMISTRY,0.8,mg/dL,0.2,1.2,13.68,13.68,umol/L,3,21,NORMAL,Y,1,SCREENING 1,-7,2014-03-10T12:31,-8,2014-03-18,2014-03-31,Xanomeline Low Dose,Xanomeline Low Dose,2014-03-10,-8,BILI,Bilirubin (umol/L),8,CHEMISTRY,13.68,,3,21,,Baseline,0,,NORMAL,LAST,Y,13.68,,NORMAL,,,,Blood bilirubin increased,,0,0,,0,0,1,4.56,0.6514285714285715,NORMAL to NORMAL,0 to 0,,,Xanomeline Low Dose,Xanomeline Low Dose,18,1033,2014-03-18,2014-04-14,2014-03-18,2014-03-31,,2014-09-15,,,701,74,YEARS,M,WHITE,NOT HISPANIC OR LATINO,Xan_Lo,Xanomeline Low Dose,Xan_Lo,Xanomeline Low Dose,USA,2014-03-10,-8,2014-03-18T00:00:00Z,H,2014-03-31T23:59:59Z,H,14,,2014-04-14,DISCONTINUED,2014-09-15,2014-03-18,,,,,,,,2014-04-14,Y,White,>64,NA,,,,
104,CDISCPILOT01,LB,01-701-1033,43,BILI,Bilirubin,CHEMISTRY,0.4,mg/dL,0.2,1.2,6.84,6.84,umol/L,3,21,NORMAL,,4,WEEK 2,14,2014-04-01T08:55,15,2014-03-18,2014-03-31,Xanomeline Low Dose,Xanomeline Low Dose,2014-04-01,15,BILI,Bilirubin (umol/L),8,CHEMISTRY,6.84,,3,21,,Week 2,4,,NORMAL,LAST,,13.68,,NORMAL,-6.84,-50,,Blood bilirubin increased,,0,0,,0,0,0.5,2.28,0.32571428571428573,NORMAL to NORMAL,0 to 0,,,Xanomeline Low Dose,Xanomeline Low Dose,19,1033,2014-03-18,2014-04-14,2014-03-18,2014-03-31,,2014-09-15,,,701,74,YEARS,M,WHITE,NOT HISPANIC OR LATINO,Xan_Lo,Xanomeline Low Dose,Xan_Lo,Xanomeline Low Dose,USA,2014-03-10,-8,2014-03-18T00:00:00Z,H,2014-03-31T23:59:59Z,H,14,,2014-04-14,DISCONTINUED,2014-09-15,2014-03-18,,,,,,,,2014-04-14,Y,White,>64,NA,,,,
105,CDISCPILOT01,LB,01-701-1033,78,BILI,Bilirubin,CHEMISTRY,0.9,mg/dL,0.2,1.2,15.39,15.389999999999999,umol/L,3,21,NORMAL,,5,WEEK 4,28,2014-04-14T10:38,28,2014-03-18,2014-03-31,Xanomeline Low Dose,Xanomeline Low Dose,2014-04-14,28,BILI,Bilirubin (umol/L),8,CHEMISTRY,15.389999999999999,,3,21,,Week 4,5,,NORMAL,LAST,,13.68,,NORMAL,1.709999999999999,12.499999999999993,,Blood bilirubin increased,,0,0,,0,0,1.125,5.13,0.7328571428571428,NORMAL to NORMAL,0 to 0,,,Xanomeline Low Dose,Xanomeline Low Dose,20,1033,2014-03-18,2014-04-14,2014-03-18,2014-03-31,,2014-09-15,,,701,74,YEARS,M,WHITE,NOT HISPANIC OR LATINO,Xan_Lo,Xanomeline Low Dose,Xan_Lo,Xanomeline Low Dose,USA,2014-03-10,-8,2014-03-18T00:00:00Z,H,2014-03-31T23:59:59Z,H,14,,2014-04-14,DISCONTINUED,2014-09-15,2014-03-18,,,,,,,,2014-04-14,Y,White,>64,NA,,,,
106,CDISCPILOT01,LB,01-701-1034,3,ALT,Alanine Aminotransferase,CHEMISTRY,15,U/L,6,32,15,15,U/L,6,32,NORMAL,Y,1,SCREENING 1,-7,2014-06-24T15:30,-7,2014-07-01,2014-12-30,Xanomeline High Dose,Xanomeline High Dose,2014-06-24,-7,ALT,Alanine Aminotransferase (U/L),3,CHEMISTRY,15,,6,32,,Baseline,0,,NORMAL,LAST,Y,15,,NORMAL,,,,Alanine aminotransferase increased,,0,0,,0,0,1,2.5,0.46875,NORMAL to NORMAL,0 to 0,,,Xanomeline High Dose,Xanomeline High Dose,27,1034,2014-07-01,2014-12-30,2014-07-01,2014-12-30,,2014-12-30T09:50,,,701,77,YEARS,F,WHITE,NOT HISPANIC OR LATINO,Xan_Hi,Xanomeline High Dose,Xan_Hi,Xanomeline High Dose,USA,2014-06-24,-7,2014-07-01T00:00:00Z,H,2014-12-30T23:59:59Z,H,183,,2014-12-30,COMPLETED,,2014-07-01,,,,,,,,2014-12-30,Y,White,>64,NA,,,,
107,CDISCPILOT01,LB,01-701-1034,41,ALT,Alanine Aminotransferase,CHEMISTRY,19,U/L,6,32,19,19,U/L,6,32,NORMAL,,4,WEEK 2,14,2014-07-15T09:25,15,2014-07-01,2014-12-30,Xanomeline High Dose,Xanomeline High Dose,2014-07-15,15,ALT,Alanine Aminotransferase (U/L),3,CHEMISTRY,19,,6,32,,Week 2,4,Y,NORMAL,LAST,,15,,NORMAL,4,26.666666666666668,,Alanine aminotransferase increased,,0,0,,0,0,1.2666666666666666,3.1666666666666665,0.59375,NORMAL to NORMAL,0 to 0,Y,,Xanomeline High Dose,Xanomeline High Dose,28,1034,2014-07-01,2014-12-30,2014-07-01,2014-12-30,,2014-12-30T09:50,,,701,77,YEARS,F,WHITE,NOT HISPANIC OR LATINO,Xan_Hi,Xanomeline High Dose,Xan_Hi,Xanomeline High Dose,USA,2014-06-24,-7,2014-07-01T00:00:00Z,H,2014-12-30T23:59:59Z,H,183,,2014-12-30,COMPLETED,,2014-07-01,,,,,,,,2014-12-30,Y,White,>64,NA,,,,
108,CDISCPILOT01,LB,01-701-1034,77,ALT,Alanine Aminotransferase,CHEMISTRY,21,U/L,6,32,21,21,U/L,6,32,NORMAL,,5,WEEK 4,28,2014-07-29T08:40,29,2014-07-01,2014-12-30,Xanomeline High Dose,Xanomeline High Dose,2014-07-29,29,ALT,Alanine Aminotransferase (U/L),3,CHEMISTRY,21,,6,32,,Week 4,5,Y,NORMAL,LAST,,15,,NORMAL,6,40,,Alanine aminotransferase increased,,0,0,,0,0,1.4,3.5,0.65625,NORMAL to NORMAL,0 to 0,Y,,Xanomeline High Dose,Xanomeline High Dose,29,1034,2014-07-01,2014-12-30,2014-07-01,2014-12-30,,2014-12-30T09:50,,,701,77,YEARS,F,WHITE,NOT HISPANIC OR LATINO,Xan_Hi,Xanomeline High Dose,Xan_Hi,Xanomeline High Dose,USA,2014-06-24,-7,2014-07-01T00:00:00Z,H,2014-12-30T23:59:59Z,H,183,,2014-12-30,COMPLETED,,2014-07-01,,,,,,,,2014-12-30,Y,White,>64,NA,,,,
109,CDISCPILOT01,LB,01-701-1034,108,ALT,Alanine Aminotransferase,CHEMISTRY,15,U/L,6,32,15,15,U/L,6,32,NORMAL,,7,WEEK 6,42,2014-08-11T13:15,42,2014-07-01,2014-12-30,Xanomeline High Dose,Xanomeline High Dose,2014-08-11,42,ALT,Alanine Aminotransferase (U/L),3,CHEMISTRY,15,,6,32,,Week 6,7,Y,NORMAL,LAST,,15,,NORMAL,0,0,,Alanine aminotransferase increased,,0,0,,0,0,1,2.5,0.46875,NORMAL to NORMAL,0 to 0,Y,,Xanomeline High Dose,Xanomeline High Dose,30,1034,2014-07-01,2014-12-30,2014-07-01,2014-12-30,,2014-12-30T09:50,,,701,77,YEARS,F,WHITE,NOT HISPANIC OR LATINO,Xan_Hi,Xanomeline High Dose,Xan_Hi,Xanomeline High Dose,USA,2014-06-24,-7,2014-07-01T00:00:00Z,H,2014-12-30T23:59:59Z,H,183,,2014-12-30,COMPLETED,,2014-07-01,,,,,,,,2014-12-30,Y,White,>64,NA,,,,
110,CDISCPILOT01,LB,01-701-1034,108,ALT,Alanine Aminotransferase,CHEMISTRY,15,U/L,6,32,15,15,U/L,6,32,NORMAL,,7,WEEK 6,42,2014-08-11T13:15,42,2014-07-01,2014-12-30,Xanomeline High Dose,Xanomeline High Dose,2014-08-11,42,ALT,Alanine Aminotransferase (U/L),3,CHEMISTRY,15,,6,32,MINIMUM,POST-BASELINE MINIMUM,9997,Y,NORMAL,LAST,,15,,NORMAL,0,0,,Alanine aminotransferase increased,,0,0,,0,0,1,2.5,0.46875,NORMAL to NORMAL,0 to 0,Y,,Xanomeline High Dose,Xanomeline High Dose,31,1034,2014-07-01,2014-12-30,2014-07-01,2014-12-30,,2014-12-30T09:50,,,701,77,YEARS,F,WHITE,NOT HISPANIC OR LATINO,Xan_Hi,Xanomeline High Dose,Xan_Hi,Xanomeline High Dose,USA,2014-06-24,-7,2014-07-01T00:00:00Z,H,2014-12-30T23:59:59Z,H,183,,2014-12-30,COMPLETED,,2014-07-01,,,,,,,,2014-12-30,Y,White,>64,NA,,,,
111,CDISCPILOT01,LB,01-701-1034,139,ALT,Alanine Aminotransferase,CHEMISTRY,24,U/L,6,32,24,24,U/L,6,32,NORMAL,,8,WEEK 8,56,2014-08-26T09:57,57,2014-07-01,2014-12-30,Xanomeline High Dose,Xanomeline High Dose,2014-08-26,57,ALT,Alanine Aminotransferase (U/L),3,CHEMISTRY,24,,6,32,,Week 8,8,Y,NORMAL,LAST,,15,,NORMAL,9,60,,Alanine aminotransferase increased,,0,0,,0,0,1.6,4,0.75,NORMAL to NORMAL,0 to 0,Y,,Xanomeline High Dose,Xanomeline High Dose,32,1034,2014-07-01,2014-12-30,2014-07-01,2014-12-30,,2014-12-30T09:50,,,701,77,YEARS,F,WHITE,NOT HISPANIC OR LATINO,Xan_Hi,Xanomeline High Dose,Xan_Hi,Xanomeline High Dose,USA,2014-06-24,-7,2014-07-01T00:00:00Z,H,2014-12-30T23:59:59Z,H,183,,2014-12-30,COMPLETED,,2014-07-01,,,,,,,,2014-12-30,Y,White,>64,NA,,,,
112,CDISCPILOT01,LB,01-701-1034,139,ALT,Alanine Aminotransferase,CHEMISTRY,24,U/L,6,32,24,24,U/L,6,32,NORMAL,,8,WEEK 8,56,2014-08-26T09:57,57,2014-07-01,2014-12-30,Xanomeline High Dose,Xanomeline High Dose,2014-08-26,57,ALT,Alanine Aminotransferase (U/L),3,CHEMISTRY,24,,6,32,MAXIMUM,POST-BASELINE MAXIMUM,9998,Y,NORMAL,LAST,,15,,NORMAL,9,60,,Alanine aminotransferase increased,,0,0,,0,0,1.6,4,0.75,NORMAL to NORMAL,0 to 0,Y,,Xanomeline High Dose,Xanomeline High Dose,33,1034,2014-07-01,2014-12-30,2014-07-01,2014-12-30,,2014-12-30T09:50,,,701,77,YEARS,F,WHITE,NOT HISPANIC OR LATINO,Xan_Hi,Xanomeline High Dose,Xan_Hi,Xanomeline High Dose,USA,2014-06-24,-7,2014-07-01T00:00:00Z,H,2014-12-30T23:59:59Z,H,183,,2014-12-30,COMPLETED,,2014-07-01,,,,,,,,2014-12-30,Y,White,>64,NA,,,,
113,CDISCPILOT01,LB,01-701-1034,169,ALT,Alanine Aminotransferase,CHEMISTRY,20,U/L,6,32,20,20,U/L,6,32,NORMAL,,9,WEEK 12,84,2014-09-25T15:40,87,2014-07-01,2014-12-30,Xanomeline High Dose,Xanomeline High Dose,2014-09-25,87,ALT,Alanine Aminotransferase (U/L),3,CHEMISTRY,20,,6,32,,Week 12,9,Y,NORMAL,LAST,,15,,NORMAL,5,33.33333333333333,,Alanine aminotransferase increased,,0,0,,0,0,1.3333333333333333,3.3333333333333335,0.625,NORMAL to NORMAL,0 to 0,Y,,Xanomeline High Dose,Xanomeline High Dose,34,1034,2014-07-01,2014-12-30,2014-07-01,2014-12-30,,2014-12-30T09:50,,,701,77,YEARS,F,WHITE,NOT HISPANIC OR LATINO,Xan_Hi,Xanomeline High Dose,Xan_Hi,Xanomeline High Dose,USA,2014-06-24,-7,2014-07-01T00:00:00Z,H,2014-12-30T23:59:59Z,H,183,,2014-12-30,COMPLETED,,2014-07-01,,,,,,,,2014-12-30,Y,White,>64,NA,,,,
114,CDISCPILOT01,LB,01-701-1034,204,ALT,Alanine Aminotransferase,CHEMISTRY,21,U/L,6,32,21,21,U/L,6,32,NORMAL,,10,WEEK 16,112,2014-10-21T09:52,113,2014-07-01,2014-12-30,Xanomeline High Dose,Xanomeline High Dose,2014-10-21,113,ALT,Alanine Aminotransferase (U/L),3,CHEMISTRY,21,,6,32,,Week 16,10,Y,NORMAL,LAST,,15,,NORMAL,6,40,,Alanine aminotransferase increased,,0,0,,0,0,1.4,3.5,0.65625,NORMAL to NORMAL,0 to 0,Y,,Xanomeline High Dose,Xanomeline High Dose,35,1034,2014-07-01,2014-12-30,2014-07-01,2014-12-30,,2014-12-30T09:50,,,701,77,YEARS,F,WHITE,NOT HISPANIC OR LATINO,Xan_Hi,Xanomeline High Dose,Xan_Hi,Xanomeline High Dose,USA,2014-06-24,-7,2014-07-01T00:00:00Z,H,2014-12-30T23:59:59Z,H,183,,2014-12-30,COMPLETED,,2014-07-01,,,,,,,,2014-12-30,Y,White,>64,NA,,,,
115,CDISCPILOT01,LB,01-701-1034,235,ALT,Alanine Aminotransferase,CHEMISTRY,23,U/L,6,32,23,23,U/L,6,32,NORMAL,,11,WEEK 20,140,2014-11-18T12:23,141,2014-07-01,2014-12-30,Xanomeline High Dose,Xanomeline High Dose,2014-11-18,141,ALT,Alanine Aminotransferase (U/L),3,CHEMISTRY,23,,6,32,,Week 20,11,Y,NORMAL,LAST,,15,,NORMAL,8,53.333333333333336,,Alanine aminotransferase increased,,0,0,,0,0,1.5333333333333334,3.8333333333333335,0.71875,NORMAL to NORMAL,0 to 0,Y,,Xanomeline High Dose,Xanomeline High Dose,36,1034,2014-07-01,2014-12-30,2014-07-01,2014-12-30,,2014-12-30T09:50,,,701,77,YEARS,F,WHITE,NOT HISPANIC OR LATINO,Xan_Hi,Xanomeline High Dose,Xan_Hi,Xanomeline High Dose,USA,2014-06-24,-7,2014-07-01T00:00:00Z,H,2014-12-30T23:59:59Z,H,183,,2014-12-30,COMPLETED,,2014-07-01,,,,,,,,2014-12-30,Y,White,>64,NA,,,,
116,CDISCPILOT01,LB,01-701-1034,266,ALT,Alanine Aminotransferase,CHEMISTRY,15,U/L,6,32,15,15,U/L,6,32,NORMAL,,12,WEEK 24,168,2014-12-17T14:27,170,2014-07-01,2014-12-30,Xanomeline High Dose,Xanomeline High Dose,2014-12-17,170,ALT,Alanine Aminotransferase (U/L),3,CHEMISTRY,15,,6,32,,Week 24,12,Y,NORMAL,LAST,,15,,NORMAL,0,0,,Alanine aminotransferase increased,,0,0,,0,0,1,2.5,0.46875,NORMAL to NORMAL,0 to 0,Y,,Xanomeline High Dose,Xanomeline High Dose,37,1034,2014-07-01,2014-12-30,2014-07-01,2014-12-30,,2014-12-30T09:50,,,701,77,YEARS,F,WHITE,NOT HISPANIC OR LATINO,Xan_Hi,Xanomeline High Dose,Xan_Hi,Xanomeline High Dose,USA,2014-06-24,-7,2014-07-01T00:00:00Z,H,2014-12-30T23:59:59Z,H,183,,2014-12-30,COMPLETED,,2014-07-01,,,,,,,,2014-12-30,Y,White,>64,NA,,,,
117,CDISCPILOT01,LB,01-701-1034,302,ALT,Alanine Aminotransferase,CHEMISTRY,18,U/L,6,32,18,18,U/L,6,32,NORMAL,,13,WEEK 26,182,2014-12-30T09:50,183,2014-07-01,2014-12-30,Xanomeline High Dose,Xanomeline High Dose,2014-12-30,183,ALT,Alanine Aminotransferase (U/L),3,CHEMISTRY,18,,6,32,,Week 26,13,Y,NORMAL,LAST,,15,,NORMAL,3,20,,Alanine aminotransferase increased,,0,0,,0,0,1.2,3,0.5625,NORMAL to NORMAL,0 to 0,Y,Y,Xanomeline High Dose,Xanomeline High Dose,38,1034,2014-07-01,2014-12-30,2014-07-01,2014-12-30,,2014-12-30T09:50,,,701,77,YEARS,F,WHITE,NOT HISPANIC OR LATINO,Xan_Hi,Xanomeline High Dose,Xan_Hi,Xanomeline High Dose,USA,2014-06-24,-7,2014-07-01T00:00:00Z,H,2014-12-30T23:59:59Z,H,183,,2014-12-30,COMPLETED,,2014-07-01,,,,,,,,2014-12-30,Y,White,>64,NA,,,,
118,CDISCPILOT01,LB,01-701-1034,302,ALT,Alanine Aminotransferase,CHEMISTRY,18,U/L,6,32,18,18,U/L,6,32,NORMAL,,13,WEEK 26,182,2014-12-30T09:50,183,2014-07-01,2014-12-30,Xanomeline High Dose,Xanomeline High Dose,2014-12-30,183,ALT,Alanine Aminotransferase (U/L),3,CHEMISTRY,18,,6,32,LOV,POST-BASELINE LAST,9999,Y,NORMAL,LAST,,15,,NORMAL,3,20,,Alanine aminotransferase increased,,0,0,,0,0,1.2,3,0.5625,NORMAL to NORMAL,0 to 0,Y,Y,Xanomeline High Dose,Xanomeline High Dose,39,1034,2014-07-01,2014-12-30,2014-07-01,2014-12-30,,2014-12-30T09:50,,,701,77,YEARS,F,WHITE,NOT HISPANIC OR LATINO,Xan_Hi,Xanomeline High Dose,Xan_Hi,Xanomeline High Dose,USA,2014-06-24,-7,2014-07-01T00:00:00Z,H,2014-12-30T23:59:59Z,H,183,,2014-12-30,COMPLETED,,2014-07-01,,,,,,,,2014-12-30,Y,White,>64,NA,,,,
119,CDISCPILOT01,LB,01-701-1034,5,AST,Aspartate Aminotransferase,CHEMISTRY,23,U/L,9,34,23,23,U/L,9,34,NORMAL,Y,1,SCREENING 1,-7,2014-06-24T15:30,-7,2014-07-01,2014-12-30,Xanomeline High Dose,Xanomeline High Dose,2014-06-24,-7,AST,Aspartate Aminotransferase (U/L),5,CHEMISTRY,23,,9,34,,Baseline,0,,NORMAL,LAST,Y,23,,NORMAL,,,,Aspartate aminotransferase increased,,0,0,,0,0,1,2.5555555555555554,0.6764705882352942,NORMAL to NORMAL,0 to 0,,,Xanomeline High Dose,Xanomeline High Dose,47,1034,2014-07-01,2014-12-30,2014-07-01,2014-12-30,,2014-12-30T09:50,,,701,77,YEARS,F,WHITE,NOT HISPANIC OR LATINO,Xan_Hi,Xanomeline High Dose,Xan_Hi,Xanomeline High Dose,USA,2014-06-24,-7,2014-07-01T00:00:00Z,H,2014-12-30T23:59:59Z,H,183,,2014-12-30,COMPLETED,,2014-07-01,,,,,,,,2014-12-30,Y,White,>64,NA,,,,
120,CDISCPILOT01,LB,01-701-1034,42,AST,Aspartate Aminotransferase,CHEMISTRY,23,U/L,9,34,23,23,U/L,9,34,NORMAL,,4,WEEK 2,14,2014-07-15T09:25,15,2014-07-01,2014-12-30,Xanomeline High Dose,Xanomeline High Dose,2014-07-15,15,AST,Aspartate Aminotransferase (U/L),5,CHEMISTRY,23,,9,34,,Week 2,4,Y,NORMAL,LAST,,23,,NORMAL,0,0,,Aspartate aminotransferase increased,,0,0,,0,0,1,2.5555555555555554,0.6764705882352942,NORMAL to NORMAL,0 to 0,Y,,Xanomeline High Dose,Xanomeline High Dose,48,1034,2014-07-01,2014-12-30,2014-07-01,2014-12-30,,2014-12-30T09:50,,,701,77,YEARS,F,WHITE,NOT HISPANIC OR LATINO,Xan_Hi,Xanomeline High Dose,Xan_Hi,Xanomeline High Dose,USA,2014-06-24,-7,2014-07-01T00:00:00Z,H,2014-12-30T23:59:59Z,H,183,,2014-12-30,COMPLETED,,2014-07-01,,,,,,,,2014-12-30,Y,White,>64,NA,,,,
121,CDISCPILOT01,LB,01-701-1034,79,AST,Aspartate Aminotransferase,CHEMISTRY,25,U/L,9,34,25,25,U/L,9,34,NORMAL,,5,WEEK 4,28,2014-07-29T08:40,29,2014-07-01,2014-12-30,Xanomeline High Dose,Xanomeline High Dose,2014-07-29,29,AST,Aspartate Aminotransferase (U/L),5,CHEMISTRY,25,,9,34,,Week 4,5,Y,NORMAL,LAST,,23,,NORMAL,2,8.695652173913043,,Aspartate aminotransferase increased,,0,0,,0,0,1.0869565217391304,2.7777777777777777,0.7352941176470589,NORMAL to NORMAL,0 to 0,Y,,Xanomeline High Dose,Xanomeline High Dose,49,1034,2014-07-01,2014-12-30,2014-07-01,2014-12-30,,2014-12-30T09:50,,,701,77,YEARS,F,WHITE,NOT HISPANIC OR LATINO,Xan_Hi,Xanomeline High Dose,Xan_Hi,Xanomeline High Dose,USA,2014-06-24,-7,2014-07-01T00:00:00Z,H,2014-12-30T23:59:59Z,H,183,,2014-12-30,COMPLETED,,2014-07-01,,,,,,,,2014-12-30,Y,White,>64,NA,,,,
122,CDISCPILOT01,LB,01-701-1034,110,AST,Aspartate Aminotransferase,CHEMISTRY,19,U/L,9,34,19,19,U/L,9,34,NORMAL,,7,WEEK 6,42,2014-08-11T13:15,42,2014-07-01,2014-12-30,Xanomeline High Dose,Xanomeline High Dose,2014-08-11,42,AST,Aspartate Aminotransferase (U/L),5,CHEMISTRY,19,,9,34,,Week 6,7,Y,NORMAL,LAST,,23,,NORMAL,-4,-17.391304347826086,,Aspartate aminotransferase increased,,0,0,,0,0,0.8260869565217391,2.111111111111111,0.5588235294117647,NORMAL to NORMAL,0 to 0,Y,,Xanomeline High Dose,Xanomeline High Dose,50,1034,2014-07-01,2014-12-30,2014-07-01,2014-12-30,,2014-12-30T09:50,,,701,77,YEARS,F,WHITE,NOT HISPANIC OR LATINO,Xan_Hi,Xanomeline High Dose,Xan_Hi,Xanomeline High Dose,USA,2014-06-24,-7,2014-07-01T00:00:00Z,H,2014-12-30T23:59:59Z,H,183,,2014-12-30,COMPLETED,,2014-07-01,,,,,,,,2014-12-30,Y,White,>64,NA,,,,
123,CDISCPILOT01,LB,01-701-1034,140,AST,Aspartate Aminotransferase,CHEMISTRY,26,U/L,9,34,26,26,U/L,9,34,NORMAL,,8,WEEK 8,56,2014-08-26T09:57,57,2014-07-01,2014-12-30,Xanomeline High Dose,Xanomeline High Dose,2014-08-26,57,AST,Aspartate Aminotransferase (U/L),5,CHEMISTRY,26,,9,34,,Week 8,8,Y,NORMAL,LAST,,23,,NORMAL,3,13.043478260869565,,Aspartate aminotransferase increased,,0,0,,0,0,1.1304347826086956,2.888888888888889,0.7647058823529411,NORMAL to NORMAL,0 to 0,Y,,Xanomeline High Dose,Xanomeline High Dose,51,1034,2014-07-01,2014-12-30,2014-07-01,2014-12-30,,2014-12-30T09:50,,,701,77,YEARS,F,WHITE,NOT HISPANIC OR LATINO,Xan_Hi,Xanomeline High Dose,Xan_Hi,Xanomeline High Dose,USA,2014-06-24,-7,2014-07-01T00:00:00Z,H,2014-12-30T23:59:59Z,H,183,,2014-12-30,COMPLETED,,2014-07-01,,,,,,,,2014-12-30,Y,White,>64,NA,,,,
124,CDISCPILOT01,LB,01-701-1034,140,AST,Aspartate Aminotransferase,CHEMISTRY,26,U/L,9,34,26,26,U/L,9,34,NORMAL,,8,WEEK 8,56,2014-08-26T09:57,57,2014-07-01,2014-12-30,Xanomeline High Dose,Xanomeline High Dose,2014-08-26,57,AST,Aspartate Aminotransferase (U/L),5,CHEMISTRY,26,,9,34,MAXIMUM,POST-BASELINE MAXIMUM,9998,Y,NORMAL,LAST,,23,,NORMAL,3,13.043478260869565,,Aspartate aminotransferase increased,,0,0,,0,0,1.1304347826086956,2.888888888888889,0.7647058823529411,NORMAL to NORMAL,0 to 0,Y,,Xanomeline High Dose,Xanomeline High Dose,52,1034,2014-07-01,2014-12-30,2014-07-01,2014-12-30,,2014-12-30T09:50,,,701,77,YEARS,F,WHITE,NOT HISPANIC OR LATINO,Xan_Hi,Xanomeline High Dose,Xan_Hi,Xanomeline High Dose,USA,2014-06-24,-7,2014-07-01T00:00:00Z,H,2014-12-30T23:59:59Z,H,183,,2014-12-30,COMPLETED,,2014-07-01,,,,,,,,2014-12-30,Y,White,>64,NA,,,,
125,CDISCPILOT01,LB,01-701-1034,170,AST,Aspartate Aminotransferase,CHEMISTRY,23,U/L,9,34,23,23,U/L,9,34,NORMAL,,9,WEEK 12,84,2014-09-25T15:40,87,2014-07-01,2014-12-30,Xanomeline High Dose,Xanomeline High Dose,2014-09-25,87,AST,Aspartate Aminotransferase (U/L),5,CHEMISTRY,23,,9,34,,Week 12,9,Y,NORMAL,LAST,,23,,NORMAL,0,0,,Aspartate aminotransferase increased,,0,0,,0,0,1,2.5555555555555554,0.6764705882352942,NORMAL to NORMAL,0 to 0,Y,,Xanomeline High Dose,Xanomeline High Dose,53,1034,2014-07-01,2014-12-30,2014-07-01,2014-12-30,,2014-12-30T09:50,,,701,77,YEARS,F,WHITE,NOT HISPANIC OR LATINO,Xan_Hi,Xanomeline High Dose,Xan_Hi,Xanomeline High Dose,USA,2014-06-24,-7,2014-07-01T00:00:00Z,H,2014-12-30T23:59:59Z,H,183,,2014-12-30,COMPLETED,,2014-07-01,,,,,,,,2014-12-30,Y,White,>64,NA,,,,
126,CDISCPILOT01,LB,01-701-1034,205,AST,Aspartate Aminotransferase,CHEMISTRY,21,U/L,9,34,21,21,U/L,9,34,NORMAL,,10,WEEK 16,112,2014-10-21T09:52,113,2014-07-01,2014-12-30,Xanomeline High Dose,Xanomeline High Dose,2014-10-21,113,AST,Aspartate Aminotransferase (U/L),5,CHEMISTRY,21,,9,34,,Week 16,10,Y,NORMAL,LAST,,23,,NORMAL,-2,-8.695652173913043,,Aspartate aminotransferase increased,,0,0,,0,0,0.9130434782608695,2.3333333333333335,0.6176470588235294,NORMAL to NORMAL,0 to 0,Y,,Xanomeline High Dose,Xanomeline High Dose,54,1034,2014-07-01,2014-12-30,2014-07-01,2014-12-30,,2014-12-30T09:50,,,701,77,YEARS,F,WHITE,NOT HISPANIC OR LATINO,Xan_Hi,Xanomeline High Dose,Xan_Hi,Xanomeline High Dose,USA,2014-06-24,-7,2014-07-01T00:00:00Z,H,2014-12-30T23:59:59Z,H,183,,2014-12-30,COMPLETED,,2014-07-01,,,,,,,,2014-12-30,Y,White,>64,NA,,,,
127,CDISCPILOT01,LB,01-701-1034,236,AST,Aspartate Aminotransferase,CHEMISTRY,22,U/L,9,34,22,22,U/L,9,34,NORMAL,,11,WEEK 20,140,2014-11-18T12:23,141,2014-07-01,2014-12-30,Xanomeline High Dose,Xanomeline High Dose,2014-11-18,141,AST,Aspartate Aminotransferase (U/L),5,CHEMISTRY,22,,9,34,,Week 20,11,Y,NORMAL,LAST,,23,,NORMAL,-1,-4.3478260869565215,,Aspartate aminotransferase increased,,0,0,,0,0,0.9565217391304348,2.4444444444444446,0.6470588235294118,NORMAL to NORMAL,0 to 0,Y,,Xanomeline High Dose,Xanomeline High Dose,55,1034,2014-07-01,2014-12-30,2014-07-01,2014-12-30,,2014-12-30T09:50,,,701,77,YEARS,F,WHITE,NOT HISPANIC OR LATINO,Xan_Hi,Xanomeline High Dose,Xan_Hi,Xanomeline High Dose,USA,2014-06-24,-7,2014-07-01T00:00:00Z,H,2014-12-30T23:59:59Z,H,183,,2014-12-30,COMPLETED,,2014-07-01,,,,,,,,2014-12-30,Y,White,>64,NA,,,,
128,CDISCPILOT01,LB,01-701-1034,267,AST,Aspartate Aminotransferase,CHEMISTRY,17,U/L,9,34,17,17,U/L,9,34,NORMAL,,12,WEEK 24,168,2014-12-17T14:27,170,2014-07-01,2014-12-30,Xanomeline High Dose,Xanomeline High Dose,2014-12-17,170,AST,Aspartate Aminotransferase (U/L),5,CHEMISTRY,17,,9,34,,Week 24,12,Y,NORMAL,LAST,,23,,NORMAL,-6,-26.08695652173913,,Aspartate aminotransferase increased,,0,0,,0,0,0.7391304347826086,1.8888888888888888,0.5,NORMAL to NORMAL,0 to 0,Y,,Xanomeline High Dose,Xanomeline High Dose,56,1034,2014-07-01,2014-12-30,2014-07-01,2014-12-30,,2014-12-30T09:50,,,701,77,YEARS,F,WHITE,NOT HISPANIC OR LATINO,Xan_Hi,Xanomeline High Dose,Xan_Hi,Xanomeline High Dose,USA,2014-06-24,-7,2014-07-01T00:00:00Z,H,2014-12-30T23:59:59Z,H,183,,2014-12-30,COMPLETED,,2014-07-01,,,,,,,,2014-12-30,Y,White,>64,NA,,,,
129,CDISCPILOT01,LB,01-701-1034,267,AST,Aspartate Aminotransferase,CHEMISTRY,17,U/L,9,34,17,17,U/L,9,34,NORMAL,,12,WEEK 24,168,2014-12-17T14:27,170,2014-07-01,2014-12-30,Xanomeline High Dose,Xanomeline High Dose,2014-12-17,170,AST,Aspartate Aminotransferase (U/L),5,CHEMISTRY,17,,9,34,MINIMUM,POST-BASELINE MINIMUM,9997,Y,NORMAL,LAST,,23,,NORMAL,-6,-26.08695652173913,,Aspartate aminotransferase increased,,0,0,,0,0,0.7391304347826086,1.8888888888888888,0.5,NORMAL to NORMAL,0 to 0,Y,,Xanomeline High Dose,Xanomeline High Dose,57,1034,2014-07-01,2014-12-30,2014-07-01,2014-12-30,,2014-12-30T09:50,,,701,77,YEARS,F,WHITE,NOT HISPANIC OR LATINO,Xan_Hi,Xanomeline High Dose,Xan_Hi,Xanomeline High Dose,USA,2014-06-24,-7,2014-07-01T00:00:00Z,H,2014-12-30T23:59:59Z,H,183,,2014-12-30,COMPLETED,,2014-07-01,,,,,,,,2014-12-30,Y,White,>64,NA,,,,
130,CDISCPILOT01,LB,01-701-1034,304,AST,Aspartate Aminotransferase,CHEMISTRY,21,U/L,9,34,21,21,U/L,9,34,NORMAL,,13,WEEK 26,182,2014-12-30T09:50,183,2014-07-01,2014-12-30,Xanomeline High Dose,Xanomeline High Dose,2014-12-30,183,AST,Aspartate Aminotransferase (U/L),5,CHEMISTRY,21,,9,34,,Week 26,13,Y,NORMAL,LAST,,23,,NORMAL,-2,-8.695652173913043,,Aspartate aminotransferase increased,,0,0,,0,0,0.9130434782608695,2.3333333333333335,0.6176470588235294,NORMAL to NORMAL,0 to 0,Y,Y,Xanomeline High Dose,Xanomeline High Dose,58,1034,2014-07-01,2014-12-30,2014-07-01,2014-12-30,,2014-12-30T09:50,,,701,77,YEARS,F,WHITE,NOT HISPANIC OR LATINO,Xan_Hi,Xanomeline High Dose,Xan_Hi,Xanomeline High Dose,USA,2014-06-24,-7,2014-07-01T00:00:00Z,H,2014-12-30T23:59:59Z,H,183,,2014-12-30,COMPLETED,,2014-07-01,,,,,,,,2014-12-30,Y,White,>64,NA,,,,
131,CDISCPILOT01,LB,01-701-1034,304,AST,Aspartate Aminotransferase,CHEMISTRY,21,U/L,9,34,21,21,U/L,9,34,NORMAL,,13,WEEK 26,182,2014-12-30T09:50,183,2014-07-01,2014-12-30,Xanomeline High Dose,Xanomeline High Dose,2014-12-30,183,AST,Aspartate Aminotransferase (U/L),5,CHEMISTRY,21,,9,34,LOV,POST-BASELINE LAST,9999,Y,NORMAL,LAST,,23,,NORMAL,-2,-8.695652173913043,,Aspartate aminotransferase increased,,0,0,,0,0,0.9130434782608695,2.3333333333333335,0.6176470588235294,NORMAL to NORMAL,0 to 0,Y,Y,Xanomeline High Dose,Xanomeline High Dose,59,1034,2014-07-01,2014-12-30,2014-07-01,2014-12-30,,2014-12-30T09:50,,,701,77,YEARS,F,WHITE,NOT HISPANIC OR LATINO,Xan_Hi,Xanomeline High Dose,Xan_Hi,Xanomeline High Dose,USA,2014-06-24,-7,2014-07-01T00:00:00Z,H,2014-12-30T23:59:59Z,H,183,,2014-12-30,COMPLETED,,2014-07-01,,,,,,,,2014-12-30,Y,White,>64,NA,,,,
132,CDISCPILOT01,LB,01-701-1034,7,BILI,Bilirubin,CHEMISTRY,0.6,mg/dL,0.2,1.2,10.26,10.26,umol/L,3,21,NORMAL,Y,1,SCREENING 1,-7,2014-06-24T15:30,-7,2014-07-01,2014-12-30,Xanomeline High Dose,Xanomeline High Dose,2014-06-24,-7,BILI,Bilirubin (umol/L),8,CHEMISTRY,10.26,,3,21,,Baseline,0,,NORMAL,LAST,Y,10.26,,NORMAL,,,,Blood bilirubin increased,,0,0,,0,0,1,3.42,0.48857142857142855,NORMAL to NORMAL,0 to 0,,,Xanomeline High Dose,Xanomeline High Dose,78,1034,2014-07-01,2014-12-30,2014-07-01,2014-12-30,,2014-12-30T09:50,,,701,77,YEARS,F,WHITE,NOT HISPANIC OR LATINO,Xan_Hi,Xanomeline High Dose,Xan_Hi,Xanomeline High Dose,USA,2014-06-24,-7,2014-07-01T00:00:00Z,H,2014-12-30T23:59:59Z,H,183,,2014-12-30,COMPLETED,,2014-07-01,,,,,,,,2014-12-30,Y,White,>64,NA,,,,
133,CDISCPILOT01,LB,01-701-1034,44,BILI,Bilirubin,CHEMISTRY,0.4,mg/dL,0.2,1.2,6.84,6.84,umol/L,3,21,NORMAL,,4,WEEK 2,14,2014-07-15T09:25,15,2014-07-01,2014-12-30,Xanomeline High Dose,Xanomeline High Dose,2014-07-15,15,BILI,Bilirubin (umol/L),8,CHEMISTRY,6.84,,3,21,,Week 2,4,Y,NORMAL,LAST,,10.26,,NORMAL,-3.42,-33.33333333333333,,Blood bilirubin increased,,0,0,,0,0,0.6666666666666666,2.28,0.32571428571428573,NORMAL to NORMAL,0 to 0,Y,,Xanomeline High Dose,Xanomeline High Dose,79,1034,2014-07-01,2014-12-30,2014-07-01,2014-12-30,,2014-12-30T09:50,,,701,77,YEARS,F,WHITE,NOT HISPANIC OR LATINO,Xan_Hi,Xanomeline High Dose,Xan_Hi,Xanomeline High Dose,USA,2014-06-24,-7,2014-07-01T00:00:00Z,H,2014-12-30T23:59:59Z,H,183,,2014-12-30,COMPLETED,,2014-07-01,,,,,,,,2014-12-30,Y,White,>64,NA,,,,
134,CDISCPILOT01,LB,01-701-1034,81,BILI,Bilirubin,CHEMISTRY,0.4,mg/dL,0.2,1.2,6.84,6.84,umol/L,3,21,NORMAL,,5,WEEK 4,28,2014-07-29T08:40,29,2014-07-01,2014-12-30,Xanomeline High Dose,Xanomeline High Dose,2014-07-29,29,BILI,Bilirubin (umol/L),8,CHEMISTRY,6.84,,3,21,,Week 4,5,Y,NORMAL,LAST,,10.26,,NORMAL,-3.42,-33.33333333333333,,Blood bilirubin increased,,0,0,,0,0,0.6666666666666666,2.28,0.32571428571428573,NORMAL to NORMAL,0 to 0,Y,,Xanomeline High Dose,Xanomeline High Dose,80,1034,2014-07-01,2014-12-30,2014-07-01,2014-12-30,,2014-12-30T09:50,,,701,77,YEARS,F,WHITE,NOT HISPANIC OR LATINO,Xan_Hi,Xanomeline High Dose,Xan_Hi,Xanomeline High Dose,USA,2014-06-24,-7,2014-07-01T00:00:00Z,H,2014-12-30T23:59:59Z,H,183,,2014-12-30,COMPLETED,,2014-07-01,,,,,,,,2014-12-30,Y,White,>64,NA,,,,
135,CDISCPILOT01,LB,01-701-1034,112,BILI,Bilirubin,CHEMISTRY,0.4,mg/dL,0.2,1.2,6.84,6.84,umol/L,3,21,NORMAL,,7,WEEK 6,42,2014-08-11T13:15,42,2014-07-01,2014-12-30,Xanomeline High Dose,Xanomeline High Dose,2014-08-11,42,BILI,Bilirubin (umol/L),8,CHEMISTRY,6.84,,3,21,,Week 6,7,Y,NORMAL,LAST,,10.26,,NORMAL,-3.42,-33.33333333333333,,Blood bilirubin increased,,0,0,,0,0,0.6666666666666666,2.28,0.32571428571428573,NORMAL to NORMAL,0 to 0,Y,,Xanomeline High Dose,Xanomeline High Dose,81,1034,2014-07-01,2014-12-30,2014-07-01,2014-12-30,,2014-12-30T09:50,,,701,77,YEARS,F,WHITE,NOT HISPANIC OR LATINO,Xan_Hi,Xanomeline High Dose,Xan_Hi,Xanomeline High Dose,USA,2014-06-24,-7,2014-07-01T00:00:00Z,H,2014-12-30T23:59:59Z,H,183,,2014-12-30,COMPLETED,,2014-07-01,,,,,,,,2014-12-30,Y,White,>64,NA,,,,
136,CDISCPILOT01,LB,01-701-1034,142,BILI,Bilirubin,CHEMISTRY,0.5,mg/dL,0.2,1.2,8.55,8.549999999999999,umol/L,3,21,NORMAL,,8,WEEK 8,56,2014-08-26T09:57,57,2014-07-01,2014-12-30,Xanomeline High Dose,Xanomeline High Dose,2014-08-26,57,BILI,Bilirubin (umol/L),8,CHEMISTRY,8.549999999999999,,3,21,,Week 8,8,Y,NORMAL,LAST,,10.26,,NORMAL,-1.7100000000000009,-16.666666666666675,,Blood bilirubin increased,,0,0,,0,0,0.8333333333333333,2.8499999999999996,0.4071428571428571,NORMAL to NORMAL,0 to 0,Y,,Xanomeline High Dose,Xanomeline High Dose,82,1034,2014-07-01,2014-12-30,2014-07-01,2014-12-30,,2014-12-30T09:50,,,701,77,YEARS,F,WHITE,NOT HISPANIC OR LATINO,Xan_Hi,Xanomeline High Dose,Xan_Hi,Xanomeline High Dose,USA,2014-06-24,-7,2014-07-01T00:00:00Z,H,2014-12-30T23:59:59Z,H,183,,2014-12-30,COMPLETED,,2014-07-01,,,,,,,,2014-12-30,Y,White,>64,NA,,,,
137,CDISCPILOT01,LB,01-701-1034,142,BILI,Bilirubin,CHEMISTRY,0.5,mg/dL,0.2,1.2,8.55,8.549999999999999,umol/L,3,21,NORMAL,,8,WEEK 8,56,2014-08-26T09:57,57,2014-07-01,2014-12-30,Xanomeline High Dose,Xanomeline High Dose,2014-08-26,57,BILI,Bilirubin (umol/L),8,CHEMISTRY,8.549999999999999,,3,21,MAXIMUM,POST-BASELINE MAXIMUM,9998,Y,NORMAL,LAST,,10.26,,NORMAL,-1.7100000000000009,-16.666666666666675,,Blood bilirubin increased,,0,0,,0,0,0.8333333333333333,2.8499999999999996,0.4071428571428571,NORMAL to NORMAL,0 to 0,Y,,Xanomeline High Dose,Xanomeline High Dose,83,1034,2014-07-01,2014-12-30,2014-07-01,2014-12-30,,2014-12-30T09:50,,,701,77,YEARS,F,WHITE,NOT HISPANIC OR LATINO,Xan_Hi,Xanomeline High Dose,Xan_Hi,Xanomeline High Dose,USA,2014-06-24,-7,2014-07-01T00:00:00Z,H,2014-12-30T23:59:59Z,H,183,,2014-12-30,COMPLETED,,2014-07-01,,,,,,,,2014-12-30,Y,White,>64,NA,,,,
138,CDISCPILOT01,LB,01-701-1034,172,BILI,Bilirubin,CHEMISTRY,0.5,mg/dL,0.2,1.2,8.55,8.549999999999999,umol/L,3,21,NORMAL,,9,WEEK 12,84,2014-09-25T15:40,87,2014-07-01,2014-12-30,Xanomeline High Dose,Xanomeline High Dose,2014-09-25,87,BILI,Bilirubin (umol/L),8,CHEMISTRY,8.549999999999999,,3,21,,Week 12,9,Y,NORMAL,LAST,,10.26,,NORMAL,-1.7100000000000009,-16.666666666666675,,Blood bilirubin increased,,0,0,,0,0,0.8333333333333333,2.8499999999999996,0.4071428571428571,NORMAL to NORMAL,0 to 0,Y,,Xanomeline High Dose,Xanomeline High Dose,84,1034,2014-07-01,2014-12-30,2014-07-01,2014-12-30,,2014-12-30T09:50,,,701,77,YEARS,F,WHITE,NOT HISPANIC OR LATINO,Xan_Hi,Xanomeline High Dose,Xan_Hi,Xanomeline High Dose,USA,2014-06-24,-7,2014-07-01T00:00:00Z,H,2014-12-30T23:59:59Z,H,183,,2014-12-30,COMPLETED,,2014-07-01,,,,,,,,2014-12-30,Y,White,>64,NA,,,,
139,CDISCPILOT01,LB,01-701-1034,207,BILI,Bilirubin,CHEMISTRY,0.4,mg/dL,0.2,1.2,6.84,6.84,umol/L,3,21,NORMAL,,10,WEEK 16,112,2014-10-21T09:52,113,2014-07-01,2014-12-30,Xanomeline High Dose,Xanomeline High Dose,2014-10-21,113,BILI,Bilirubin (umol/L),8,CHEMISTRY,6.84,,3,21,,Week 16,10,Y,NORMAL,LAST,,10.26,,NORMAL,-3.42,-33.33333333333333,,Blood bilirubin increased,,0,0,,0,0,0.6666666666666666,2.28,0.32571428571428573,NORMAL to NORMAL,0 to 0,Y,,Xanomeline High Dose,Xanomeline High Dose,85,1034,2014-07-01,2014-12-30,2014-07-01,2014-12-30,,2014-12-30T09:50,,,701,77,YEARS,F,WHITE,NOT HISPANIC OR LATINO,Xan_Hi,Xanomeline High Dose,Xan_Hi,Xanomeline High Dose,USA,2014-06-24,-7,2014-07-01T00:00:00Z,H,2014-12-30T23:59:59Z,H,183,,2014-12-30,COMPLETED,,2014-07-01,,,,,,,,2014-12-30,Y,White,>64,NA,,,,
140,CDISCPILOT01,LB,01-701-1034,238,BILI,Bilirubin,CHEMISTRY,0.3,mg/dL,0.2,1.2,5.13,5.13,umol/L,3,21,NORMAL,,11,WEEK 20,140,2014-11-18T12:23,141,2014-07-01,2014-12-30,Xanomeline High Dose,Xanomeline High Dose,2014-11-18,141,BILI,Bilirubin (umol/L),8,CHEMISTRY,5.13,,3,21,,Week 20,11,Y,NORMAL,LAST,,10.26,,NORMAL,-5.13,-50,,Blood bilirubin increased,,0,0,,0,0,0.5,1.71,0.24428571428571427,NORMAL to NORMAL,0 to 0,Y,,Xanomeline High Dose,Xanomeline High Dose,86,1034,2014-07-01,2014-12-30,2014-07-01,2014-12-30,,2014-12-30T09:50,,,701,77,YEARS,F,WHITE,NOT HISPANIC OR LATINO,Xan_Hi,Xanomeline High Dose,Xan_Hi,Xanomeline High Dose,USA,2014-06-24,-7,2014-07-01T00:00:00Z,H,2014-12-30T23:59:59Z,H,183,,2014-12-30,COMPLETED,,2014-07-01,,,,,,,,2014-12-30,Y,White,>64,NA,,,,
141,CDISCPILOT01,LB,01-701-1034,238,BILI,Bilirubin,CHEMISTRY,0.3,mg/dL,0.2,1.2,5.13,5.13,umol/L,3,21,NORMAL,,11,WEEK 20,140,2014-11-18T12:23,141,2014-07-01,2014-12-30,Xanomeline High Dose,Xanomeline High Dose,2014-11-18,141,BILI,Bilirubin (umol/L),8,CHEMISTRY,5.13,,3,21,MINIMUM,POST-BASELINE MINIMUM,9997,Y,NORMAL,LAST,,10.26,,NORMAL,-5.13,-50,,Blood bilirubin increased,,0,0,,0,0,0.5,1.71,0.24428571428571427,NORMAL to NORMAL,0 to 0,Y,,Xanomeline High Dose,Xanomeline High Dose,87,1034,2014-07-01,2014-12-30,2014-07-01,2014-12-30,,2014-12-30T09:50,,,701,77,YEARS,F,WHITE,NOT HISPANIC OR LATINO,Xan_Hi,Xanomeline High Dose,Xan_Hi,Xanomeline High Dose,USA,2014-06-24,-7,2014-07-01T00:00:00Z,H,2014-12-30T23:59:59Z,H,183,,2014-12-30,COMPLETED,,2014-07-01,,,,,,,,2014-12-30,Y,White,>64,NA,,,,
142,CDISCPILOT01,LB,01-701-1034,269,BILI,Bilirubin,CHEMISTRY,0.4,mg/dL,0.2,1.2,6.84,6.84,umol/L,3,21,NORMAL,,12,WEEK 24,168,2014-12-17T14:27,170,2014-07-01,2014-12-30,Xanomeline High Dose,Xanomeline High Dose,2014-12-17,170,BILI,Bilirubin (umol/L),8,CHEMISTRY,6.84,,3,21,,Week 24,12,Y,NORMAL,LAST,,10.26,,NORMAL,-3.42,-33.33333333333333,,Blood bilirubin increased,,0,0,,0,0,0.6666666666666666,2.28,0.32571428571428573,NORMAL to NORMAL,0 to 0,Y,,Xanomeline High Dose,Xanomeline High Dose,88,1034,2014-07-01,2014-12-30,2014-07-01,2014-12-30,,2014-12-30T09:50,,,701,77,YEARS,F,WHITE,NOT HISPANIC OR LATINO,Xan_Hi,Xanomeline High Dose,Xan_Hi,Xanomeline High Dose,USA,2014-06-24,-7,2014-07-01T00:00:00Z,H,2014-12-30T23:59:59Z,H,183,,2014-12-30,COMPLETED,,2014-07-01,,,,,,,,2014-12-30,Y,White,>64,NA,,,,
143,CDISCPILOT01,LB,01-701-1034,306,BILI,Bilirubin,CHEMISTRY,0.4,mg/dL,0.2,1.2,6.84,6.84,umol/L,3,21,NORMAL,,13,WEEK 26,182,2014-12-30T09:50,183,2014-07-01,2014-12-30,Xanomeline High Dose,Xanomeline High Dose,2014-12-30,183,BILI,Bilirubin (umol/L),8,CHEMISTRY,6.84,,3,21,,Week 26,13,Y,NORMAL,LAST,,10.26,,NORMAL,-3.42,-33.33333333333333,,Blood bilirubin increased,,0,0,,0,0,0.6666666666666666,2.28,0.32571428571428573,NORMAL to NORMAL,0 to 0,Y,Y,Xanomeline High Dose,Xanomeline High Dose,89,1034,2014-07-01,2014-12-30,2014-07-01,2014-12-30,,2014-12-30T09:50,,,701,77,YEARS,F,WHITE,NOT HISPANIC OR LATINO,Xan_Hi,Xanomeline High Dose,Xan_Hi,Xanomeline High Dose,USA,2014-06-24,-7,2014-07-01T00:00:00Z,H,2014-12-30T23:59:59Z,H,183,,2014-12-30,COMPLETED,,2014-07-01,,,,,,,,2014-12-30,Y,White,>64,NA,,,,
144,CDISCPILOT01,LB,01-701-1034,306,BILI,Bilirubin,CHEMISTRY,0.4,mg/dL,0.2,1.2,6.84,6.84,umol/L,3,21,NORMAL,,13,WEEK 26,182,2014-12-30T09:50,183,2014-07-01,2014-12-30,Xanomeline High Dose,Xanomeline High Dose,2014-12-30,183,BILI,Bilirubin (umol/L),8,CHEMISTRY,6.84,,3,21,LOV,POST-BASELINE LAST,9999,Y,NORMAL,LAST,,10.26,,NORMAL,-3.42,-33.33333333333333,,Blood bilirubin increased,,0,0,,0,0,0.6666666666666666,2.28,0.32571428571428573,NORMAL to NORMAL,0 to 0,Y,Y,Xanomeline High Dose,Xanomeline High Dose,90,1034,2014-07-01,2014-12-30,2014-07-01,2014-12-30,,2014-12-30T09:50,,,701,77,YEARS,F,WHITE,NOT HISPANIC OR LATINO,Xan_Hi,Xanomeline High Dose,Xan_Hi,Xanomeline High Dose,USA,2014-06-24,-7,2014-07-01T00:00:00Z,H,2014-12-30T23:59:59Z,H,183,,2014-12-30,COMPLETED,,2014-07-01,,,,,,,,2014-12-30,Y,White,>64,NA,,,,
145,CDISCPILOT01,LB,01-701-1047,3,ALT,Alanine Aminotransferase,CHEMISTRY,22,U/L,6,32,22,22,U/L,6,32,NORMAL,Y,1,SCREENING 1,-7,2013-01-22T14:36,-21,2013-02-12,2013-03-09,Placebo,Placebo,2013-01-22,-21,ALT,Alanine Aminotransferase (U/L),3,CHEMISTRY,22,,6,32,,Baseline,0,,NORMAL,LAST,Y,22,,NORMAL,,,,Alanine aminotransferase increased,,0,0,,0,0,1,3.6666666666666665,0.6875,NORMAL to NORMAL,0 to 0,,,Placebo,Placebo,15,1047,2013-02-12,2013-03-29,2013-02-12,2013-03-09,,2013-07-28,,,701,85,YEARS,F,WHITE,NOT HISPANIC OR LATINO,Pbo,Placebo,Pbo,Placebo,USA,2013-01-22,-21,2013-02-12T00:00:00Z,H,2013-03-09T23:59:59Z,H,26,,2013-03-29,DISCONTINUED,2013-07-28,2013-02-12,,,,,,,,2013-04-07,Y,White,>64,NA,,,,
146,CDISCPILOT01,LB,01-701-1047,40,ALT,Alanine Aminotransferase,CHEMISTRY,16,U/L,6,32,16,16,U/L,6,32,NORMAL,,4,WEEK 2,14,2013-02-25T12:10,14,2013-02-12,2013-03-09,Placebo,Placebo,2013-02-25,14,ALT,Alanine Aminotransferase (U/L),3,CHEMISTRY,16,,6,32,,Week 2,4,Y,NORMAL,LAST,,22,,NORMAL,-6,-27.27272727272727,,Alanine aminotransferase increased,,0,0,,0,0,0.7272727272727273,2.6666666666666665,0.5,NORMAL to NORMAL,0 to 0,Y,Y,Placebo,Placebo,16,1047,2013-02-12,2013-03-29,2013-02-12,2013-03-09,,2013-07-28,,,701,85,YEARS,F,WHITE,NOT HISPANIC OR LATINO,Pbo,Placebo,Pbo,Placebo,USA,2013-01-22,-21,2013-02-12T00:00:00Z,H,2013-03-09T23:59:59Z,H,26,,2013-03-29,DISCONTINUED,2013-07-28,2013-02-12,,,,,,,,2013-04-07,Y,White,>64,NA,,,,
147,CDISCPILOT01,LB,01-701-1047,40,ALT,Alanine Aminotransferase,CHEMISTRY,16,U/L,6,32,16,16,U/L,6,32,NORMAL,,4,WEEK 2,14,2013-02-25T12:10,14,2013-02-12,2013-03-09,Placebo,Placebo,2013-02-25,14,ALT,Alanine Aminotransferase (U/L),3,CHEMISTRY,16,,6,32,MINIMUM,POST-BASELINE MINIMUM,9997,Y,NORMAL,LAST,,22,,NORMAL,-6,-27.27272727272727,,Alanine aminotransferase increased,,0,0,,0,0,0.7272727272727273,2.6666666666666665,0.5,NORMAL to NORMAL,0 to 0,Y,Y,Placebo,Placebo,17,1047,2013-02-12,2013-03-29,2013-02-12,2013-03-09,,2013-07-28,,,701,85,YEARS,F,WHITE,NOT HISPANIC OR LATINO,Pbo,Placebo,Pbo,Placebo,USA,2013-01-22,-21,2013-02-12T00:00:00Z,H,2013-03-09T23:59:59Z,H,26,,2013-03-29,DISCONTINUED,2013-07-28,2013-02-12,,,,,,,,2013-04-07,Y,White,>64,NA,,,,
148,CDISCPILOT01,LB,01-701-1047,40,ALT,Alanine Aminotransferase,CHEMISTRY,16,U/L,6,32,16,16,U/L,6,32,NORMAL,,4,WEEK 2,14,2013-02-25T12:10,14,2013-02-12,2013-03-09,Placebo,Placebo,2013-02-25,14,ALT,Alanine Aminotransferase (U/L),3,CHEMISTRY,16,,6,32,MAXIMUM,POST-BASELINE MAXIMUM,9998,Y,NORMAL,LAST,,22,,NORMAL,-6,-27.27272727272727,,Alanine aminotransferase increased,,0,0,,0,0,0.7272727272727273,2.6666666666666665,0.5,NORMAL to NORMAL,0 to 0,Y,Y,Placebo,Placebo,18,1047,2013-02-12,2013-03-29,2013-02-12,2013-03-09,,2013-07-28,,,701,85,YEARS,F,WHITE,NOT HISPANIC OR LATINO,Pbo,Placebo,Pbo,Placebo,USA,2013-01-22,-21,2013-02-12T00:00:00Z,H,2013-03-09T23:59:59Z,H,26,,2013-03-29,DISCONTINUED,2013-07-28,2013-02-12,,,,,,,,2013-04-07,Y,White,>64,NA,,,,
149,CDISCPILOT01,LB,01-701-1047,40,ALT,Alanine Aminotransferase,CHEMISTRY,16,U/L,6,32,16,16,U/L,6,32,NORMAL,,4,WEEK 2,14,2013-02-25T12:10,14,2013-02-12,2013-03-09,Placebo,Placebo,2013-02-25,14,ALT,Alanine Aminotransferase (U/L),3,CHEMISTRY,16,,6,32,LOV,POST-BASELINE LAST,9999,Y,NORMAL,LAST,,22,,NORMAL,-6,-27.27272727272727,,Alanine aminotransferase increased,,0,0,,0,0,0.7272727272727273,2.6666666666666665,0.5,NORMAL to NORMAL,0 to 0,Y,Y,Placebo,Placebo,19,1047,2013-02-12,2013-03-29,2013-02-12,2013-03-09,,2013-07-28,,,701,85,YEARS,F,WHITE,NOT HISPANIC OR LATINO,Pbo,Placebo,Pbo,Placebo,USA,2013-01-22,-21,2013-02-12T00:00:00Z,H,2013-03-09T23:59:59Z,H,26,,2013-03-29,DISCONTINUED,2013-07-28,2013-02-12,,,,,,,,2013-04-07,Y,White,>64,NA,,,,
150,CDISCPILOT01,LB,01-701-1047,75,ALT,Alanine Aminotransferase,CHEMISTRY,20,U/L,6,32,20,20,U/L,6,32,NORMAL,,5,WEEK 4,28,2013-03-10T13:53,27,2013-02-12,2013-03-09,Placebo,Placebo,2013-03-10,27,ALT,Alanine Aminotransferase (U/L),3,CHEMISTRY,20,,6,32,,Week 4,5,,NORMAL,LAST,,22,,NORMAL,-2,-9.090909090909092,,Alanine aminotransferase increased,,0,0,,0,0,0.9090909090909091,3.3333333333333335,0.625,NORMAL to NORMAL,0 to 0,,,Placebo,Placebo,20,1047,2013-02-12,2013-03-29,2013-02-12,2013-03-09,,2013-07-28,,,701,85,YEARS,F,WHITE,NOT HISPANIC OR LATINO,Pbo,Placebo,Pbo,Placebo,USA,2013-01-22,-21,2013-02-12T00:00:00Z,H,2013-03-09T23:59:59Z,H,26,,2013-03-29,DISCONTINUED,2013-07-28,2013-02-12,,,,,,,,2013-04-07,Y,White,>64,NA,,,,
151,CDISCPILOT01,LB,01-701-1047,122,ALT,Alanine Aminotransferase,CHEMISTRY,17,U/L,6,32,17,17,U/L,6,32,NORMAL,,6.1,UNSCHEDULED 6.1,,2013-04-07T11:20,55,2013-02-12,2013-03-09,Placebo,Placebo,2013-04-07,55,ALT,Alanine Aminotransferase (U/L),3,CHEMISTRY,17,,6,32,,Unscheduled 6.1,6.1,,NORMAL,LAST,,22,,NORMAL,-5,-22.727272727272727,,Alanine aminotransferase increased,,0,0,,0,0,0.7727272727272727,2.8333333333333335,0.53125,NORMAL to NORMAL,0 to 0,,,Placebo,Placebo,21,1047,2013-02-12,2013-03-29,2013-02-12,2013-03-09,,2013-07-28,,,701,85,YEARS,F,WHITE,NOT HISPANIC OR LATINO,Pbo,Placebo,Pbo,Placebo,USA,2013-01-22,-21,2013-02-12T00:00:00Z,H,2013-03-09T23:59:59Z,H,26,,2013-03-29,DISCONTINUED,2013-07-28,2013-02-12,,,,,,,,2013-04-07,Y,White,>64,NA,,,,
152,CDISCPILOT01,LB,01-701-1047,4,AST,Aspartate Aminotransferase,CHEMISTRY,25,U/L,9,34,25,25,U/L,9,34,NORMAL,Y,1,SCREENING 1,-7,2013-01-22T14:36,-21,2013-02-12,2013-03-09,Placebo,Placebo,2013-01-22,-21,AST,Aspartate Aminotransferase (U/L),5,CHEMISTRY,25,,9,34,,Baseline,0,,NORMAL,LAST,Y,25,,NORMAL,,,,Aspartate aminotransferase increased,,0,0,,0,0,1,2.7777777777777777,0.7352941176470589,NORMAL to NORMAL,0 to 0,,,Placebo,Placebo,22,1047,2013-02-12,2013-03-29,2013-02-12,2013-03-09,,2013-07-28,,,701,85,YEARS,F,WHITE,NOT HISPANIC OR LATINO,Pbo,Placebo,Pbo,Placebo,USA,2013-01-22,-21,2013-02-12T00:00:00Z,H,2013-03-09T23:59:59Z,H,26,,2013-03-29,DISCONTINUED,2013-07-28,2013-02-12,,,,,,,,2013-04-07,Y,White,>64,NA,,,,
153,CDISCPILOT01,LB,01-701-1047,41,AST,Aspartate Aminotransferase,CHEMISTRY,21,U/L,9,34,21,21,U/L,9,34,NORMAL,,4,WEEK 2,14,2013-02-25T12:10,14,2013-02-12,2013-03-09,Placebo,Placebo,2013-02-25,14,AST,Aspartate Aminotransferase (U/L),5,CHEMISTRY,21,,9,34,,Week 2,4,Y,NORMAL,LAST,,25,,NORMAL,-4,-16,,Aspartate aminotransferase increased,,0,0,,0,0,0.84,2.3333333333333335,0.6176470588235294,NORMAL to NORMAL,0 to 0,Y,Y,Placebo,Placebo,23,1047,2013-02-12,2013-03-29,2013-02-12,2013-03-09,,2013-07-28,,,701,85,YEARS,F,WHITE,NOT HISPANIC OR LATINO,Pbo,Placebo,Pbo,Placebo,USA,2013-01-22,-21,2013-02-12T00:00:00Z,H,2013-03-09T23:59:59Z,H,26,,2013-03-29,DISCONTINUED,2013-07-28,2013-02-12,,,,,,,,2013-04-07,Y,White,>64,NA,,,,
154,CDISCPILOT01,LB,01-701-1047,41,AST,Aspartate Aminotransferase,CHEMISTRY,21,U/L,9,34,21,21,U/L,9,34,NORMAL,,4,WEEK 2,14,2013-02-25T12:10,14,2013-02-12,2013-03-09,Placebo,Placebo,2013-02-25,14,AST,Aspartate Aminotransferase (U/L),5,CHEMISTRY,21,,9,34,MINIMUM,POST-BASELINE MINIMUM,9997,Y,NORMAL,LAST,,25,,NORMAL,-4,-16,,Aspartate aminotransferase increased,,0,0,,0,0,0.84,2.3333333333333335,0.6176470588235294,NORMAL to NORMAL,0 to 0,Y,Y,Placebo,Placebo,24,1047,2013-02-12,2013-03-29,2013-02-12,2013-03-09,,2013-07-28,,,701,85,YEARS,F,WHITE,NOT HISPANIC OR LATINO,Pbo,Placebo,Pbo,Placebo,USA,2013-01-22,-21,2013-02-12T00:00:00Z,H,2013-03-09T23:59:59Z,H,26,,2013-03-29,DISCONTINUED,2013-07-28,2013-02-12,,,,,,,,2013-04-07,Y,White,>64,NA,,,,
155,CDISCPILOT01,LB,01-701-1047,41,AST,Aspartate Aminotransferase,CHEMISTRY,21,U/L,9,34,21,21,U/L,9,34,NORMAL,,4,WEEK 2,14,2013-02-25T12:10,14,2013-02-12,2013-03-09,Placebo,Placebo,2013-02-25,14,AST,Aspartate Aminotransferase (U/L),5,CHEMISTRY,21,,9,34,MAXIMUM,POST-BASELINE MAXIMUM,9998,Y,NORMAL,LAST,,25,,NORMAL,-4,-16,,Aspartate aminotransferase increased,,0,0,,0,0,0.84,2.3333333333333335,0.6176470588235294,NORMAL to NORMAL,0 to 0,Y,Y,Placebo,Placebo,25,1047,2013-02-12,2013-03-29,2013-02-12,2013-03-09,,2013-07-28,,,701,85,YEARS,F,WHITE,NOT HISPANIC OR LATINO,Pbo,Placebo,Pbo,Placebo,USA,2013-01-22,-21,2013-02-12T00:00:00Z,H,2013-03-09T23:59:59Z,H,26,,2013-03-29,DISCONTINUED,2013-07-28,2013-02-12,,,,,,,,2013-04-07,Y,White,>64,NA,,,,
156,CDISCPILOT01,LB,01-701-1047,41,AST,Aspartate Aminotransferase,CHEMISTRY,21,U/L,9,34,21,21,U/L,9,34,NORMAL,,4,WEEK 2,14,2013-02-25T12:10,14,2013-02-12,2013-03-09,Placebo,Placebo,2013-02-25,14,AST,Aspartate Aminotransferase (U/L),5,CHEMISTRY,21,,9,34,LOV,POST-BASELINE LAST,9999,Y,NORMAL,LAST,,25,,NORMAL,-4,-16,,Aspartate aminotransferase increased,,0,0,,0,0,0.84,2.3333333333333335,0.6176470588235294,NORMAL to NORMAL,0 to 0,Y,Y,Placebo,Placebo,26,1047,2013-02-12,2013-03-29,2013-02-12,2013-03-09,,2013-07-28,,,701,85,YEARS,F,WHITE,NOT HISPANIC OR LATINO,Pbo,Placebo,Pbo,Placebo,USA,2013-01-22,-21,2013-02-12T00:00:00Z,H,2013-03-09T23:59:59Z,H,26,,2013-03-29,DISCONTINUED,2013-07-28,2013-02-12,,,,,,,,2013-04-07,Y,White,>64,NA,,,,
157,CDISCPILOT01,LB,01-701-1047,76,AST,Aspartate Aminotransferase,CHEMISTRY,24,U/L,9,34,24,24,U/L,9,34,NORMAL,,5,WEEK 4,28,2013-03-10T13:53,27,2013-02-12,2013-03-09,Placebo,Placebo,2013-03-10,27,AST,Aspartate Aminotransferase (U/L),5,CHEMISTRY,24,,9,34,,Week 4,5,,NORMAL,LAST,,25,,NORMAL,-1,-4,,Aspartate aminotransferase increased,,0,0,,0,0,0.96,2.6666666666666665,0.7058823529411765,NORMAL to NORMAL,0 to 0,,,Placebo,Placebo,27,1047,2013-02-12,2013-03-29,2013-02-12,2013-03-09,,2013-07-28,,,701,85,YEARS,F,WHITE,NOT HISPANIC OR LATINO,Pbo,Placebo,Pbo,Placebo,USA,2013-01-22,-21,2013-02-12T00:00:00Z,H,2013-03-09T23:59:59Z,H,26,,2013-03-29,DISCONTINUED,2013-07-28,2013-02-12,,,,,,,,2013-04-07,Y,White,>64,NA,,,,
158,CDISCPILOT01,LB,01-701-1047,123,AST,Aspartate Aminotransferase,CHEMISTRY,21,U/L,9,34,21,21,U/L,9,34,NORMAL,,6.1,UNSCHEDULED 6.1,,2013-04-07T11:20,55,2013-02-12,2013-03-09,Placebo,Placebo,2013-04-07,55,AST,Aspartate Aminotransferase (U/L),5,CHEMISTRY,21,,9,34,,Unscheduled 6.1,6.1,,NORMAL,LAST,,25,,NORMAL,-4,-16,,Aspartate aminotransferase increased,,0,0,,0,0,0.84,2.3333333333333335,0.6176470588235294,NORMAL to NORMAL,0 to 0,,,Placebo,Placebo,28,1047,2013-02-12,2013-03-29,2013-02-12,2013-03-09,,2013-07-28,,,701,85,YEARS,F,WHITE,NOT HISPANIC OR LATINO,Pbo,Placebo,Pbo,Placebo,USA,2013-01-22,-21,2013-02-12T00:00:00Z,H,2013-03-09T23:59:59Z,H,26,,2013-03-29,DISCONTINUED,2013-07-28,2013-02-12,,,,,,,,2013-04-07,Y,White,>64,NA,,,,
159,CDISCPILOT01,LB,01-701-1047,6,BILI,Bilirubin,CHEMISTRY,0.4,mg/dL,0.2,1.2,6.84,6.84,umol/L,3,21,NORMAL,Y,1,SCREENING 1,-7,2013-01-22T14:36,-21,2013-02-12,2013-03-09,Placebo,Placebo,2013-01-22,-21,BILI,Bilirubin (umol/L),8,CHEMISTRY,6.84,,3,21,,Baseline,0,,NORMAL,LAST,Y,6.84,,NORMAL,,,,Blood bilirubin increased,,0,0,,0,0,1,2.28,0.32571428571428573,NORMAL to NORMAL,0 to 0,,,Placebo,Placebo,41,1047,2013-02-12,2013-03-29,2013-02-12,2013-03-09,,2013-07-28,,,701,85,YEARS,F,WHITE,NOT HISPANIC OR LATINO,Pbo,Placebo,Pbo,Placebo,USA,2013-01-22,-21,2013-02-12T00:00:00Z,H,2013-03-09T23:59:59Z,H,26,,2013-03-29,DISCONTINUED,2013-07-28,2013-02-12,,,,,,,,2013-04-07,Y,White,>64,NA,,,,
160,CDISCPILOT01,LB,01-701-1047,43,BILI,Bilirubin,CHEMISTRY,0.5,mg/dL,0.2,1.2,8.55,8.549999999999999,umol/L,3,21,NORMAL,,4,WEEK 2,14,2013-02-25T12:10,14,2013-02-12,2013-03-09,Placebo,Placebo,2013-02-25,14,BILI,Bilirubin (umol/L),8,CHEMISTRY,8.549999999999999,,3,21,,Week 2,4,Y,NORMAL,LAST,,6.84,,NORMAL,1.709999999999999,24.999999999999986,,Blood bilirubin increased,,0,0,,0,0,1.2499999999999998,2.8499999999999996,0.4071428571428571,NORMAL to NORMAL,0 to 0,Y,Y,Placebo,Placebo,42,1047,2013-02-12,2013-03-29,2013-02-12,2013-03-09,,2013-07-28,,,701,85,YEARS,F,WHITE,NOT HISPANIC OR LATINO,Pbo,Placebo,Pbo,Placebo,USA,2013-01-22,-21,2013-02-12T00:00:00Z,H,2013-03-09T23:59:59Z,H,26,,2013-03-29,DISCONTINUED,2013-07-28,2013-02-12,,,,,,,,2013-04-07,Y,White,>64,NA,,,,
161,CDISCPILOT01,LB,01-701-1047,43,BILI,Bilirubin,CHEMISTRY,0.5,mg/dL,0.2,1.2,8.55,8.549999999999999,umol/L,3,21,NORMAL,,4,WEEK 2,14,2013-02-25T12:10,14,2013-02-12,2013-03-09,Placebo,Placebo,2013-02-25,14,BILI,Bilirubin (umol/L),8,CHEMISTRY,8.549999999999999,,3,21,MINIMUM,POST-BASELINE MINIMUM,9997,Y,NORMAL,LAST,,6.84,,NORMAL,1.709999999999999,24.999999999999986,,Blood bilirubin increased,,0,0,,0,0,1.2499999999999998,2.8499999999999996,0.4071428571428571,NORMAL to NORMAL,0 to 0,Y,Y,Placebo,Placebo,43,1047,2013-02-12,2013-03-29,2013-02-12,2013-03-09,,2013-07-28,,,701,85,YEARS,F,WHITE,NOT HISPANIC OR LATINO,Pbo,Placebo,Pbo,Placebo,USA,2013-01-22,-21,2013-02-12T00:00:00Z,H,2013-03-09T23:59:59Z,H,26,,2013-03-29,DISCONTINUED,2013-07-28,2013-02-12,,,,,,,,2013-04-07,Y,White,>64,NA,,,,
162,CDISCPILOT01,LB,01-701-1047,43,BILI,Bilirubin,CHEMISTRY,0.5,mg/dL,0.2,1.2,8.55,8.549999999999999,umol/L,3,21,NORMAL,,4,WEEK 2,14,2013-02-25T12:10,14,2013-02-12,2013-03-09,Placebo,Placebo,2013-02-25,14,BILI,Bilirubin (umol/L),8,CHEMISTRY,8.549999999999999,,3,21,MAXIMUM,POST-BASELINE MAXIMUM,9998,Y,NORMAL,LAST,,6.84,,NORMAL,1.709999999999999,24.999999999999986,,Blood bilirubin increased,,0,0,,0,0,1.2499999999999998,2.8499999999999996,0.4071428571428571,NORMAL to NORMAL,0 to 0,Y,Y,Placebo,Placebo,44,1047,2013-02-12,2013-03-29,2013-02-12,2013-03-09,,2013-07-28,,,701,85,YEARS,F,WHITE,NOT HISPANIC OR LATINO,Pbo,Placebo,Pbo,Placebo,USA,2013-01-22,-21,2013-02-12T00:00:00Z,H,2013-03-09T23:59:59Z,H,26,,2013-03-29,DISCONTINUED,2013-07-28,2013-02-12,,,,,,,,2013-04-07,Y,White,>64,NA,,,,
163,CDISCPILOT01,LB,01-701-1047,43,BILI,Bilirubin,CHEMISTRY,0.5,mg/dL,0.2,1.2,8.55,8.549999999999999,umol/L,3,21,NORMAL,,4,WEEK 2,14,2013-02-25T12:10,14,2013-02-12,2013-03-09,Placebo,Placebo,2013-02-25,14,BILI,Bilirubin (umol/L),8,CHEMISTRY,8.549999999999999,,3,21,LOV,POST-BASELINE LAST,9999,Y,NORMAL,LAST,,6.84,,NORMAL,1.709999999999999,24.999999999999986,,Blood bilirubin increased,,0,0,,0,0,1.2499999999999998,2.8499999999999996,0.4071428571428571,NORMAL to NORMAL,0 to 0,Y,Y,Placebo,Placebo,45,1047,2013-02-12,2013-03-29,2013-02-12,2013-03-09,,2013-07-28,,,701,85,YEARS,F,WHITE,NOT HISPANIC OR LATINO,Pbo,Placebo,Pbo,Placebo,USA,2013-01-22,-21,2013-02-12T00:00:00Z,H,2013-03-09T23:59:59Z,H,26,,2013-03-29,DISCONTINUED,2013-07-28,2013-02-12,,,,,,,,2013-04-07,Y,White,>64,NA,,,,
164,CDISCPILOT01,LB,01-701-1047,78,BILI,Bilirubin,CHEMISTRY,0.4,mg/dL,0.2,1.2,6.84,6.84,umol/L,3,21,NORMAL,,5,WEEK 4,28,2013-03-10T13:53,27,2013-02-12,2013-03-09,Placebo,Placebo,2013-03-10,27,BILI,Bilirubin (umol/L),8,CHEMISTRY,6.84,,3,21,,Week 4,5,,NORMAL,LAST,,6.84,,NORMAL,0,0,,Blood bilirubin increased,,0,0,,0,0,1,2.28,0.32571428571428573,NORMAL to NORMAL,0 to 0,,,Placebo,Placebo,46,1047,2013-02-12,2013-03-29,2013-02-12,2013-03-09,,2013-07-28,,,701,85,YEARS,F,WHITE,NOT HISPANIC OR LATINO,Pbo,Placebo,Pbo,Placebo,USA,2013-01-22,-21,2013-02-12T00:00:00Z,H,2013-03-09T23:59:59Z,H,26,,2013-03-29,DISCONTINUED,2013-07-28,2013-02-12,,,,,,,,2013-04-07,Y,White,>64,NA,,,,
165,CDISCPILOT01,LB,01-701-1047,124,BILI,Bilirubin,CHEMISTRY,0.4,mg/dL,0.2,1.2,6.84,6.84,umol/L,3,21,NORMAL,,6.1,UNSCHEDULED 6.1,,2013-04-07T11:20,55,2013-02-12,2013-03-09,Placebo,Placebo,2013-04-07,55,BILI,Bilirubin (umol/L),8,CHEMISTRY,6.84,,3,21,,Unscheduled 6.1,6.1,,NORMAL,LAST,,6.84,,NORMAL,0,0,,Blood bilirubin increased,,0,0,,0,0,1,2.28,0.32571428571428573,NORMAL to NORMAL,0 to 0,,,Placebo,Placebo,47,1047,2013-02-12,2013-03-29,2013-02-12,2013-03-09,,2013-07-28,,,701,85,YEARS,F,WHITE,NOT HISPANIC OR LATINO,Pbo,Placebo,Pbo,Placebo,USA,2013-01-22,-21,2013-02-12T00:00:00Z,H,2013-03-09T23:59:59Z,H,26,,2013-03-29,DISCONTINUED,2013-07-28,2013-02-12,,,,,,,,2013-04-07,Y,White,>64,NA,,,,
166,CDISCPILOT01,LB,01-701-1097,3,ALT,Alanine Aminotransferase,CHEMISTRY,16,U/L,6,43,16,16,U/L,6,43,NORMAL,Y,1,SCREENING 1,-7,2013-12-23T12:30,-9,2014-01-01,2014-07-09,Xanomeline Low Dose,Xanomeline Low Dose,2013-12-23,-9,ALT,Alanine Aminotransferase (U/L),3,CHEMISTRY,16,,6,43,,Baseline,0,,NORMAL,LAST,Y,16,,NORMAL,,,,Alanine aminotransferase increased,,0,0,,0,0,1,2.6666666666666665,0.37209302325581395,NORMAL to NORMAL,0 to 0,,,Xanomeline Low Dose,Xanomeline Low Dose,27,1097,2014-01-01,2014-07-09,2014-01-01,2014-07-09,,2014-07-09T09:39,,,701,68,YEARS,M,WHITE,NOT HISPANIC OR LATINO,Xan_Lo,Xanomeline Low Dose,Xan_Lo,Xanomeline Low Dose,USA,2013-12-23,-9,2014-01-01T00:00:00Z,H,2014-07-09T23:59:59Z,H,190,,2014-07-09,COMPLETED,,2014-01-01,,,,,,,,2014-07-09,Y,White,>64,NA,,,,
167,CDISCPILOT01,LB,01-701-1097,40,ALT,Alanine Aminotransferase,CHEMISTRY,24,U/L,6,43,24,24,U/L,6,43,NORMAL,,4,WEEK 2,14,2014-01-15T10:03,15,2014-01-01,2014-07-09,Xanomeline Low Dose,Xanomeline Low Dose,2014-01-15,15,ALT,Alanine Aminotransferase (U/L),3,CHEMISTRY,24,,6,43,,Week 2,4,Y,NORMAL,LAST,,16,,NORMAL,8,50,,Alanine aminotransferase increased,,0,0,,0,0,1.5,4,0.5581395348837209,NORMAL to NORMAL,0 to 0,Y,,Xanomeline Low Dose,Xanomeline Low Dose,28,1097,2014-01-01,2014-07-09,2014-01-01,2014-07-09,,2014-07-09T09:39,,,701,68,YEARS,M,WHITE,NOT HISPANIC OR LATINO,Xan_Lo,Xanomeline Low Dose,Xan_Lo,Xanomeline Low Dose,USA,2013-12-23,-9,2014-01-01T00:00:00Z,H,2014-07-09T23:59:59Z,H,190,,2014-07-09,COMPLETED,,2014-01-01,,,,,,,,2014-07-09,Y,White,>64,NA,,,,
168,CDISCPILOT01,LB,01-701-1097,40,ALT,Alanine Aminotransferase,CHEMISTRY,24,U/L,6,43,24,24,U/L,6,43,NORMAL,,4,WEEK 2,14,2014-01-15T10:03,15,2014-01-01,2014-07-09,Xanomeline Low Dose,Xanomeline Low Dose,2014-01-15,15,ALT,Alanine Aminotransferase (U/L),3,CHEMISTRY,24,,6,43,MAXIMUM,POST-BASELINE MAXIMUM,9998,Y,NORMAL,LAST,,16,,NORMAL,8,50,,Alanine aminotransferase increased,,0,0,,0,0,1.5,4,0.5581395348837209,NORMAL to NORMAL,0 to 0,Y,,Xanomeline Low Dose,Xanomeline Low Dose,29,1097,2014-01-01,2014-07-09,2014-01-01,2014-07-09,,2014-07-09T09:39,,,701,68,YEARS,M,WHITE,NOT HISPANIC OR LATINO,Xan_Lo,Xanomeline Low Dose,Xan_Lo,Xanomeline Low Dose,USA,2013-12-23,-9,2014-01-01T00:00:00Z,H,2014-07-09T23:59:59Z,H,190,,2014-07-09,COMPLETED,,2014-01-01,,,,,,,,2014-07-09,Y,White,>64,NA,,,,
169,CDISCPILOT01,LB,01-701-1097,75,ALT,Alanine Aminotransferase,CHEMISTRY,17,U/L,6,43,17,17,U/L,6,43,NORMAL,,5,WEEK 4,28,2014-01-29T14:00,29,2014-01-01,2014-07-09,Xanomeline Low Dose,Xanomeline Low Dose,2014-01-29,29,ALT,Alanine Aminotransferase (U/L),3,CHEMISTRY,17,,6,43,,Week 4,5,Y,NORMAL,LAST,,16,,NORMAL,1,6.25,,Alanine aminotransferase increased,,0,0,,0,0,1.0625,2.8333333333333335,0.3953488372093023,NORMAL to NORMAL,0 to 0,Y,,Xanomeline Low Dose,Xanomeline Low Dose,30,1097,2014-01-01,2014-07-09,2014-01-01,2014-07-09,,2014-07-09T09:39,,,701,68,YEARS,M,WHITE,NOT HISPANIC OR LATINO,Xan_Lo,Xanomeline Low Dose,Xan_Lo,Xanomeline Low Dose,USA,2013-12-23,-9,2014-01-01T00:00:00Z,H,2014-07-09T23:59:59Z,H,190,,2014-07-09,COMPLETED,,2014-01-01,,,,,,,,2014-07-09,Y,White,>64,NA,,,,
170,CDISCPILOT01,LB,01-701-1097,105,ALT,Alanine Aminotransferase,CHEMISTRY,14,U/L,6,43,14,14,U/L,6,43,NORMAL,,7,WEEK 6,42,2014-02-11T11:16,42,2014-01-01,2014-07-09,Xanomeline Low Dose,Xanomeline Low Dose,2014-02-11,42,ALT,Alanine Aminotransferase (U/L),3,CHEMISTRY,14,,6,43,,Week 6,7,Y,NORMAL,LAST,,16,,NORMAL,-2,-12.5,,Alanine aminotransferase increased,,0,0,,0,0,0.875,2.3333333333333335,0.32558139534883723,NORMAL to NORMAL,0 to 0,Y,,Xanomeline Low Dose,Xanomeline Low Dose,31,1097,2014-01-01,2014-07-09,2014-01-01,2014-07-09,,2014-07-09T09:39,,,701,68,YEARS,M,WHITE,NOT HISPANIC OR LATINO,Xan_Lo,Xanomeline Low Dose,Xan_Lo,Xanomeline Low Dose,USA,2013-12-23,-9,2014-01-01T00:00:00Z,H,2014-07-09T23:59:59Z,H,190,,2014-07-09,COMPLETED,,2014-01-01,,,,,,,,2014-07-09,Y,White,>64,NA,,,,
171,CDISCPILOT01,LB,01-701-1097,135,ALT,Alanine Aminotransferase,CHEMISTRY,18,U/L,6,43,18,18,U/L,6,43,NORMAL,,8,WEEK 8,56,2014-02-26T11:10,57,2014-01-01,2014-07-09,Xanomeline Low Dose,Xanomeline Low Dose,2014-02-26,57,ALT,Alanine Aminotransferase (U/L),3,CHEMISTRY,18,,6,43,,Week 8,8,Y,NORMAL,LAST,,16,,NORMAL,2,12.5,,Alanine aminotransferase increased,,0,0,,0,0,1.125,3,0.4186046511627907,NORMAL to NORMAL,0 to 0,Y,,Xanomeline Low Dose,Xanomeline Low Dose,32,1097,2014-01-01,2014-07-09,2014-01-01,2014-07-09,,2014-07-09T09:39,,,701,68,YEARS,M,WHITE,NOT HISPANIC OR LATINO,Xan_Lo,Xanomeline Low Dose,Xan_Lo,Xanomeline Low Dose,USA,2013-12-23,-9,2014-01-01T00:00:00Z,H,2014-07-09T23:59:59Z,H,190,,2014-07-09,COMPLETED,,2014-01-01,,,,,,,,2014-07-09,Y,White,>64,NA,,,,
172,CDISCPILOT01,LB,01-701-1097,165,ALT,Alanine Aminotransferase,CHEMISTRY,14,U/L,6,43,14,14,U/L,6,43,NORMAL,,9,WEEK 12,84,2014-03-26T08:55,85,2014-01-01,2014-07-09,Xanomeline Low Dose,Xanomeline Low Dose,2014-03-26,85,ALT,Alanine Aminotransferase (U/L),3,CHEMISTRY,14,,6,43,,Week 12,9,Y,NORMAL,LAST,,16,,NORMAL,-2,-12.5,,Alanine aminotransferase increased,,0,0,,0,0,0.875,2.3333333333333335,0.32558139534883723,NORMAL to NORMAL,0 to 0,Y,,Xanomeline Low Dose,Xanomeline Low Dose,33,1097,2014-01-01,2014-07-09,2014-01-01,2014-07-09,,2014-07-09T09:39,,,701,68,YEARS,M,WHITE,NOT HISPANIC OR LATINO,Xan_Lo,Xanomeline Low Dose,Xan_Lo,Xanomeline Low Dose,USA,2013-12-23,-9,2014-01-01T00:00:00Z,H,2014-07-09T23:59:59Z,H,190,,2014-07-09,COMPLETED,,2014-01-01,,,,,,,,2014-07-09,Y,White,>64,NA,,,,
173,CDISCPILOT01,LB,01-701-1097,200,ALT,Alanine Aminotransferase,CHEMISTRY,15,U/L,6,43,15,15,U/L,6,43,NORMAL,,10,WEEK 16,112,2014-04-23T11:14,113,2014-01-01,2014-07-09,Xanomeline Low Dose,Xanomeline Low Dose,2014-04-23,113,ALT,Alanine Aminotransferase (U/L),3,CHEMISTRY,15,,6,43,,Week 16,10,Y,NORMAL,LAST,,16,,NORMAL,-1,-6.25,,Alanine aminotransferase increased,,0,0,,0,0,0.9375,2.5,0.3488372093023256,NORMAL to NORMAL,0 to 0,Y,,Xanomeline Low Dose,Xanomeline Low Dose,34,1097,2014-01-01,2014-07-09,2014-01-01,2014-07-09,,2014-07-09T09:39,,,701,68,YEARS,M,WHITE,NOT HISPANIC OR LATINO,Xan_Lo,Xanomeline Low Dose,Xan_Lo,Xanomeline Low Dose,USA,2013-12-23,-9,2014-01-01T00:00:00Z,H,2014-07-09T23:59:59Z,H,190,,2014-07-09,COMPLETED,,2014-01-01,,,,,,,,2014-07-09,Y,White,>64,NA,,,,
174,CDISCPILOT01,LB,01-701-1097,230,ALT,Alanine Aminotransferase,CHEMISTRY,11,U/L,6,43,11,11,U/L,6,43,NORMAL,,11,WEEK 20,140,2014-05-21T15:06,141,2014-01-01,2014-07-09,Xanomeline Low Dose,Xanomeline Low Dose,2014-05-21,141,ALT,Alanine Aminotransferase (U/L),3,CHEMISTRY,11,,6,43,,Week 20,11,Y,NORMAL,LAST,,16,,NORMAL,-5,-31.25,,Alanine aminotransferase increased,,0,0,,0,0,0.6875,1.8333333333333333,0.2558139534883721,NORMAL to NORMAL,0 to 0,Y,,Xanomeline Low Dose,Xanomeline Low Dose,35,1097,2014-01-01,2014-07-09,2014-01-01,2014-07-09,,2014-07-09T09:39,,,701,68,YEARS,M,WHITE,NOT HISPANIC OR LATINO,Xan_Lo,Xanomeline Low Dose,Xan_Lo,Xanomeline Low Dose,USA,2013-12-23,-9,2014-01-01T00:00:00Z,H,2014-07-09T23:59:59Z,H,190,,2014-07-09,COMPLETED,,2014-01-01,,,,,,,,2014-07-09,Y,White,>64,NA,,,,
175,CDISCPILOT01,LB,01-701-1097,230,ALT,Alanine Aminotransferase,CHEMISTRY,11,U/L,6,43,11,11,U/L,6,43,NORMAL,,11,WEEK 20,140,2014-05-21T15:06,141,2014-01-01,2014-07-09,Xanomeline Low Dose,Xanomeline Low Dose,2014-05-21,141,ALT,Alanine Aminotransferase (U/L),3,CHEMISTRY,11,,6,43,MINIMUM,POST-BASELINE MINIMUM,9997,Y,NORMAL,LAST,,16,,NORMAL,-5,-31.25,,Alanine aminotransferase increased,,0,0,,0,0,0.6875,1.8333333333333333,0.2558139534883721,NORMAL to NORMAL,0 to 0,Y,,Xanomeline Low Dose,Xanomeline Low Dose,36,1097,2014-01-01,2014-07-09,2014-01-01,2014-07-09,,2014-07-09T09:39,,,701,68,YEARS,M,WHITE,NOT HISPANIC OR LATINO,Xan_Lo,Xanomeline Low Dose,Xan_Lo,Xanomeline Low Dose,USA,2013-12-23,-9,2014-01-01T00:00:00Z,H,2014-07-09T23:59:59Z,H,190,,2014-07-09,COMPLETED,,2014-01-01,,,,,,,,2014-07-09,Y,White,>64,NA,,,,
176,CDISCPILOT01,LB,01-701-1097,260,ALT,Alanine Aminotransferase,CHEMISTRY,18,U/L,6,43,18,18,U/L,6,43,NORMAL,,12,WEEK 24,168,2014-06-18T10:41,169,2014-01-01,2014-07-09,Xanomeline Low Dose,Xanomeline Low Dose,2014-06-18,169,ALT,Alanine Aminotransferase (U/L),3,CHEMISTRY,18,,6,43,,Week 24,12,Y,NORMAL,LAST,,16,,NORMAL,2,12.5,,Alanine aminotransferase increased,,0,0,,0,0,1.125,3,0.4186046511627907,NORMAL to NORMAL,0 to 0,Y,,Xanomeline Low Dose,Xanomeline Low Dose,37,1097,2014-01-01,2014-07-09,2014-01-01,2014-07-09,,2014-07-09T09:39,,,701,68,YEARS,M,WHITE,NOT HISPANIC OR LATINO,Xan_Lo,Xanomeline Low Dose,Xan_Lo,Xanomeline Low Dose,USA,2013-12-23,-9,2014-01-01T00:00:00Z,H,2014-07-09T23:59:59Z,H,190,,2014-07-09,COMPLETED,,2014-01-01,,,,,,,,2014-07-09,Y,White,>64,NA,,,,
177,CDISCPILOT01,LB,01-701-1097,295,ALT,Alanine Aminotransferase,CHEMISTRY,15,U/L,6,43,15,15,U/L,6,43,NORMAL,,13,WEEK 26,182,2014-07-09T09:39,190,2014-01-01,2014-07-09,Xanomeline Low Dose,Xanomeline Low Dose,2014-07-09,190,ALT,Alanine Aminotransferase (U/L),3,CHEMISTRY,15,,6,43,,Week 26,13,Y,NORMAL,LAST,,16,,NORMAL,-1,-6.25,,Alanine aminotransferase increased,,0,0,,0,0,0.9375,2.5,0.3488372093023256,NORMAL to NORMAL,0 to 0,Y,Y,Xanomeline Low Dose,Xanomeline Low Dose,38,1097,2014-01-01,2014-07-09,2014-01-01,2014-07-09,,2014-07-09T09:39,,,701,68,YEARS,M,WHITE,NOT HISPANIC OR LATINO,Xan_Lo,Xanomeline Low Dose,Xan_Lo,Xanomeline Low Dose,USA,2013-12-23,-9,2014-01-01T00:00:00Z,H,2014-07-09T23:59:59Z,H,190,,2014-07-09,COMPLETED,,2014-01-01,,,,,,,,2014-07-09,Y,White,>64,NA,,,,
178,CDISCPILOT01,LB,01-701-1097,295,ALT,Alanine Aminotransferase,CHEMISTRY,15,U/L,6,43,15,15,U/L,6,43,NORMAL,,13,WEEK 26,182,2014-07-09T09:39,190,2014-01-01,2014-07-09,Xanomeline Low Dose,Xanomeline Low Dose,2014-07-09,190,ALT,Alanine Aminotransferase (U/L),3,CHEMISTRY,15,,6,43,LOV,POST-BASELINE LAST,9999,Y,NORMAL,LAST,,16,,NORMAL,-1,-6.25,,Alanine aminotransferase increased,,0,0,,0,0,0.9375,2.5,0.3488372093023256,NORMAL to NORMAL,0 to 0,Y,Y,Xanomeline Low Dose,Xanomeline Low Dose,39,1097,2014-01-01,2014-07-09,2014-01-01,2014-07-09,,2014-07-09T09:39,,,701,68,YEARS,M,WHITE,NOT HISPANIC OR LATINO,Xan_Lo,Xanomeline Low Dose,Xan_Lo,Xanomeline Low Dose,USA,2013-12-23,-9,2014-01-01T00:00:00Z,H,2014-07-09T23:59:59Z,H,190,,2014-07-09,COMPLETED,,2014-01-01,,,,,,,,2014-07-09,Y,White,>64,NA,,,,
179,CDISCPILOT01,LB,01-701-1097,4,AST,Aspartate Aminotransferase,CHEMISTRY,19,U/L,11,36,19,19,U/L,11,36,NORMAL,Y,1,SCREENING 1,-7,2013-12-23T12:30,-9,2014-01-01,2014-07-09,Xanomeline Low Dose,Xanomeline Low Dose,2013-12-23,-9,AST,Aspartate Aminotransferase (U/L),5,CHEMISTRY,19,,11,36,,Baseline,0,,NORMAL,LAST,Y,19,,NORMAL,,,,Aspartate aminotransferase increased,,0,0,,0,0,1,1.7272727272727273,0.5277777777777778,NORMAL to NORMAL,0 to 0,,,Xanomeline Low Dose,Xanomeline Low Dose,40,1097,2014-01-01,2014-07-09,2014-01-01,2014-07-09,,2014-07-09T09:39,,,701,68,YEARS,M,WHITE,NOT HISPANIC OR LATINO,Xan_Lo,Xanomeline Low Dose,Xan_Lo,Xanomeline Low Dose,USA,2013-12-23,-9,2014-01-01T00:00:00Z,H,2014-07-09T23:59:59Z,H,190,,2014-07-09,COMPLETED,,2014-01-01,,,,,,,,2014-07-09,Y,White,>64,NA,,,,
180,CDISCPILOT01,LB,01-701-1097,41,AST,Aspartate Aminotransferase,CHEMISTRY,21,U/L,11,36,21,21,U/L,11,36,NORMAL,,4,WEEK 2,14,2014-01-15T10:03,15,2014-01-01,2014-07-09,Xanomeline Low Dose,Xanomeline Low Dose,2014-01-15,15,AST,Aspartate Aminotransferase (U/L),5,CHEMISTRY,21,,11,36,,Week 2,4,Y,NORMAL,LAST,,19,,NORMAL,2,10.526315789473683,,Aspartate aminotransferase increased,,0,0,,0,0,1.105263157894737,1.9090909090909092,0.5833333333333334,NORMAL to NORMAL,0 to 0,Y,,Xanomeline Low Dose,Xanomeline Low Dose,41,1097,2014-01-01,2014-07-09,2014-01-01,2014-07-09,,2014-07-09T09:39,,,701,68,YEARS,M,WHITE,NOT HISPANIC OR LATINO,Xan_Lo,Xanomeline Low Dose,Xan_Lo,Xanomeline Low Dose,USA,2013-12-23,-9,2014-01-01T00:00:00Z,H,2014-07-09T23:59:59Z,H,190,,2014-07-09,COMPLETED,,2014-01-01,,,,,,,,2014-07-09,Y,White,>64,NA,,,,
181,CDISCPILOT01,LB,01-701-1097,41,AST,Aspartate Aminotransferase,CHEMISTRY,21,U/L,11,36,21,21,U/L,11,36,NORMAL,,4,WEEK 2,14,2014-01-15T10:03,15,2014-01-01,2014-07-09,Xanomeline Low Dose,Xanomeline Low Dose,2014-01-15,15,AST,Aspartate Aminotransferase (U/L),5,CHEMISTRY,21,,11,36,MAXIMUM,POST-BASELINE MAXIMUM,9998,Y,NORMAL,LAST,,19,,NORMAL,2,10.526315789473683,,Aspartate aminotransferase increased,,0,0,,0,0,1.105263157894737,1.9090909090909092,0.5833333333333334,NORMAL to NORMAL,0 to 0,Y,,Xanomeline Low Dose,Xanomeline Low Dose,42,1097,2014-01-01,2014-07-09,2014-01-01,2014-07-09,,2014-07-09T09:39,,,701,68,YEARS,M,WHITE,NOT HISPANIC OR LATINO,Xan_Lo,Xanomeline Low Dose,Xan_Lo,Xanomeline Low Dose,USA,2013-12-23,-9,2014-01-01T00:00:00Z,H,2014-07-09T23:59:59Z,H,190,,2014-07-09,COMPLETED,,2014-01-01,,,,,,,,2014-07-09,Y,White,>64,NA,,,,
182,CDISCPILOT01,LB,01-701-1097,76,AST,Aspartate Aminotransferase,CHEMISTRY,16,U/L,11,36,16,16,U/L,11,36,NORMAL,,5,WEEK 4,28,2014-01-29T14:00,29,2014-01-01,2014-07-09,Xanomeline Low Dose,Xanomeline Low Dose,2014-01-29,29,AST,Aspartate Aminotransferase (U/L),5,CHEMISTRY,16,,11,36,,Week 4,5,Y,NORMAL,LAST,,19,,NORMAL,-3,-15.789473684210526,,Aspartate aminotransferase increased,,0,0,,0,0,0.8421052631578947,1.4545454545454546,0.4444444444444444,NORMAL to NORMAL,0 to 0,Y,,Xanomeline Low Dose,Xanomeline Low Dose,43,1097,2014-01-01,2014-07-09,2014-01-01,2014-07-09,,2014-07-09T09:39,,,701,68,YEARS,M,WHITE,NOT HISPANIC OR LATINO,Xan_Lo,Xanomeline Low Dose,Xan_Lo,Xanomeline Low Dose,USA,2013-12-23,-9,2014-01-01T00:00:00Z,H,2014-07-09T23:59:59Z,H,190,,2014-07-09,COMPLETED,,2014-01-01,,,,,,,,2014-07-09,Y,White,>64,NA,,,,
183,CDISCPILOT01,LB,01-701-1097,76,AST,Aspartate Aminotransferase,CHEMISTRY,16,U/L,11,36,16,16,U/L,11,36,NORMAL,,5,WEEK 4,28,2014-01-29T14:00,29,2014-01-01,2014-07-09,Xanomeline Low Dose,Xanomeline Low Dose,2014-01-29,29,AST,Aspartate Aminotransferase (U/L),5,CHEMISTRY,16,,11,36,MINIMUM,POST-BASELINE MINIMUM,9997,Y,NORMAL,LAST,,19,,NORMAL,-3,-15.789473684210526,,Aspartate aminotransferase increased,,0,0,,0,0,0.8421052631578947,1.4545454545454546,0.4444444444444444,NORMAL to NORMAL,0 to 0,Y,,Xanomeline Low Dose,Xanomeline Low Dose,44,1097,2014-01-01,2014-07-09,2014-01-01,2014-07-09,,2014-07-09T09:39,,,701,68,YEARS,M,WHITE,NOT HISPANIC OR LATINO,Xan_Lo,Xanomeline Low Dose,Xan_Lo,Xanomeline Low Dose,USA,2013-12-23,-9,2014-01-01T00:00:00Z,H,2014-07-09T23:59:59Z,H,190,,2014-07-09,COMPLETED,,2014-01-01,,,,,,,,2014-07-09,Y,White,>64,NA,,,,
184,CDISCPILOT01,LB,01-701-1097,106,AST,Aspartate Aminotransferase,CHEMISTRY,19,U/L,11,36,19,19,U/L,11,36,NORMAL,,7,WEEK 6,42,2014-02-11T11:16,42,2014-01-01,2014-07-09,Xanomeline Low Dose,Xanomeline Low Dose,2014-02-11,42,AST,Aspartate Aminotransferase (U/L),5,CHEMISTRY,19,,11,36,,Week 6,7,Y,NORMAL,LAST,,19,,NORMAL,0,0,,Aspartate aminotransferase increased,,0,0,,0,0,1,1.7272727272727273,0.5277777777777778,NORMAL to NORMAL,0 to 0,Y,,Xanomeline Low Dose,Xanomeline Low Dose,45,1097,2014-01-01,2014-07-09,2014-01-01,2014-07-09,,2014-07-09T09:39,,,701,68,YEARS,M,WHITE,NOT HISPANIC OR LATINO,Xan_Lo,Xanomeline Low Dose,Xan_Lo,Xanomeline Low Dose,USA,2013-12-23,-9,2014-01-01T00:00:00Z,H,2014-07-09T23:59:59Z,H,190,,2014-07-09,COMPLETED,,2014-01-01,,,,,,,,2014-07-09,Y,White,>64,NA,,,,
185,CDISCPILOT01,LB,01-701-1097,136,AST,Aspartate Aminotransferase,CHEMISTRY,18,U/L,11,36,18,18,U/L,11,36,NORMAL,,8,WEEK 8,56,2014-02-26T11:10,57,2014-01-01,2014-07-09,Xanomeline Low Dose,Xanomeline Low Dose,2014-02-26,57,AST,Aspartate Aminotransferase (U/L),5,CHEMISTRY,18,,11,36,,Week 8,8,Y,NORMAL,LAST,,19,,NORMAL,-1,-5.263157894736842,,Aspartate aminotransferase increased,,0,0,,0,0,0.9473684210526315,1.6363636363636365,0.5,NORMAL to NORMAL,0 to 0,Y,,Xanomeline Low Dose,Xanomeline Low Dose,46,1097,2014-01-01,2014-07-09,2014-01-01,2014-07-09,,2014-07-09T09:39,,,701,68,YEARS,M,WHITE,NOT HISPANIC OR LATINO,Xan_Lo,Xanomeline Low Dose,Xan_Lo,Xanomeline Low Dose,USA,2013-12-23,-9,2014-01-01T00:00:00Z,H,2014-07-09T23:59:59Z,H,190,,2014-07-09,COMPLETED,,2014-01-01,,,,,,,,2014-07-09,Y,White,>64,NA,,,,
186,CDISCPILOT01,LB,01-701-1097,166,AST,Aspartate Aminotransferase,CHEMISTRY,17,U/L,11,36,17,17,U/L,11,36,NORMAL,,9,WEEK 12,84,2014-03-26T08:55,85,2014-01-01,2014-07-09,Xanomeline Low Dose,Xanomeline Low Dose,2014-03-26,85,AST,Aspartate Aminotransferase (U/L),5,CHEMISTRY,17,,11,36,,Week 12,9,Y,NORMAL,LAST,,19,,NORMAL,-2,-10.526315789473683,,Aspartate aminotransferase increased,,0,0,,0,0,0.8947368421052632,1.5454545454545454,0.4722222222222222,NORMAL to NORMAL,0 to 0,Y,,Xanomeline Low Dose,Xanomeline Low Dose,47,1097,2014-01-01,2014-07-09,2014-01-01,2014-07-09,,2014-07-09T09:39,,,701,68,YEARS,M,WHITE,NOT HISPANIC OR LATINO,Xan_Lo,Xanomeline Low Dose,Xan_Lo,Xanomeline Low Dose,USA,2013-12-23,-9,2014-01-01T00:00:00Z,H,2014-07-09T23:59:59Z,H,190,,2014-07-09,COMPLETED,,2014-01-01,,,,,,,,2014-07-09,Y,White,>64,NA,,,,
187,CDISCPILOT01,LB,01-701-1097,201,AST,Aspartate Aminotransferase,CHEMISTRY,17,U/L,11,36,17,17,U/L,11,36,NORMAL,,10,WEEK 16,112,2014-04-23T11:14,113,2014-01-01,2014-07-09,Xanomeline Low Dose,Xanomeline Low Dose,2014-04-23,113,AST,Aspartate Aminotransferase (U/L),5,CHEMISTRY,17,,11,36,,Week 16,10,Y,NORMAL,LAST,,19,,NORMAL,-2,-10.526315789473683,,Aspartate aminotransferase increased,,0,0,,0,0,0.8947368421052632,1.5454545454545454,0.4722222222222222,NORMAL to NORMAL,0 to 0,Y,,Xanomeline Low Dose,Xanomeline Low Dose,48,1097,2014-01-01,2014-07-09,2014-01-01,2014-07-09,,2014-07-09T09:39,,,701,68,YEARS,M,WHITE,NOT HISPANIC OR LATINO,Xan_Lo,Xanomeline Low Dose,Xan_Lo,Xanomeline Low Dose,USA,2013-12-23,-9,2014-01-01T00:00:00Z,H,2014-07-09T23:59:59Z,H,190,,2014-07-09,COMPLETED,,2014-01-01,,,,,,,,2014-07-09,Y,White,>64,NA,,,,
188,CDISCPILOT01,LB,01-701-1097,231,AST,Aspartate Aminotransferase,CHEMISTRY,16,U/L,11,36,16,16,U/L,11,36,NORMAL,,11,WEEK 20,140,2014-05-21T15:06,141,2014-01-01,2014-07-09,Xanomeline Low Dose,Xanomeline Low Dose,2014-05-21,141,AST,Aspartate Aminotransferase (U/L),5,CHEMISTRY,16,,11,36,,Week 20,11,Y,NORMAL,LAST,,19,,NORMAL,-3,-15.789473684210526,,Aspartate aminotransferase increased,,0,0,,0,0,0.8421052631578947,1.4545454545454546,0.4444444444444444,NORMAL to NORMAL,0 to 0,Y,,Xanomeline Low Dose,Xanomeline Low Dose,49,1097,2014-01-01,2014-07-09,2014-01-01,2014-07-09,,2014-07-09T09:39,,,701,68,YEARS,M,WHITE,NOT HISPANIC OR LATINO,Xan_Lo,Xanomeline Low Dose,Xan_Lo,Xanomeline Low Dose,USA,2013-12-23,-9,2014-01-01T00:00:00Z,H,2014-07-09T23:59:59Z,H,190,,2014-07-09,COMPLETED,,2014-01-01,,,,,,,,2014-07-09,Y,White,>64,NA,,,,
189,CDISCPILOT01,LB,01-701-1097,261,AST,Aspartate Aminotransferase,CHEMISTRY,20,U/L,11,36,20,20,U/L,11,36,NORMAL,,12,WEEK 24,168,2014-06-18T10:41,169,2014-01-01,2014-07-09,Xanomeline Low Dose,Xanomeline Low Dose,2014-06-18,169,AST,Aspartate Aminotransferase (U/L),5,CHEMISTRY,20,,11,36,,Week 24,12,Y,NORMAL,LAST,,19,,NORMAL,1,5.263157894736842,,Aspartate aminotransferase increased,,0,0,,0,0,1.0526315789473684,1.8181818181818181,0.5555555555555556,NORMAL to NORMAL,0 to 0,Y,,Xanomeline Low Dose,Xanomeline Low Dose,50,1097,2014-01-01,2014-07-09,2014-01-01,2014-07-09,,2014-07-09T09:39,,,701,68,YEARS,M,WHITE,NOT HISPANIC OR LATINO,Xan_Lo,Xanomeline Low Dose,Xan_Lo,Xanomeline Low Dose,USA,2013-12-23,-9,2014-01-01T00:00:00Z,H,2014-07-09T23:59:59Z,H,190,,2014-07-09,COMPLETED,,2014-01-01,,,,,,,,2014-07-09,Y,White,>64,NA,,,,
190,CDISCPILOT01,LB,01-701-1097,296,AST,Aspartate Aminotransferase,CHEMISTRY,19,U/L,11,36,19,19,U/L,11,36,NORMAL,,13,WEEK 26,182,2014-07-09T09:39,190,2014-01-01,2014-07-09,Xanomeline Low Dose,Xanomeline Low Dose,2014-07-09,190,AST,Aspartate Aminotransferase (U/L),5,CHEMISTRY,19,,11,36,,Week 26,13,Y,NORMAL,LAST,,19,,NORMAL,0,0,,Aspartate aminotransferase increased,,0,0,,0,0,1,1.7272727272727273,0.5277777777777778,NORMAL to NORMAL,0 to 0,Y,Y,Xanomeline Low Dose,Xanomeline Low Dose,51,1097,2014-01-01,2014-07-09,2014-01-01,2014-07-09,,2014-07-09T09:39,,,701,68,YEARS,M,WHITE,NOT HISPANIC OR LATINO,Xan_Lo,Xanomeline Low Dose,Xan_Lo,Xanomeline Low Dose,USA,2013-12-23,-9,2014-01-01T00:00:00Z,H,2014-07-09T23:59:59Z,H,190,,2014-07-09,COMPLETED,,2014-01-01,,,,,,,,2014-07-09,Y,White,>64,NA,,,,
191,CDISCPILOT01,LB,01-701-1097,296,AST,Aspartate Aminotransferase,CHEMISTRY,19,U/L,11,36,19,19,U/L,11,36,NORMAL,,13,WEEK 26,182,2014-07-09T09:39,190,2014-01-01,2014-07-09,Xanomeline Low Dose,Xanomeline Low Dose,2014-07-09,190,AST,Aspartate Aminotransferase (U/L),5,CHEMISTRY,19,,11,36,LOV,POST-BASELINE LAST,9999,Y,NORMAL,LAST,,19,,NORMAL,0,0,,Aspartate aminotransferase increased,,0,0,,0,0,1,1.7272727272727273,0.5277777777777778,NORMAL to NORMAL,0 to 0,Y,Y,Xanomeline Low Dose,Xanomeline Low Dose,52,1097,2014-01-01,2014-07-09,2014-01-01,2014-07-09,,2014-07-09T09:39,,,701,68,YEARS,M,WHITE,NOT HISPANIC OR LATINO,Xan_Lo,Xanomeline Low Dose,Xan_Lo,Xanomeline Low Dose,USA,2013-12-23,-9,2014-01-01T00:00:00Z,H,2014-07-09T23:59:59Z,H,190,,2014-07-09,COMPLETED,,2014-01-01,,,,,,,,2014-07-09,Y,White,>64,NA,,,,
192,CDISCPILOT01,LB,01-701-1097,6,BILI,Bilirubin,CHEMISTRY,0.4,mg/dL,0.2,1.2,6.84,6.84,umol/L,3,21,NORMAL,Y,1,SCREENING 1,-7,2013-12-23T12:30,-9,2014-01-01,2014-07-09,Xanomeline Low Dose,Xanomeline Low Dose,2013-12-23,-9,BILI,Bilirubin (umol/L),8,CHEMISTRY,6.84,,3,21,,Baseline,0,,NORMAL,LAST,Y,6.84,,NORMAL,,,,Blood bilirubin increased,,0,0,,0,0,1,2.28,0.32571428571428573,NORMAL to NORMAL,0 to 0,,,Xanomeline Low Dose,Xanomeline Low Dose,66,1097,2014-01-01,2014-07-09,2014-01-01,2014-07-09,,2014-07-09T09:39,,,701,68,YEARS,M,WHITE,NOT HISPANIC OR LATINO,Xan_Lo,Xanomeline Low Dose,Xan_Lo,Xanomeline Low Dose,USA,2013-12-23,-9,2014-01-01T00:00:00Z,H,2014-07-09T23:59:59Z,H,190,,2014-07-09,COMPLETED,,2014-01-01,,,,,,,,2014-07-09,Y,White,>64,NA,,,,
193,CDISCPILOT01,LB,01-701-1097,43,BILI,Bilirubin,CHEMISTRY,0.5,mg/dL,0.2,1.2,8.55,8.549999999999999,umol/L,3,21,NORMAL,,4,WEEK 2,14,2014-01-15T10:03,15,2014-01-01,2014-07-09,Xanomeline Low Dose,Xanomeline Low Dose,2014-01-15,15,BILI,Bilirubin (umol/L),8,CHEMISTRY,8.549999999999999,,3,21,,Week 2,4,Y,NORMAL,LAST,,6.84,,NORMAL,1.709999999999999,24.999999999999986,,Blood bilirubin increased,,0,0,,0,0,1.2499999999999998,2.8499999999999996,0.4071428571428571,NORMAL to NORMAL,0 to 0,Y,,Xanomeline Low Dose,Xanomeline Low Dose,67,1097,2014-01-01,2014-07-09,2014-01-01,2014-07-09,,2014-07-09T09:39,,,701,68,YEARS,M,WHITE,NOT HISPANIC OR LATINO,Xan_Lo,Xanomeline Low Dose,Xan_Lo,Xanomeline Low Dose,USA,2013-12-23,-9,2014-01-01T00:00:00Z,H,2014-07-09T23:59:59Z,H,190,,2014-07-09,COMPLETED,,2014-01-01,,,,,,,,2014-07-09,Y,White,>64,NA,,,,
194,CDISCPILOT01,LB,01-701-1097,78,BILI,Bilirubin,CHEMISTRY,0.6,mg/dL,0.2,1.2,10.26,10.26,umol/L,3,21,NORMAL,,5,WEEK 4,28,2014-01-29T14:00,29,2014-01-01,2014-07-09,Xanomeline Low Dose,Xanomeline Low Dose,2014-01-29,29,BILI,Bilirubin (umol/L),8,CHEMISTRY,10.26,,3,21,,Week 4,5,Y,NORMAL,LAST,,6.84,,NORMAL,3.42,50,,Blood bilirubin increased,,0,0,,0,0,1.5,3.42,0.48857142857142855,NORMAL to NORMAL,0 to 0,Y,,Xanomeline Low Dose,Xanomeline Low Dose,68,1097,2014-01-01,2014-07-09,2014-01-01,2014-07-09,,2014-07-09T09:39,,,701,68,YEARS,M,WHITE,NOT HISPANIC OR LATINO,Xan_Lo,Xanomeline Low Dose,Xan_Lo,Xanomeline Low Dose,USA,2013-12-23,-9,2014-01-01T00:00:00Z,H,2014-07-09T23:59:59Z,H,190,,2014-07-09,COMPLETED,,2014-01-01,,,,,,,,2014-07-09,Y,White,>64,NA,,,,
195,CDISCPILOT01,LB,01-701-1097,78,BILI,Bilirubin,CHEMISTRY,0.6,mg/dL,0.2,1.2,10.26,10.26,umol/L,3,21,NORMAL,,5,WEEK 4,28,2014-01-29T14:00,29,2014-01-01,2014-07-09,Xanomeline Low Dose,Xanomeline Low Dose,2014-01-29,29,BILI,Bilirubin (umol/L),8,CHEMISTRY,10.26,,3,21,MAXIMUM,POST-BASELINE MAXIMUM,9998,Y,NORMAL,LAST,,6.84,,NORMAL,3.42,50,,Blood bilirubin increased,,0,0,,0,0,1.5,3.42,0.48857142857142855,NORMAL to NORMAL,0 to 0,Y,,Xanomeline Low Dose,Xanomeline Low Dose,69,1097,2014-01-01,2014-07-09,2014-01-01,2014-07-09,,2014-07-09T09:39,,,701,68,YEARS,M,WHITE,NOT HISPANIC OR LATINO,Xan_Lo,Xanomeline Low Dose,Xan_Lo,Xanomeline Low Dose,USA,2013-12-23,-9,2014-01-01T00:00:00Z,H,2014-07-09T23:59:59Z,H,190,,2014-07-09,COMPLETED,,2014-01-01,,,,,,,,2014-07-09,Y,White,>64,NA,,,,
196,CDISCPILOT01,LB,01-701-1097,108,BILI,Bilirubin,CHEMISTRY,0.5,mg/dL,0.2,1.2,8.55,8.549999999999999,umol/L,3,21,NORMAL,,7,WEEK 6,42,2014-02-11T11:16,42,2014-01-01,2014-07-09,Xanomeline Low Dose,Xanomeline Low Dose,2014-02-11,42,BILI,Bilirubin (umol/L),8,CHEMISTRY,8.549999999999999,,3,21,,Week 6,7,Y,NORMAL,LAST,,6.84,,NORMAL,1.709999999999999,24.999999999999986,,Blood bilirubin increased,,0,0,,0,0,1.2499999999999998,2.8499999999999996,0.4071428571428571,NORMAL to NORMAL,0 to 0,Y,,Xanomeline Low Dose,Xanomeline Low Dose,70,1097,2014-01-01,2014-07-09,2014-01-01,2014-07-09,,2014-07-09T09:39,,,701,68,YEARS,M,WHITE,NOT HISPANIC OR LATINO,Xan_Lo,Xanomeline Low Dose,Xan_Lo,Xanomeline Low Dose,USA,2013-12-23,-9,2014-01-01T00:00:00Z,H,2014-07-09T23:59:59Z,H,190,,2014-07-09,COMPLETED,,2014-01-01,,,,,,,,2014-07-09,Y,White,>64,NA,,,,
197,CDISCPILOT01,LB,01-701-1097,138,BILI,Bilirubin,CHEMISTRY,0.5,mg/dL,0.2,1.2,8.55,8.549999999999999,umol/L,3,21,NORMAL,,8,WEEK 8,56,2014-02-26T11:10,57,2014-01-01,2014-07-09,Xanomeline Low Dose,Xanomeline Low Dose,2014-02-26,57,BILI,Bilirubin (umol/L),8,CHEMISTRY,8.549999999999999,,3,21,,Week 8,8,Y,NORMAL,LAST,,6.84,,NORMAL,1.709999999999999,24.999999999999986,,Blood bilirubin increased,,0,0,,0,0,1.2499999999999998,2.8499999999999996,0.4071428571428571,NORMAL to NORMAL,0 to 0,Y,,Xanomeline Low Dose,Xanomeline Low Dose,71,1097,2014-01-01,2014-07-09,2014-01-01,2014-07-09,,2014-07-09T09:39,,,701,68,YEARS,M,WHITE,NOT HISPANIC OR LATINO,Xan_Lo,Xanomeline Low Dose,Xan_Lo,Xanomeline Low Dose,USA,2013-12-23,-9,2014-01-01T00:00:00Z,H,2014-07-09T23:59:59Z,H,190,,2014-07-09,COMPLETED,,2014-01-01,,,,,,,,2014-07-09,Y,White,>64,NA,,,,
198,CDISCPILOT01,LB,01-701-1097,168,BILI,Bilirubin,CHEMISTRY,0.4,mg/dL,0.2,1.2,6.84,6.84,umol/L,3,21,NORMAL,,9,WEEK 12,84,2014-03-26T08:55,85,2014-01-01,2014-07-09,Xanomeline Low Dose,Xanomeline Low Dose,2014-03-26,85,BILI,Bilirubin (umol/L),8,CHEMISTRY,6.84,,3,21,,Week 12,9,Y,NORMAL,LAST,,6.84,,NORMAL,0,0,,Blood bilirubin increased,,0,0,,0,0,1,2.28,0.32571428571428573,NORMAL to NORMAL,0 to 0,Y,,Xanomeline Low Dose,Xanomeline Low Dose,72,1097,2014-01-01,2014-07-09,2014-01-01,2014-07-09,,2014-07-09T09:39,,,701,68,YEARS,M,WHITE,NOT HISPANIC OR LATINO,Xan_Lo,Xanomeline Low Dose,Xan_Lo,Xanomeline Low Dose,USA,2013-12-23,-9,2014-01-01T00:00:00Z,H,2014-07-09T23:59:59Z,H,190,,2014-07-09,COMPLETED,,2014-01-01,,,,,,,,2014-07-09,Y,White,>64,NA,,,,
199,CDISCPILOT01,LB,01-701-1097,203,BILI,Bilirubin,CHEMISTRY,0.4,mg/dL,0.2,1.2,6.84,6.84,umol/L,3,21,NORMAL,,10,WEEK 16,112,2014-04-23T11:14,113,2014-01-01,2014-07-09,Xanomeline Low Dose,Xanomeline Low Dose,2014-04-23,113,BILI,Bilirubin (umol/L),8,CHEMISTRY,6.84,,3,21,,Week 16,10,Y,NORMAL,LAST,,6.84,,NORMAL,0,0,,Blood bilirubin increased,,0,0,,0,0,1,2.28,0.32571428571428573,NORMAL to NORMAL,0 to 0,Y,,Xanomeline Low Dose,Xanomeline Low Dose,73,1097,2014-01-01,2014-07-09,2014-01-01,2014-07-09,,2014-07-09T09:39,,,701,68,YEARS,M,WHITE,NOT HISPANIC OR LATINO,Xan_Lo,Xanomeline Low Dose,Xan_Lo,Xanomeline Low Dose,USA,2013-12-23,-9,2014-01-01T00:00:00Z,H,2014-07-09T23:59:59Z,H,190,,2014-07-09,COMPLETED,,2014-01-01,,,,,,,,2014-07-09,Y,White,>64,NA,,,,
200,CDISCPILOT01,LB,01-701-1097,233,BILI,Bilirubin,CHEMISTRY,0.3,mg/dL,0.2,1.2,5.13,5.13,umol/L,3,21,NORMAL,,11,WEEK 20,140,2014-05-21T15:06,141,2014-01-01,2014-07-09,Xanomeline Low Dose,Xanomeline Low Dose,2014-05-21,141,BILI,Bilirubin (umol/L),8,CHEMISTRY,5.13,,3,21,,Week 20,11,Y,NORMAL,LAST,,6.84,,NORMAL,-1.71,-25,,Blood bilirubin increased,,0,0,,0,0,0.75,1.71,0.24428571428571427,NORMAL to NORMAL,0 to 0,Y,,Xanomeline Low Dose,Xanomeline Low Dose,74,1097,2014-01-01,2014-07-09,2014-01-01,2014-07-09,,2014-07-09T09:39,,,701,68,YEARS,M,WHITE,NOT HISPANIC OR LATINO,Xan_Lo,Xanomeline Low Dose,Xan_Lo,Xanomeline Low Dose,USA,2013-12-23,-9,2014-01-01T00:00:00Z,H,2014-07-09T23:59:59Z,H,190,,2014-07-09,COMPLETED,,2014-01-01,,,,,,,,2014-07-09,Y,White,>64,NA,,,,
201,CDISCPILOT01,LB,01-701-1097,233,BILI,Bilirubin,CHEMISTRY,0.3,mg/dL,0.2,1.2,5.13,5.13,umol/L,3,21,NORMAL,,11,WEEK 20,140,2014-05-21T15:06,141,2014-01-01,2014-07-09,Xanomeline Low Dose,Xanomeline Low Dose,2014-05-21,141,BILI,Bilirubin (umol/L),8,CHEMISTRY,5.13,,3,21,MINIMUM,POST-BASELINE MINIMUM,9997,Y,NORMAL,LAST,,6.84,,NORMAL,-1.71,-25,,Blood bilirubin increased,,0,0,,0,0,0.75,1.71,0.24428571428571427,NORMAL to NORMAL,0 to 0,Y,,Xanomeline Low Dose,Xanomeline Low Dose,75,1097,2014-01-01,2014-07-09,2014-01-01,2014-07-09,,2014-07-09T09:39,,,701,68,YEARS,M,WHITE,NOT HISPANIC OR LATINO,Xan_Lo,Xanomeline Low Dose,Xan_Lo,Xanomeline Low Dose,USA,2013-12-23,-9,2014-01-01T00:00:00Z,H,2014-07-09T23:59:59Z,H,190,,2014-07-09,COMPLETED,,2014-01-01,,,,,,,,2014-07-09,Y,White,>64,NA,,,,
202,CDISCPILOT01,LB,01-701-1097,263,BILI,Bilirubin,CHEMISTRY,0.6,mg/dL,0.2,1.2,10.26,10.26,umol/L,3,21,NORMAL,,12,WEEK 24,168,2014-06-18T10:41,169,2014-01-01,2014-07-09,Xanomeline Low Dose,Xanomeline Low Dose,2014-06-18,169,BILI,Bilirubin (umol/L),8,CHEMISTRY,10.26,,3,21,,Week 24,12,Y,NORMAL,LAST,,6.84,,NORMAL,3.42,50,,Blood bilirubin increased,,0,0,,0,0,1.5,3.42,0.48857142857142855,NORMAL to NORMAL,0 to 0,Y,,Xanomeline Low Dose,Xanomeline Low Dose,76,1097,2014-01-01,2014-07-09,2014-01-01,2014-07-09,,2014-07-09T09:39,,,701,68,YEARS,M,WHITE,NOT HISPANIC OR LATINO,Xan_Lo,Xanomeline Low Dose,Xan_Lo,Xanomeline Low Dose,USA,2013-12-23,-9,2014-01-01T00:00:00Z,H,2014-07-09T23:59:59Z,H,190,,2014-07-09,COMPLETED,,2014-01-01,,,,,,,,2014-07-09,Y,White,>64,NA,,,,
203,CDISCPILOT01,LB,01-701-1097,298,BILI,Bilirubin,CHEMISTRY,0.5,mg/dL,0.2,1.2,8.55,8.549999999999999,umol/L,3,21,NORMAL,,13,WEEK 26,182,2014-07-09T09:39,190,2014-01-01,2014-07-09,Xanomeline Low Dose,Xanomeline Low Dose,2014-07-09,190,BILI,Bilirubin (umol/L),8,CHEMISTRY,8.549999999999999,,3,21,,Week 26,13,Y,NORMAL,LAST,,6.84,,NORMAL,1.709999999999999,24.999999999999986,,Blood bilirubin increased,,0,0,,0,0,1.2499999999999998,2.8499999999999996,0.4071428571428571,NORMAL to NORMAL,0 to 0,Y,Y,Xanomeline Low Dose,Xanomeline Low Dose,77,1097,2014-01-01,2014-07-09,2014-01-01,2014-07-09,,2014-07-09T09:39,,,701,68,YEARS,M,WHITE,NOT HISPANIC OR LATINO,Xan_Lo,Xanomeline Low Dose,Xan_Lo,Xanomeline Low Dose,USA,2013-12-23,-9,2014-01-01T00:00:00Z,H,2014-07-09T23:59:59Z,H,190,,2014-07-09,COMPLETED,,2014-01-01,,,,,,,,2014-07-09,Y,White,>64,NA,,,,
204,CDISCPILOT01,LB,01-701-1097,298,BILI,Bilirubin,CHEMISTRY,0.5,mg/dL,0.2,1.2,8.55,8.549999999999999,umol/L,3,21,NORMAL,,13,WEEK 26,182,2014-07-09T09:39,190,2014-01-01,2014-07-09,Xanomeline Low Dose,Xanomeline Low Dose,2014-07-09,190,BILI,Bilirubin (umol/L),8,CHEMISTRY,8.549999999999999,,3,21,LOV,POST-BASELINE LAST,9999,Y,NORMAL,LAST,,6.84,,NORMAL,1.709999999999999,24.999999999999986,,Blood bilirubin increased,,0,0,,0,0,1.2499999999999998,2.8499999999999996,0.4071428571428571,NORMAL to NORMAL,0 to 0,Y,Y,Xanomeline Low Dose,Xanomeline Low Dose,78,1097,2014-01-01,2014-07-09,2014-01-01,2014-07-09,,2014-07-09T09:39,,,701,68,YEARS,M,WHITE,NOT HISPANIC OR LATINO,Xan_Lo,Xanomeline Low Dose,Xan_Lo,Xanomeline Low Dose,USA,2013-12-23,-9,2014-01-01T00:00:00Z,H,2014-07-09T23:59:59Z,H,190,,2014-07-09,COMPLETED,,2014-01-01,,,,,,,,2014-07-09,Y,White,>64,NA,,,,
205,CDISCPILOT01,LB,01-705-1186,3,ALT,Alanine Aminotransferase,CHEMISTRY,50,U/L,6,32,50,50,U/L,6,32,HIGH,Y,1,SCREENING 1,-7,2014-01-03T10:00,-5,2014-01-08,2014-01-26,Placebo,Placebo,2014-01-03,-5,ALT,Alanine Aminotransferase (U/L),3,CHEMISTRY,50,,6,32,,Baseline,0,,HIGH,LAST,Y,50,,HIGH,,,,Alanine aminotransferase increased,,1,1,,1,1,1,8.333333333333334,1.5625,HIGH to HIGH,1 to 1,,,Placebo,Placebo,19,1186,2014-01-08,2014-02-07,2014-01-08,2014-01-26,,2014-02-07T15:20,,,705,84,YEARS,F,WHITE,NOT HISPANIC OR LATINO,Pbo,Placebo,Pbo,Placebo,USA,2014-01-03,-5,2014-01-08T00:00:00Z,H,2014-01-26T23:59:59Z,H,19,,2014-02-07,DISCONTINUED,,2014-01-08,,,,,,,,2014-02-07,Y,White,>64,NA,,,,
206,CDISCPILOT01,LB,01-705-1186,40,ALT,Alanine Aminotransferase,CHEMISTRY,104,U/L,6,32,104,104,U/L,6,32,HIGH,,4,WEEK 2,14,2014-01-23T09:16,16,2014-01-08,2014-01-26,Placebo,Placebo,2014-01-23,16,ALT,Alanine Aminotransferase (U/L),3,CHEMISTRY,104,,6,32,,Week 2,4,Y,HIGH,LAST,,50,,HIGH,54,108,,Alanine aminotransferase increased,,2,2,,1,1,2.08,17.333333333333332,3.25,HIGH to HIGH,1 to 2,Y,,Placebo,Placebo,20,1186,2014-01-08,2014-02-07,2014-01-08,2014-01-26,,2014-02-07T15:20,,,705,84,YEARS,F,WHITE,NOT HISPANIC OR LATINO,Pbo,Placebo,Pbo,Placebo,USA,2014-01-03,-5,2014-01-08T00:00:00Z,H,2014-01-26T23:59:59Z,H,19,,2014-02-07,DISCONTINUED,,2014-01-08,,,,,,,,2014-02-07,Y,White,>64,NA,,,,
207,CDISCPILOT01,LB,01-705-1186,40,ALT,Alanine Aminotransferase,CHEMISTRY,104,U/L,6,32,104,104,U/L,6,32,HIGH,,4,WEEK 2,14,2014-01-23T09:16,16,2014-01-08,2014-01-26,Placebo,Placebo,2014-01-23,16,ALT,Alanine Aminotransferase (U/L),3,CHEMISTRY,104,,6,32,MAXIMUM,POST-BASELINE MAXIMUM,9998,Y,HIGH,LAST,,50,,HIGH,54,108,,Alanine aminotransferase increased,,2,2,,1,1,2.08,17.333333333333332,3.25,HIGH to HIGH,1 to 2,Y,,Placebo,Placebo,21,1186,2014-01-08,2014-02-07,2014-01-08,2014-01-26,,2014-02-07T15:20,,,705,84,YEARS,F,WHITE,NOT HISPANIC OR LATINO,Pbo,Placebo,Pbo,Placebo,USA,2014-01-03,-5,2014-01-08T00:00:00Z,H,2014-01-26T23:59:59Z,H,19,,2014-02-07,DISCONTINUED,,2014-01-08,,,,,,,,2014-02-07,Y,White,>64,NA,,,,
208,CDISCPILOT01,LB,01-705-1186,76,ALT,Alanine Aminotransferase,CHEMISTRY,95,U/L,6,32,95,95,U/L,6,32,HIGH,,4.1,UNSCHEDULED 4.1,,2014-01-26T09:18,19,2014-01-08,2014-01-26,Placebo,Placebo,2014-01-26,19,ALT,Alanine Aminotransferase (U/L),3,CHEMISTRY,95,,6,32,,Unscheduled 4.1,4.1,Y,HIGH,LAST,,50,,HIGH,45,90,,Alanine aminotransferase increased,,1,1,,1,1,1.9,15.833333333333334,2.96875,HIGH to HIGH,1 to 1,Y,Y,Placebo,Placebo,22,1186,2014-01-08,2014-02-07,2014-01-08,2014-01-26,,2014-02-07T15:20,,,705,84,YEARS,F,WHITE,NOT HISPANIC OR LATINO,Pbo,Placebo,Pbo,Placebo,USA,2014-01-03,-5,2014-01-08T00:00:00Z,H,2014-01-26T23:59:59Z,H,19,,2014-02-07,DISCONTINUED,,2014-01-08,,,,,,,,2014-02-07,Y,White,>64,NA,,,,
209,CDISCPILOT01,LB,01-705-1186,76,ALT,Alanine Aminotransferase,CHEMISTRY,95,U/L,6,32,95,95,U/L,6,32,HIGH,,4.1,UNSCHEDULED 4.1,,2014-01-26T09:18,19,2014-01-08,2014-01-26,Placebo,Placebo,2014-01-26,19,ALT,Alanine Aminotransferase (U/L),3,CHEMISTRY,95,,6,32,MINIMUM,POST-BASELINE MINIMUM,9997,Y,HIGH,LAST,,50,,HIGH,45,90,,Alanine aminotransferase increased,,1,1,,1,1,1.9,15.833333333333334,2.96875,HIGH to HIGH,1 to 1,Y,Y,Placebo,Placebo,23,1186,2014-01-08,2014-02-07,2014-01-08,2014-01-26,,2014-02-07T15:20,,,705,84,YEARS,F,WHITE,NOT HISPANIC OR LATINO,Pbo,Placebo,Pbo,Placebo,USA,2014-01-03,-5,2014-01-08T00:00:00Z,H,2014-01-26T23:59:59Z,H,19,,2014-02-07,DISCONTINUED,,2014-01-08,,,,,,,,2014-02-07,Y,White,>64,NA,,,,
210,CDISCPILOT01,LB,01-705-1186,76,ALT,Alanine Aminotransferase,CHEMISTRY,95,U/L,6,32,95,95,U/L,6,32,HIGH,,4.1,UNSCHEDULED 4.1,,2014-01-26T09:18,19,2014-01-08,2014-01-26,Placebo,Placebo,2014-01-26,19,ALT,Alanine Aminotransferase (U/L),3,CHEMISTRY,95,,6,32,LOV,POST-BASELINE LAST,9999,Y,HIGH,LAST,,50,,HIGH,45,90,,Alanine aminotransferase increased,,1,1,,1,1,1.9,15.833333333333334,2.96875,HIGH to HIGH,1 to 1,Y,Y,Placebo,Placebo,24,1186,2014-01-08,2014-02-07,2014-01-08,2014-01-26,,2014-02-07T15:20,,,705,84,YEARS,F,WHITE,NOT HISPANIC OR LATINO,Pbo,Placebo,Pbo,Placebo,USA,2014-01-03,-5,2014-01-08T00:00:00Z,H,2014-01-26T23:59:59Z,H,19,,2014-02-07,DISCONTINUED,,2014-01-08,,,,,,,,2014-02-07,Y,White,>64,NA,,,,
211,CDISCPILOT01,LB,01-705-1186,127,ALT,Alanine Aminotransferase,CHEMISTRY,107,U/L,6,32,107,107,U/L,6,32,HIGH,,5,WEEK 4,28,2014-01-29T09:10,22,2014-01-08,2014-01-26,Placebo,Placebo,2014-01-29,22,ALT,Alanine Aminotransferase (U/L),3,CHEMISTRY,107,,6,32,,Week 4,5,,HIGH,LAST,,50,,HIGH,57,113.99999999999999,,Alanine aminotransferase increased,,2,2,,1,1,2.14,17.833333333333332,3.34375,HIGH to HIGH,1 to 2,,,Placebo,Placebo,25,1186,2014-01-08,2014-02-07,2014-01-08,2014-01-26,,2014-02-07T15:20,,,705,84,YEARS,F,WHITE,NOT HISPANIC OR LATINO,Pbo,Placebo,Pbo,Placebo,USA,2014-01-03,-5,2014-01-08T00:00:00Z,H,2014-01-26T23:59:59Z,H,19,,2014-02-07,DISCONTINUED,,2014-01-08,,,,,,,,2014-02-07,Y,White,>64,NA,,,,
212,CDISCPILOT01,LB,01-705-1186,112,ALT,Alanine Aminotransferase,CHEMISTRY,92,U/L,6,32,92,92,U/L,6,32,HIGH,,4.199999999999999,UNSCHEDULED 4.2,,2014-02-01T09:00,25,2014-01-08,2014-01-26,Placebo,Placebo,2014-02-01,25,ALT,Alanine Aminotransferase (U/L),3,CHEMISTRY,92,,6,32,,Unscheduled 4.2,4.199999999999999,,HIGH,LAST,,50,,HIGH,42,84,,Alanine aminotransferase increased,,1,1,,1,1,1.84,15.333333333333334,2.875,HIGH to HIGH,1 to 1,,,Placebo,Placebo,26,1186,2014-01-08,2014-02-07,2014-01-08,2014-01-26,,2014-02-07T15:20,,,705,84,YEARS,F,WHITE,NOT HISPANIC OR LATINO,Pbo,Placebo,Pbo,Placebo,USA,2014-01-03,-5,2014-01-08T00:00:00Z,H,2014-01-26T23:59:59Z,H,19,,2014-02-07,DISCONTINUED,,2014-01-08,,,,,,,,2014-02-07,Y,White,>64,NA,,,,
213,CDISCPILOT01,LB,01-705-1186,162,ALT,Alanine Aminotransferase,CHEMISTRY,73,U/L,6,32,73,73,U/L,6,32,HIGH,,5.1,UNSCHEDULED 5.1,,2014-02-07T15:20,31,2014-01-08,2014-01-26,Placebo,Placebo,2014-02-07,31,ALT,Alanine Aminotransferase (U/L),3,CHEMISTRY,73,,6,32,,Unscheduled 5.1,5.1,,HIGH,LAST,,50,,HIGH,23,46,,Alanine aminotransferase increased,,1,1,,1,1,1.46,12.166666666666666,2.28125,HIGH to HIGH,1 to 1,,,Placebo,Placebo,27,1186,2014-01-08,2014-02-07,2014-01-08,2014-01-26,,2014-02-07T15:20,,,705,84,YEARS,F,WHITE,NOT HISPANIC OR LATINO,Pbo,Placebo,Pbo,Placebo,USA,2014-01-03,-5,2014-01-08T00:00:00Z,H,2014-01-26T23:59:59Z,H,19,,2014-02-07,DISCONTINUED,,2014-01-08,,,,,,,,2014-02-07,Y,White,>64,NA,,,,
214,CDISCPILOT01,LB,01-705-1186,4,AST,Aspartate Aminotransferase,CHEMISTRY,54,U/L,9,34,54,54,U/L,9,34,HIGH,Y,1,SCREENING 1,-7,2014-01-03T10:00,-5,2014-01-08,2014-01-26,Placebo,Placebo,2014-01-03,-5,AST,Aspartate Aminotransferase (U/L),5,CHEMISTRY,54,,9,34,,Baseline,0,,HIGH,LAST,Y,54,,HIGH,,,,Aspartate aminotransferase increased,,1,1,,1,1,1,6,1.588235294117647,HIGH to HIGH,1 to 1,,,Placebo,Placebo,29,1186,2014-01-08,2014-02-07,2014-01-08,2014-01-26,,2014-02-07T15:20,,,705,84,YEARS,F,WHITE,NOT HISPANIC OR LATINO,Pbo,Placebo,Pbo,Placebo,USA,2014-01-03,-5,2014-01-08T00:00:00Z,H,2014-01-26T23:59:59Z,H,19,,2014-02-07,DISCONTINUED,,2014-01-08,,,,,,,,2014-02-07,Y,White,>64,NA,,,,
215,CDISCPILOT01,LB,01-705-1186,41,AST,Aspartate Aminotransferase,CHEMISTRY,118,U/L,9,34,118,118,U/L,9,34,HIGH,,4,WEEK 2,14,2014-01-23T09:16,16,2014-01-08,2014-01-26,Placebo,Placebo,2014-01-23,16,AST,Aspartate Aminotransferase (U/L),5,CHEMISTRY,118,,9,34,,Week 2,4,Y,HIGH,LAST,,54,,HIGH,64,118.5185185185185,,Aspartate aminotransferase increased,,2,2,,1,1,2.185185185185185,13.11111111111111,3.4705882352941178,HIGH to HIGH,1 to 2,Y,,Placebo,Placebo,30,1186,2014-01-08,2014-02-07,2014-01-08,2014-01-26,,2014-02-07T15:20,,,705,84,YEARS,F,WHITE,NOT HISPANIC OR LATINO,Pbo,Placebo,Pbo,Placebo,USA,2014-01-03,-5,2014-01-08T00:00:00Z,H,2014-01-26T23:59:59Z,H,19,,2014-02-07,DISCONTINUED,,2014-01-08,,,,,,,,2014-02-07,Y,White,>64,NA,,,,
216,CDISCPILOT01,LB,01-705-1186,41,AST,Aspartate Aminotransferase,CHEMISTRY,118,U/L,9,34,118,118,U/L,9,34,HIGH,,4,WEEK 2,14,2014-01-23T09:16,16,2014-01-08,2014-01-26,Placebo,Placebo,2014-01-23,16,AST,Aspartate Aminotransferase (U/L),5,CHEMISTRY,118,,9,34,MAXIMUM,POST-BASELINE MAXIMUM,9998,Y,HIGH,LAST,,54,,HIGH,64,118.5185185185185,,Aspartate aminotransferase increased,,2,2,,1,1,2.185185185185185,13.11111111111111,3.4705882352941178,HIGH to HIGH,1 to 2,Y,,Placebo,Placebo,31,1186,2014-01-08,2014-02-07,2014-01-08,2014-01-26,,2014-02-07T15:20,,,705,84,YEARS,F,WHITE,NOT HISPANIC OR LATINO,Pbo,Placebo,Pbo,Placebo,USA,2014-01-03,-5,2014-01-08T00:00:00Z,H,2014-01-26T23:59:59Z,H,19,,2014-02-07,DISCONTINUED,,2014-01-08,,,,,,,,2014-02-07,Y,White,>64,NA,,,,
217,CDISCPILOT01,LB,01-705-1186,77,AST,Aspartate Aminotransferase,CHEMISTRY,115,U/L,9,34,115,115,U/L,9,34,HIGH,,4.1,UNSCHEDULED 4.1,,2014-01-26T09:18,19,2014-01-08,2014-01-26,Placebo,Placebo,2014-01-26,19,AST,Aspartate Aminotransferase (U/L),5,CHEMISTRY,115,,9,34,,Unscheduled 4.1,4.1,Y,HIGH,LAST,,54,,HIGH,61,112.96296296296295,,Aspartate aminotransferase increased,,2,2,,1,1,2.1296296296296298,12.777777777777779,3.3823529411764706,HIGH to HIGH,1 to 2,Y,Y,Placebo,Placebo,32,1186,2014-01-08,2014-02-07,2014-01-08,2014-01-26,,2014-02-07T15:20,,,705,84,YEARS,F,WHITE,NOT HISPANIC OR LATINO,Pbo,Placebo,Pbo,Placebo,USA,2014-01-03,-5,2014-01-08T00:00:00Z,H,2014-01-26T23:59:59Z,H,19,,2014-02-07,DISCONTINUED,,2014-01-08,,,,,,,,2014-02-07,Y,White,>64,NA,,,,
218,CDISCPILOT01,LB,01-705-1186,77,AST,Aspartate Aminotransferase,CHEMISTRY,115,U/L,9,34,115,115,U/L,9,34,HIGH,,4.1,UNSCHEDULED 4.1,,2014-01-26T09:18,19,2014-01-08,2014-01-26,Placebo,Placebo,2014-01-26,19,AST,Aspartate Aminotransferase (U/L),5,CHEMISTRY,115,,9,34,MINIMUM,POST-BASELINE MINIMUM,9997,Y,HIGH,LAST,,54,,HIGH,61,112.96296296296295,,Aspartate aminotransferase increased,,2,2,,1,1,2.1296296296296298,12.777777777777779,3.3823529411764706,HIGH to HIGH,1 to 2,Y,Y,Placebo,Placebo,33,1186,2014-01-08,2014-02-07,2014-01-08,2014-01-26,,2014-02-07T15:20,,,705,84,YEARS,F,WHITE,NOT HISPANIC OR LATINO,Pbo,Placebo,Pbo,Placebo,USA,2014-01-03,-5,2014-01-08T00:00:00Z,H,2014-01-26T23:59:59Z,H,19,,2014-02-07,DISCONTINUED,,2014-01-08,,,,,,,,2014-02-07,Y,White,>64,NA,,,,
219,CDISCPILOT01,LB,01-705-1186,77,AST,Aspartate Aminotransferase,CHEMISTRY,115,U/L,9,34,115,115,U/L,9,34,HIGH,,4.1,UNSCHEDULED 4.1,,2014-01-26T09:18,19,2014-01-08,2014-01-26,Placebo,Placebo,2014-01-26,19,AST,Aspartate Aminotransferase (U/L),5,CHEMISTRY,115,,9,34,LOV,POST-BASELINE LAST,9999,Y,HIGH,LAST,,54,,HIGH,61,112.96296296296295,,Aspartate aminotransferase increased,,2,2,,1,1,2.1296296296296298,12.777777777777779,3.3823529411764706,HIGH to HIGH,1 to 2,Y,Y,Placebo,Placebo,34,1186,2014-01-08,2014-02-07,2014-01-08,2014-01-26,,2014-02-07T15:20,,,705,84,YEARS,F,WHITE,NOT HISPANIC OR LATINO,Pbo,Placebo,Pbo,Placebo,USA,2014-01-03,-5,2014-01-08T00:00:00Z,H,2014-01-26T23:59:59Z,H,19,,2014-02-07,DISCONTINUED,,2014-01-08,,,,,,,,2014-02-07,Y,White,>64,NA,,,,
220,CDISCPILOT01,LB,01-705-1186,128,AST,Aspartate Aminotransferase,CHEMISTRY,135,U/L,9,34,135,135,U/L,9,34,HIGH,,5,WEEK 4,28,2014-01-29T09:10,22,2014-01-08,2014-01-26,Placebo,Placebo,2014-01-29,22,AST,Aspartate Aminotransferase (U/L),5,CHEMISTRY,135,,9,34,,Week 4,5,,HIGH,LAST,,54,,HIGH,81,150,,Aspartate aminotransferase increased,,2,2,,1,1,2.5,15,3.9705882352941178,HIGH to HIGH,1 to 2,,,Placebo,Placebo,35,1186,2014-01-08,2014-02-07,2014-01-08,2014-01-26,,2014-02-07T15:20,,,705,84,YEARS,F,WHITE,NOT HISPANIC OR LATINO,Pbo,Placebo,Pbo,Placebo,USA,2014-01-03,-5,2014-01-08T00:00:00Z,H,2014-01-26T23:59:59Z,H,19,,2014-02-07,DISCONTINUED,,2014-01-08,,,,,,,,2014-02-07,Y,White,>64,NA,,,,
221,CDISCPILOT01,LB,01-705-1186,113,AST,Aspartate Aminotransferase,CHEMISTRY,114,U/L,9,34,114,114,U/L,9,34,HIGH,,4.199999999999999,UNSCHEDULED 4.2,,2014-02-01T09:00,25,2014-01-08,2014-01-26,Placebo,Placebo,2014-02-01,25,AST,Aspartate Aminotransferase (U/L),5,CHEMISTRY,114,,9,34,,Unscheduled 4.2,4.199999999999999,,HIGH,LAST,,54,,HIGH,60,111.11111111111111,,Aspartate aminotransferase increased,,2,2,,1,1,2.111111111111111,12.666666666666666,3.3529411764705883,HIGH to HIGH,1 to 2,,,Placebo,Placebo,36,1186,2014-01-08,2014-02-07,2014-01-08,2014-01-26,,2014-02-07T15:20,,,705,84,YEARS,F,WHITE,NOT HISPANIC OR LATINO,Pbo,Placebo,Pbo,Placebo,USA,2014-01-03,-5,2014-01-08T00:00:00Z,H,2014-01-26T23:59:59Z,H,19,,2014-02-07,DISCONTINUED,,2014-01-08,,,,,,,,2014-02-07,Y,White,>64,NA,,,,
222,CDISCPILOT01,LB,01-705-1186,164,AST,Aspartate Aminotransferase,CHEMISTRY,92,U/L,9,34,92,92,U/L,9,34,HIGH,,5.1,UNSCHEDULED 5.1,,2014-02-07T15:20,31,2014-01-08,2014-01-26,Placebo,Placebo,2014-02-07,31,AST,Aspartate Aminotransferase (U/L),5,CHEMISTRY,92,,9,34,,Unscheduled 5.1,5.1,,HIGH,LAST,,54,,HIGH,38,70.37037037037037,,Aspartate aminotransferase increased,,1,1,,1,1,1.7037037037037037,10.222222222222221,2.7058823529411766,HIGH to HIGH,1 to 1,,,Placebo,Placebo,37,1186,2014-01-08,2014-02-07,2014-01-08,2014-01-26,,2014-02-07T15:20,,,705,84,YEARS,F,WHITE,NOT HISPANIC OR LATINO,Pbo,Placebo,Pbo,Placebo,USA,2014-01-03,-5,2014-01-08T00:00:00Z,H,2014-01-26T23:59:59Z,H,19,,2014-02-07,DISCONTINUED,,2014-01-08,,,,,,,,2014-02-07,Y,White,>64,NA,,,,
223,CDISCPILOT01,LB,01-705-1186,6,BILI,Bilirubin,CHEMISTRY,1.5,mg/dL,0.2,1.2,25.65,25.65,umol/L,3,21,HIGH,Y,1,SCREENING 1,-7,2014-01-03T10:00,-5,2014-01-08,2014-01-26,Placebo,Placebo,2014-01-03,-5,BILI,Bilirubin (umol/L),8,CHEMISTRY,25.65,,3,21,,Baseline,0,,HIGH,LAST,Y,25.65,,HIGH,,,,Blood bilirubin increased,,1,1,,1,1,1,8.549999999999999,1.2214285714285713,HIGH to HIGH,1 to 1,,,Placebo,Placebo,46,1186,2014-01-08,2014-02-07,2014-01-08,2014-01-26,,2014-02-07T15:20,,,705,84,YEARS,F,WHITE,NOT HISPANIC OR LATINO,Pbo,Placebo,Pbo,Placebo,USA,2014-01-03,-5,2014-01-08T00:00:00Z,H,2014-01-26T23:59:59Z,H,19,,2014-02-07,DISCONTINUED,,2014-01-08,,,,,,,,2014-02-07,Y,White,>64,NA,,,,
224,CDISCPILOT01,LB,01-705-1186,43,BILI,Bilirubin,CHEMISTRY,6.8,mg/dL,0.2,1.2,116.28,116.28,umol/L,3,21,HIGH,,4,WEEK 2,14,2014-01-23T09:16,16,2014-01-08,2014-01-26,Placebo,Placebo,2014-01-23,16,BILI,Bilirubin (umol/L),8,CHEMISTRY,116.28,,3,21,,Week 2,4,Y,HIGH,LAST,,25.65,,HIGH,90.63,353.3333333333333,,Blood bilirubin increased,,3,3,,1,1,4.533333333333333,38.76,5.537142857142857,HIGH to HIGH,1 to 3,Y,,Placebo,Placebo,47,1186,2014-01-08,2014-02-07,2014-01-08,2014-01-26,,2014-02-07T15:20,,,705,84,YEARS,F,WHITE,NOT HISPANIC OR LATINO,Pbo,Placebo,Pbo,Placebo,USA,2014-01-03,-5,2014-01-08T00:00:00Z,H,2014-01-26T23:59:59Z,H,19,,2014-02-07,DISCONTINUED,,2014-01-08,,,,,,,,2014-02-07,Y,White,>64,NA,,,,
225,CDISCPILOT01,LB,01-705-1186,43,BILI,Bilirubin,CHEMISTRY,6.8,mg/dL,0.2,1.2,116.28,116.28,umol/L,3,21,HIGH,,4,WEEK 2,14,2014-01-23T09:16,16,2014-01-08,2014-01-26,Placebo,Placebo,2014-01-23,16,BILI,Bilirubin (umol/L),8,CHEMISTRY,116.28,,3,21,MINIMUM,POST-BASELINE MINIMUM,9997,Y,HIGH,LAST,,25.65,,HIGH,90.63,353.3333333333333,,Blood bilirubin increased,,3,3,,1,1,4.533333333333333,38.76,5.537142857142857,HIGH to HIGH,1 to 3,Y,,Placebo,Placebo,48,1186,2014-01-08,2014-02-07,2014-01-08,2014-01-26,,2014-02-07T15:20,,,705,84,YEARS,F,WHITE,NOT HISPANIC OR LATINO,Pbo,Placebo,Pbo,Placebo,USA,2014-01-03,-5,2014-01-08T00:00:00Z,H,2014-01-26T23:59:59Z,H,19,,2014-02-07,DISCONTINUED,,2014-01-08,,,,,,,,2014-02-07,Y,White,>64,NA,,,,
226,CDISCPILOT01,LB,01-705-1186,79,BILI,Bilirubin,CHEMISTRY,7.3,mg/dL,0.2,1.2,124.83,124.83,umol/L,3,21,HIGH,,4.1,UNSCHEDULED 4.1,,2014-01-26T09:18,19,2014-01-08,2014-01-26,Placebo,Placebo,2014-01-26,19,BILI,Bilirubin (umol/L),8,CHEMISTRY,124.83,,3,21,,Unscheduled 4.1,4.1,Y,HIGH,LAST,,25.65,,HIGH,99.18,386.66666666666674,,Blood bilirubin increased,,3,3,,1,1,4.866666666666667,41.61,5.944285714285714,HIGH to HIGH,1 to 3,Y,Y,Placebo,Placebo,49,1186,2014-01-08,2014-02-07,2014-01-08,2014-01-26,,2014-02-07T15:20,,,705,84,YEARS,F,WHITE,NOT HISPANIC OR LATINO,Pbo,Placebo,Pbo,Placebo,USA,2014-01-03,-5,2014-01-08T00:00:00Z,H,2014-01-26T23:59:59Z,H,19,,2014-02-07,DISCONTINUED,,2014-01-08,,,,,,,,2014-02-07,Y,White,>64,NA,,,,
227,CDISCPILOT01,LB,01-705-1186,79,BILI,Bilirubin,CHEMISTRY,7.3,mg/dL,0.2,1.2,124.83,124.83,umol/L,3,21,HIGH,,4.1,UNSCHEDULED 4.1,,2014-01-26T09:18,19,2014-01-08,2014-01-26,Placebo,Placebo,2014-01-26,19,BILI,Bilirubin (umol/L),8,CHEMISTRY,124.83,,3,21,MAXIMUM,POST-BASELINE MAXIMUM,9998,Y,HIGH,LAST,,25.65,,HIGH,99.18,386.66666666666674,,Blood bilirubin increased,,3,3,,1,1,4.866666666666667,41.61,5.944285714285714,HIGH to HIGH,1 to 3,Y,Y,Placebo,Placebo,50,1186,2014-01-08,2014-02-07,2014-01-08,2014-01-26,,2014-02-07T15:20,,,705,84,YEARS,F,WHITE,NOT HISPANIC OR LATINO,Pbo,Placebo,Pbo,Placebo,USA,2014-01-03,-5,2014-01-08T00:00:00Z,H,2014-01-26T23:59:59Z,H,19,,2014-02-07,DISCONTINUED,,2014-01-08,,,,,,,,2014-02-07,Y,White,>64,NA,,,,
228,CDISCPILOT01,LB,01-705-1186,79,BILI,Bilirubin,CHEMISTRY,7.3,mg/dL,0.2,1.2,124.83,124.83,umol/L,3,21,HIGH,,4.1,UNSCHEDULED 4.1,,2014-01-26T09:18,19,2014-01-08,2014-01-26,Placebo,Placebo,2014-01-26,19,BILI,Bilirubin (umol/L),8,CHEMISTRY,124.83,,3,21,LOV,POST-BASELINE LAST,9999,Y,HIGH,LAST,,25.65,,HIGH,99.18,386.66666666666674,,Blood bilirubin increased,,3,3,,1,1,4.866666666666667,41.61,5.944285714285714,HIGH to HIGH,1 to 3,Y,Y,Placebo,Placebo,51,1186,2014-01-08,2014-02-07,2014-01-08,2014-01-26,,2014-02-07T15:20,,,705,84,YEARS,F,WHITE,NOT HISPANIC OR LATINO,Pbo,Placebo,Pbo,Placebo,USA,2014-01-03,-5,2014-01-08T00:00:00Z,H,2014-01-26T23:59:59Z,H,19,,2014-02-07,DISCONTINUED,,2014-01-08,,,,,,,,2014-02-07,Y,White,>64,NA,,,,
229,CDISCPILOT01,LB,01-705-1186,130,BILI,Bilirubin,CHEMISTRY,7.3,mg/dL,0.2,1.2,124.83,124.83,umol/L,3,21,HIGH,,5,WEEK 4,28,2014-01-29T09:10,22,2014-01-08,2014-01-26,Placebo,Placebo,2014-01-29,22,BILI,Bilirubin (umol/L),8,CHEMISTRY,124.83,,3,21,,Week 4,5,,HIGH,LAST,,25.65,,HIGH,99.18,386.66666666666674,,Blood bilirubin increased,,3,3,,1,1,4.866666666666667,41.61,5.944285714285714,HIGH to HIGH,1 to 3,,,Placebo,Placebo,52,1186,2014-01-08,2014-02-07,2014-01-08,2014-01-26,,2014-02-07T15:20,,,705,84,YEARS,F,WHITE,NOT HISPANIC OR LATINO,Pbo,Placebo,Pbo,Placebo,USA,2014-01-03,-5,2014-01-08T00:00:00Z,H,2014-01-26T23:59:59Z,H,19,,2014-02-07,DISCONTINUED,,2014-01-08,,,,,,,,2014-02-07,Y,White,>64,NA,,,,
230,CDISCPILOT01,LB,01-705-1186,114,BILI,Bilirubin,CHEMISTRY,5.8,mg/dL,0.2,1.2,99.18,99.17999999999999,umol/L,3,21,HIGH,,4.199999999999999,UNSCHEDULED 4.2,,2014-02-01T09:00,25,2014-01-08,2014-01-26,Placebo,Placebo,2014-02-01,25,BILI,Bilirubin (umol/L),8,CHEMISTRY,99.17999999999999,,3,21,,Unscheduled 4.2,4.199999999999999,,HIGH,LAST,,25.65,,HIGH,73.53,286.6666666666667,,Blood bilirubin increased,,3,3,,1,1,3.8666666666666667,33.059999999999995,4.722857142857142,HIGH to HIGH,1 to 3,,,Placebo,Placebo,53,1186,2014-01-08,2014-02-07,2014-01-08,2014-01-26,,2014-02-07T15:20,,,705,84,YEARS,F,WHITE,NOT HISPANIC OR LATINO,Pbo,Placebo,Pbo,Placebo,USA,2014-01-03,-5,2014-01-08T00:00:00Z,H,2014-01-26T23:59:59Z,H,19,,2014-02-07,DISCONTINUED,,2014-01-08,,,,,,,,2014-02-07,Y,White,>64,NA,,,,
231,CDISCPILOT01,LB,01-705-1186,166,BILI,Bilirubin,CHEMISTRY,4.2,mg/dL,0.2,1.2,71.82,71.82,umol/L,3,21,HIGH,,5.1,UNSCHEDULED 5.1,,2014-02-07T15:20,31,2014-01-08,2014-01-26,Placebo,Placebo,2014-02-07,31,BILI,Bilirubin (umol/L),8,CHEMISTRY,71.82,,3,21,,Unscheduled 5.1,5.1,,HIGH,LAST,,25.65,,HIGH,46.169999999999995,179.99999999999997,,Blood bilirubin increased,,3,3,,1,1,2.8,23.939999999999998,3.4199999999999995,HIGH to HIGH,1 to 3,,,Placebo,Placebo,54,1186,2014-01-08,2014-02-07,2014-01-08,2014-01-26,,2014-02-07T15:20,,,705,84,YEARS,F,WHITE,NOT HISPANIC OR LATINO,Pbo,Placebo,Pbo,Placebo,USA,2014-01-03,-5,2014-01-08T00:00:00Z,H,2014-01-26T23:59:59Z,H,19,,2014-02-07,DISCONTINUED,,2014-01-08,,,,,,,,2014-02-07,Y,White,>64,NA,,,,
232,CDISCPILOT01,LB,01-705-1292,3,ALT,Alanine Aminotransferase,CHEMISTRY,33,U/L,6,34,33,33,U/L,6,34,NORMAL,Y,1,SCREENING 1,-7,2013-10-10T15:35,-4,2013-10-14,2014-05-13,Xanomeline Low Dose,Xanomeline Low Dose,2013-10-10,-4,ALT,Alanine Aminotransferase (U/L),3,CHEMISTRY,33,,6,34,,Baseline,0,,NORMAL,LAST,Y,33,,NORMAL,,,,Alanine aminotransferase increased,,0,0,,0,0,1,5.5,0.9705882352941176,NORMAL to NORMAL,0 to 0,,,Xanomeline Low Dose,Xanomeline Low Dose,26,1292,2013-10-14,2014-05-14,2013-10-14,2014-05-13,,2014-05-14T13:33,,,705,60,YEARS,F,BLACK OR AFRICAN AMERICAN,NOT HISPANIC OR LATINO,Xan_Lo,Xanomeline Low Dose,Xan_Lo,Xanomeline Low Dose,USA,2013-10-11,-3,2013-10-14T00:00:00Z,H,2014-05-13T23:59:59Z,H,212,,2014-05-14,COMPLETED,,2013-10-14,,,,,,,,2014-05-14,Y,Non-white,18-64,NA,,,,
233,CDISCPILOT01,LB,01-705-1292,40,ALT,Alanine Aminotransferase,CHEMISTRY,30,U/L,6,34,30,30,U/L,6,34,NORMAL,,4,WEEK 2,14,2013-10-29T12:15,16,2013-10-14,2014-05-13,Xanomeline Low Dose,Xanomeline Low Dose,2013-10-29,16,ALT,Alanine Aminotransferase (U/L),3,CHEMISTRY,30,,6,34,,Week 2,4,Y,NORMAL,LAST,,33,,NORMAL,-3,-9.090909090909092,,Alanine aminotransferase increased,,0,0,,0,0,0.9090909090909091,5,0.8823529411764706,NORMAL to NORMAL,0 to 0,Y,,Xanomeline Low Dose,Xanomeline Low Dose,27,1292,2013-10-14,2014-05-14,2013-10-14,2014-05-13,,2014-05-14T13:33,,,705,60,YEARS,F,BLACK OR AFRICAN AMERICAN,NOT HISPANIC OR LATINO,Xan_Lo,Xanomeline Low Dose,Xan_Lo,Xanomeline Low Dose,USA,2013-10-11,-3,2013-10-14T00:00:00Z,H,2014-05-13T23:59:59Z,H,212,,2014-05-14,COMPLETED,,2013-10-14,,,,,,,,2014-05-14,Y,Non-white,18-64,NA,,,,
234,CDISCPILOT01,LB,01-705-1292,75,ALT,Alanine Aminotransferase,CHEMISTRY,33,U/L,6,34,33,33,U/L,6,34,NORMAL,,5,WEEK 4,28,2013-11-22T12:31,40,2013-10-14,2014-05-13,Xanomeline Low Dose,Xanomeline Low Dose,2013-11-22,40,ALT,Alanine Aminotransferase (U/L),3,CHEMISTRY,33,,6,34,,Week 4,5,Y,NORMAL,LAST,,33,,NORMAL,0,0,,Alanine aminotransferase increased,,0,0,,0,0,1,5.5,0.9705882352941176,NORMAL to NORMAL,0 to 0,Y,,Xanomeline Low Dose,Xanomeline Low Dose,28,1292,2013-10-14,2014-05-14,2013-10-14,2014-05-13,,2014-05-14T13:33,,,705,60,YEARS,F,BLACK OR AFRICAN AMERICAN,NOT HISPANIC OR LATINO,Xan_Lo,Xanomeline Low Dose,Xan_Lo,Xanomeline Low Dose,USA,2013-10-11,-3,2013-10-14T00:00:00Z,H,2014-05-13T23:59:59Z,H,212,,2014-05-14,COMPLETED,,2013-10-14,,,,,,,,2014-05-14,Y,Non-white,18-64,NA,,,,
235,CDISCPILOT01,LB,01-705-1292,118,ALT,Alanine Aminotransferase,CHEMISTRY,28,U/L,6,34,28,28,U/L,6,34,NORMAL,,7,WEEK 6,42,2013-12-11T10:05,59,2013-10-14,2014-05-13,Xanomeline Low Dose,Xanomeline Low Dose,2013-12-11,59,ALT,Alanine Aminotransferase (U/L),3,CHEMISTRY,28,,6,34,,Week 6,7,Y,NORMAL,LAST,,33,,NORMAL,-5,-15.151515151515152,,Alanine aminotransferase increased,,0,0,,0,0,0.8484848484848485,4.666666666666667,0.8235294117647058,NORMAL to NORMAL,0 to 0,Y,,Xanomeline Low Dose,Xanomeline Low Dose,29,1292,2013-10-14,2014-05-14,2013-10-14,2014-05-13,,2014-05-14T13:33,,,705,60,YEARS,F,BLACK OR AFRICAN AMERICAN,NOT HISPANIC OR LATINO,Xan_Lo,Xanomeline Low Dose,Xan_Lo,Xanomeline Low Dose,USA,2013-10-11,-3,2013-10-14T00:00:00Z,H,2014-05-13T23:59:59Z,H,212,,2014-05-14,COMPLETED,,2013-10-14,,,,,,,,2014-05-14,Y,Non-white,18-64,NA,,,,
236,CDISCPILOT01,LB,01-705-1292,149,ALT,Alanine Aminotransferase,CHEMISTRY,25,U/L,6,34,25,25,U/L,6,34,NORMAL,,8,WEEK 8,56,2014-01-02T14:10,81,2013-10-14,2014-05-13,Xanomeline Low Dose,Xanomeline Low Dose,2014-01-02,81,ALT,Alanine Aminotransferase (U/L),3,CHEMISTRY,25,,6,34,,Week 8,8,Y,NORMAL,LAST,,33,,NORMAL,-8,-24.242424242424242,,Alanine aminotransferase increased,,0,0,,0,0,0.7575757575757576,4.166666666666667,0.7352941176470589,NORMAL to NORMAL,0 to 0,Y,,Xanomeline Low Dose,Xanomeline Low Dose,30,1292,2013-10-14,2014-05-14,2013-10-14,2014-05-13,,2014-05-14T13:33,,,705,60,YEARS,F,BLACK OR AFRICAN AMERICAN,NOT HISPANIC OR LATINO,Xan_Lo,Xanomeline Low Dose,Xan_Lo,Xanomeline Low Dose,USA,2013-10-11,-3,2013-10-14T00:00:00Z,H,2014-05-13T23:59:59Z,H,212,,2014-05-14,COMPLETED,,2013-10-14,,,,,,,,2014-05-14,Y,Non-white,18-64,NA,,,,
237,CDISCPILOT01,LB,01-705-1292,149,ALT,Alanine Aminotransferase,CHEMISTRY,25,U/L,6,34,25,25,U/L,6,34,NORMAL,,8,WEEK 8,56,2014-01-02T14:10,81,2013-10-14,2014-05-13,Xanomeline Low Dose,Xanomeline Low Dose,2014-01-02,81,ALT,Alanine Aminotransferase (U/L),3,CHEMISTRY,25,,6,34,MINIMUM,POST-BASELINE MINIMUM,9997,Y,NORMAL,LAST,,33,,NORMAL,-8,-24.242424242424242,,Alanine aminotransferase increased,,0,0,,0,0,0.7575757575757576,4.166666666666667,0.7352941176470589,NORMAL to NORMAL,0 to 0,Y,,Xanomeline Low Dose,Xanomeline Low Dose,31,1292,2013-10-14,2014-05-14,2013-10-14,2014-05-13,,2014-05-14T13:33,,,705,60,YEARS,F,BLACK OR AFRICAN AMERICAN,NOT HISPANIC OR LATINO,Xan_Lo,Xanomeline Low Dose,Xan_Lo,Xanomeline Low Dose,USA,2013-10-11,-3,2013-10-14T00:00:00Z,H,2014-05-13T23:59:59Z,H,212,,2014-05-14,COMPLETED,,2013-10-14,,,,,,,,2014-05-14,Y,Non-white,18-64,NA,,,,
238,CDISCPILOT01,LB,01-705-1292,179,ALT,Alanine Aminotransferase,CHEMISTRY,88,U/L,6,34,88,88,U/L,6,34,HIGH,,9,WEEK 12,84,2014-02-07T13:50,117,2013-10-14,2014-05-13,Xanomeline Low Dose,Xanomeline Low Dose,2014-02-07,117,ALT,Alanine Aminotransferase (U/L),3,CHEMISTRY,88,,6,34,,Week 12,9,Y,HIGH,LAST,,33,,NORMAL,55,166.66666666666669,,Alanine aminotransferase increased,,1,1,,0,0,2.6666666666666665,14.666666666666666,2.588235294117647,NORMAL to HIGH,0 to 1,Y,,Xanomeline Low Dose,Xanomeline Low Dose,32,1292,2013-10-14,2014-05-14,2013-10-14,2014-05-13,,2014-05-14T13:33,,,705,60,YEARS,F,BLACK OR AFRICAN AMERICAN,NOT HISPANIC OR LATINO,Xan_Lo,Xanomeline Low Dose,Xan_Lo,Xanomeline Low Dose,USA,2013-10-11,-3,2013-10-14T00:00:00Z,H,2014-05-13T23:59:59Z,H,212,,2014-05-14,COMPLETED,,2013-10-14,,,,,,,,2014-05-14,Y,Non-white,18-64,NA,,,,
239,CDISCPILOT01,LB,01-705-1292,179,ALT,Alanine Aminotransferase,CHEMISTRY,88,U/L,6,34,88,88,U/L,6,34,HIGH,,9,WEEK 12,84,2014-02-07T13:50,117,2013-10-14,2014-05-13,Xanomeline Low Dose,Xanomeline Low Dose,2014-02-07,117,ALT,Alanine Aminotransferase (U/L),3,CHEMISTRY,88,,6,34,MAXIMUM,POST-BASELINE MAXIMUM,9998,Y,HIGH,LAST,,33,,NORMAL,55,166.66666666666669,,Alanine aminotransferase increased,,1,1,,0,0,2.6666666666666665,14.666666666666666,2.588235294117647,NORMAL to HIGH,0 to 1,Y,,Xanomeline Low Dose,Xanomeline Low Dose,33,1292,2013-10-14,2014-05-14,2013-10-14,2014-05-13,,2014-05-14T13:33,,,705,60,YEARS,F,BLACK OR AFRICAN AMERICAN,NOT HISPANIC OR LATINO,Xan_Lo,Xanomeline Low Dose,Xan_Lo,Xanomeline Low Dose,USA,2013-10-11,-3,2013-10-14T00:00:00Z,H,2014-05-13T23:59:59Z,H,212,,2014-05-14,COMPLETED,,2013-10-14,,,,,,,,2014-05-14,Y,Non-white,18-64,NA,,,,
240,CDISCPILOT01,LB,01-705-1292,214,ALT,Alanine Aminotransferase,CHEMISTRY,41,U/L,6,34,41,41,U/L,6,34,HIGH,,10,WEEK 16,112,2014-03-03T15:40,141,2013-10-14,2014-05-13,Xanomeline Low Dose,Xanomeline Low Dose,2014-03-03,141,ALT,Alanine Aminotransferase (U/L),3,CHEMISTRY,41,,6,34,,Week 16,10,Y,HIGH,LAST,,33,,NORMAL,8,24.242424242424242,,Alanine aminotransferase increased,,1,1,,0,0,1.2424242424242424,6.833333333333333,1.2058823529411764,NORMAL to HIGH,0 to 1,Y,,Xanomeline Low Dose,Xanomeline Low Dose,34,1292,2013-10-14,2014-05-14,2013-10-14,2014-05-13,,2014-05-14T13:33,,,705,60,YEARS,F,BLACK OR AFRICAN AMERICAN,NOT HISPANIC OR LATINO,Xan_Lo,Xanomeline Low Dose,Xan_Lo,Xanomeline Low Dose,USA,2013-10-11,-3,2013-10-14T00:00:00Z,H,2014-05-13T23:59:59Z,H,212,,2014-05-14,COMPLETED,,2013-10-14,,,,,,,,2014-05-14,Y,Non-white,18-64,NA,,,,
241,CDISCPILOT01,LB,01-705-1292,256,ALT,Alanine Aminotransferase,CHEMISTRY,48,U/L,6,34,48,48,U/L,6,34,HIGH,,12,WEEK 24,168,2014-04-28T16:08,197,2013-10-14,2014-05-13,Xanomeline Low Dose,Xanomeline Low Dose,2014-04-28,197,ALT,Alanine Aminotransferase (U/L),3,CHEMISTRY,48,,6,34,,Week 24,12,Y,HIGH,LAST,,33,,NORMAL,15,45.45454545454545,,Alanine aminotransferase increased,,1,1,,0,0,1.4545454545454546,8,1.411764705882353,NORMAL to HIGH,0 to 1,Y,Y,Xanomeline Low Dose,Xanomeline Low Dose,35,1292,2013-10-14,2014-05-14,2013-10-14,2014-05-13,,2014-05-14T13:33,,,705,60,YEARS,F,BLACK OR AFRICAN AMERICAN,NOT HISPANIC OR LATINO,Xan_Lo,Xanomeline Low Dose,Xan_Lo,Xanomeline Low Dose,USA,2013-10-11,-3,2013-10-14T00:00:00Z,H,2014-05-13T23:59:59Z,H,212,,2014-05-14,COMPLETED,,2013-10-14,,,,,,,,2014-05-14,Y,Non-white,18-64,NA,,,,
242,CDISCPILOT01,LB,01-705-1292,256,ALT,Alanine Aminotransferase,CHEMISTRY,48,U/L,6,34,48,48,U/L,6,34,HIGH,,12,WEEK 24,168,2014-04-28T16:08,197,2013-10-14,2014-05-13,Xanomeline Low Dose,Xanomeline Low Dose,2014-04-28,197,ALT,Alanine Aminotransferase (U/L),3,CHEMISTRY,48,,6,34,LOV,POST-BASELINE LAST,9999,Y,HIGH,LAST,,33,,NORMAL,15,45.45454545454545,,Alanine aminotransferase increased,,1,1,,0,0,1.4545454545454546,8,1.411764705882353,NORMAL to HIGH,0 to 1,Y,Y,Xanomeline Low Dose,Xanomeline Low Dose,36,1292,2013-10-14,2014-05-14,2013-10-14,2014-05-13,,2014-05-14T13:33,,,705,60,YEARS,F,BLACK OR AFRICAN AMERICAN,NOT HISPANIC OR LATINO,Xan_Lo,Xanomeline Low Dose,Xan_Lo,Xanomeline Low Dose,USA,2013-10-11,-3,2013-10-14T00:00:00Z,H,2014-05-13T23:59:59Z,H,212,,2014-05-14,COMPLETED,,2013-10-14,,,,,,,,2014-05-14,Y,Non-white,18-64,NA,,,,
243,CDISCPILOT01,LB,01-705-1292,292,ALT,Alanine Aminotransferase,CHEMISTRY,53,U/L,6,34,53,53,U/L,6,34,HIGH,,13,WEEK 26,182,2014-05-14T13:33,213,2013-10-14,2014-05-13,Xanomeline Low Dose,Xanomeline Low Dose,2014-05-14,213,ALT,Alanine Aminotransferase (U/L),3,CHEMISTRY,53,,6,34,,Week 26,13,,HIGH,LAST,,33,,NORMAL,20,60.60606060606061,,Alanine aminotransferase increased,,1,1,,0,0,1.606060606060606,8.833333333333334,1.5588235294117647,NORMAL to HIGH,0 to 1,,,Xanomeline Low Dose,Xanomeline Low Dose,37,1292,2013-10-14,2014-05-14,2013-10-14,2014-05-13,,2014-05-14T13:33,,,705,60,YEARS,F,BLACK OR AFRICAN AMERICAN,NOT HISPANIC OR LATINO,Xan_Lo,Xanomeline Low Dose,Xan_Lo,Xanomeline Low Dose,USA,2013-10-11,-3,2013-10-14T00:00:00Z,H,2014-05-13T23:59:59Z,H,212,,2014-05-14,COMPLETED,,2013-10-14,,,,,,,,2014-05-14,Y,Non-white,18-64,NA,,,,
244,CDISCPILOT01,LB,01-705-1292,4,AST,Aspartate Aminotransferase,CHEMISTRY,43,U/L,9,34,43,43,U/L,9,34,HIGH,Y,1,SCREENING 1,-7,2013-10-10T15:35,-4,2013-10-14,2014-05-13,Xanomeline Low Dose,Xanomeline Low Dose,2013-10-10,-4,AST,Aspartate Aminotransferase (U/L),5,CHEMISTRY,43,,9,34,,Baseline,0,,HIGH,LAST,Y,43,,HIGH,,,,Aspartate aminotransferase increased,,1,1,,1,1,1,4.777777777777778,1.2647058823529411,HIGH to HIGH,1 to 1,,,Xanomeline Low Dose,Xanomeline Low Dose,43,1292,2013-10-14,2014-05-14,2013-10-14,2014-05-13,,2014-05-14T13:33,,,705,60,YEARS,F,BLACK OR AFRICAN AMERICAN,NOT HISPANIC OR LATINO,Xan_Lo,Xanomeline Low Dose,Xan_Lo,Xanomeline Low Dose,USA,2013-10-11,-3,2013-10-14T00:00:00Z,H,2014-05-13T23:59:59Z,H,212,,2014-05-14,COMPLETED,,2013-10-14,,,,,,,,2014-05-14,Y,Non-white,18-64,NA,,,,
245,CDISCPILOT01,LB,01-705-1292,41,AST,Aspartate Aminotransferase,CHEMISTRY,40,U/L,9,34,40,40,U/L,9,34,HIGH,,4,WEEK 2,14,2013-10-29T12:15,16,2013-10-14,2014-05-13,Xanomeline Low Dose,Xanomeline Low Dose,2013-10-29,16,AST,Aspartate Aminotransferase (U/L),5,CHEMISTRY,40,,9,34,,Week 2,4,Y,HIGH,LAST,,43,,HIGH,-3,-6.976744186046512,,Aspartate aminotransferase increased,,1,1,,1,1,0.9302325581395349,4.444444444444445,1.1764705882352942,HIGH to HIGH,1 to 1,Y,,Xanomeline Low Dose,Xanomeline Low Dose,44,1292,2013-10-14,2014-05-14,2013-10-14,2014-05-13,,2014-05-14T13:33,,,705,60,YEARS,F,BLACK OR AFRICAN AMERICAN,NOT HISPANIC OR LATINO,Xan_Lo,Xanomeline Low Dose,Xan_Lo,Xanomeline Low Dose,USA,2013-10-11,-3,2013-10-14T00:00:00Z,H,2014-05-13T23:59:59Z,H,212,,2014-05-14,COMPLETED,,2013-10-14,,,,,,,,2014-05-14,Y,Non-white,18-64,NA,,,,
246,CDISCPILOT01,LB,01-705-1292,77,AST,Aspartate Aminotransferase,CHEMISTRY,46,U/L,9,34,46,46,U/L,9,34,HIGH,,5,WEEK 4,28,2013-11-22T12:31,40,2013-10-14,2014-05-13,Xanomeline Low Dose,Xanomeline Low Dose,2013-11-22,40,AST,Aspartate Aminotransferase (U/L),5,CHEMISTRY,46,,9,34,,Week 4,5,Y,HIGH,LAST,,43,,HIGH,3,6.976744186046512,,Aspartate aminotransferase increased,,1,1,,1,1,1.069767441860465,5.111111111111111,1.3529411764705883,HIGH to HIGH,1 to 1,Y,,Xanomeline Low Dose,Xanomeline Low Dose,45,1292,2013-10-14,2014-05-14,2013-10-14,2014-05-13,,2014-05-14T13:33,,,705,60,YEARS,F,BLACK OR AFRICAN AMERICAN,NOT HISPANIC OR LATINO,Xan_Lo,Xanomeline Low Dose,Xan_Lo,Xanomeline Low Dose,USA,2013-10-11,-3,2013-10-14T00:00:00Z,H,2014-05-13T23:59:59Z,H,212,,2014-05-14,COMPLETED,,2013-10-14,,,,,,,,2014-05-14,Y,Non-white,18-64,NA,,,,
247,CDISCPILOT01,LB,01-705-1292,119,AST,Aspartate Aminotransferase,CHEMISTRY,39,U/L,9,34,39,39,U/L,9,34,HIGH,,7,WEEK 6,42,2013-12-11T10:05,59,2013-10-14,2014-05-13,Xanomeline Low Dose,Xanomeline Low Dose,2013-12-11,59,AST,Aspartate Aminotransferase (U/L),5,CHEMISTRY,39,,9,34,,Week 6,7,Y,HIGH,LAST,,43,,HIGH,-4,-9.30232558139535,,Aspartate aminotransferase increased,,1,1,,1,1,0.9069767441860465,4.333333333333333,1.1470588235294117,HIGH to HIGH,1 to 1,Y,,Xanomeline Low Dose,Xanomeline Low Dose,46,1292,2013-10-14,2014-05-14,2013-10-14,2014-05-13,,2014-05-14T13:33,,,705,60,YEARS,F,BLACK OR AFRICAN AMERICAN,NOT HISPANIC OR LATINO,Xan_Lo,Xanomeline Low Dose,Xan_Lo,Xanomeline Low Dose,USA,2013-10-11,-3,2013-10-14T00:00:00Z,H,2014-05-13T23:59:59Z,H,212,,2014-05-14,COMPLETED,,2013-10-14,,,,,,,,2014-05-14,Y,Non-white,18-64,NA,,,,
248,CDISCPILOT01,LB,01-705-1292,150,AST,Aspartate Aminotransferase,CHEMISTRY,36,U/L,9,34,36,36,U/L,9,34,HIGH,,8,WEEK 8,56,2014-01-02T14:10,81,2013-10-14,2014-05-13,Xanomeline Low Dose,Xanomeline Low Dose,2014-01-02,81,AST,Aspartate Aminotransferase (U/L),5,CHEMISTRY,36,,9,34,,Week 8,8,Y,HIGH,LAST,,43,,HIGH,-7,-16.27906976744186,,Aspartate aminotransferase increased,,1,1,,1,1,0.8372093023255814,4,1.0588235294117647,HIGH to HIGH,1 to 1,Y,,Xanomeline Low Dose,Xanomeline Low Dose,47,1292,2013-10-14,2014-05-14,2013-10-14,2014-05-13,,2014-05-14T13:33,,,705,60,YEARS,F,BLACK OR AFRICAN AMERICAN,NOT HISPANIC OR LATINO,Xan_Lo,Xanomeline Low Dose,Xan_Lo,Xanomeline Low Dose,USA,2013-10-11,-3,2013-10-14T00:00:00Z,H,2014-05-13T23:59:59Z,H,212,,2014-05-14,COMPLETED,,2013-10-14,,,,,,,,2014-05-14,Y,Non-white,18-64,NA,,,,
249,CDISCPILOT01,LB,01-705-1292,150,AST,Aspartate Aminotransferase,CHEMISTRY,36,U/L,9,34,36,36,U/L,9,34,HIGH,,8,WEEK 8,56,2014-01-02T14:10,81,2013-10-14,2014-05-13,Xanomeline Low Dose,Xanomeline Low Dose,2014-01-02,81,AST,Aspartate Aminotransferase (U/L),5,CHEMISTRY,36,,9,34,MINIMUM,POST-BASELINE MINIMUM,9997,Y,HIGH,LAST,,43,,HIGH,-7,-16.27906976744186,,Aspartate aminotransferase increased,,1,1,,1,1,0.8372093023255814,4,1.0588235294117647,HIGH to HIGH,1 to 1,Y,,Xanomeline Low Dose,Xanomeline Low Dose,48,1292,2013-10-14,2014-05-14,2013-10-14,2014-05-13,,2014-05-14T13:33,,,705,60,YEARS,F,BLACK OR AFRICAN AMERICAN,NOT HISPANIC OR LATINO,Xan_Lo,Xanomeline Low Dose,Xan_Lo,Xanomeline Low Dose,USA,2013-10-11,-3,2013-10-14T00:00:00Z,H,2014-05-13T23:59:59Z,H,212,,2014-05-14,COMPLETED,,2013-10-14,,,,,,,,2014-05-14,Y,Non-white,18-64,NA,,,,
250,CDISCPILOT01,LB,01-705-1292,180,AST,Aspartate Aminotransferase,CHEMISTRY,125,U/L,9,34,125,125,U/L,9,34,HIGH,,9,WEEK 12,84,2014-02-07T13:50,117,2013-10-14,2014-05-13,Xanomeline Low Dose,Xanomeline Low Dose,2014-02-07,117,AST,Aspartate Aminotransferase (U/L),5,CHEMISTRY,125,,9,34,,Week 12,9,Y,HIGH,LAST,,43,,HIGH,82,190.69767441860466,,Aspartate aminotransferase increased,,2,2,,1,1,2.9069767441860463,13.88888888888889,3.676470588235294,HIGH to HIGH,1 to 2,Y,,Xanomeline Low Dose,Xanomeline Low Dose,49,1292,2013-10-14,2014-05-14,2013-10-14,2014-05-13,,2014-05-14T13:33,,,705,60,YEARS,F,BLACK OR AFRICAN AMERICAN,NOT HISPANIC OR LATINO,Xan_Lo,Xanomeline Low Dose,Xan_Lo,Xanomeline Low Dose,USA,2013-10-11,-3,2013-10-14T00:00:00Z,H,2014-05-13T23:59:59Z,H,212,,2014-05-14,COMPLETED,,2013-10-14,,,,,,,,2014-05-14,Y,Non-white,18-64,NA,,,,
251,CDISCPILOT01,LB,01-705-1292,180,AST,Aspartate Aminotransferase,CHEMISTRY,125,U/L,9,34,125,125,U/L,9,34,HIGH,,9,WEEK 12,84,2014-02-07T13:50,117,2013-10-14,2014-05-13,Xanomeline Low Dose,Xanomeline Low Dose,2014-02-07,117,AST,Aspartate Aminotransferase (U/L),5,CHEMISTRY,125,,9,34,MAXIMUM,POST-BASELINE MAXIMUM,9998,Y,HIGH,LAST,,43,,HIGH,82,190.69767441860466,,Aspartate aminotransferase increased,,2,2,,1,1,2.9069767441860463,13.88888888888889,3.676470588235294,HIGH to HIGH,1 to 2,Y,,Xanomeline Low Dose,Xanomeline Low Dose,50,1292,2013-10-14,2014-05-14,2013-10-14,2014-05-13,,2014-05-14T13:33,,,705,60,YEARS,F,BLACK OR AFRICAN AMERICAN,NOT HISPANIC OR LATINO,Xan_Lo,Xanomeline Low Dose,Xan_Lo,Xanomeline Low Dose,USA,2013-10-11,-3,2013-10-14T00:00:00Z,H,2014-05-13T23:59:59Z,H,212,,2014-05-14,COMPLETED,,2013-10-14,,,,,,,,2014-05-14,Y,Non-white,18-64,NA,,,,
252,CDISCPILOT01,LB,01-705-1292,215,AST,Aspartate Aminotransferase,CHEMISTRY,76,U/L,9,34,76,76,U/L,9,34,HIGH,,10,WEEK 16,112,2014-03-03T15:40,141,2013-10-14,2014-05-13,Xanomeline Low Dose,Xanomeline Low Dose,2014-03-03,141,AST,Aspartate Aminotransferase (U/L),5,CHEMISTRY,76,,9,34,,Week 16,10,Y,HIGH,LAST,,43,,HIGH,33,76.74418604651163,,Aspartate aminotransferase increased,,1,1,,1,1,1.7674418604651163,8.444444444444445,2.235294117647059,HIGH to HIGH,1 to 1,Y,,Xanomeline Low Dose,Xanomeline Low Dose,51,1292,2013-10-14,2014-05-14,2013-10-14,2014-05-13,,2014-05-14T13:33,,,705,60,YEARS,F,BLACK OR AFRICAN AMERICAN,NOT HISPANIC OR LATINO,Xan_Lo,Xanomeline Low Dose,Xan_Lo,Xanomeline Low Dose,USA,2013-10-11,-3,2013-10-14T00:00:00Z,H,2014-05-13T23:59:59Z,H,212,,2014-05-14,COMPLETED,,2013-10-14,,,,,,,,2014-05-14,Y,Non-white,18-64,NA,,,,
253,CDISCPILOT01,LB,01-705-1292,258,AST,Aspartate Aminotransferase,CHEMISTRY,68,U/L,9,34,68,68,U/L,9,34,HIGH,,12,WEEK 24,168,2014-04-28T16:08,197,2013-10-14,2014-05-13,Xanomeline Low Dose,Xanomeline Low Dose,2014-04-28,197,AST,Aspartate Aminotransferase (U/L),5,CHEMISTRY,68,,9,34,,Week 24,12,Y,HIGH,LAST,,43,,HIGH,25,58.139534883720934,,Aspartate aminotransferase increased,,1,1,,1,1,1.5813953488372092,7.555555555555555,2,HIGH to HIGH,1 to 1,Y,Y,Xanomeline Low Dose,Xanomeline Low Dose,52,1292,2013-10-14,2014-05-14,2013-10-14,2014-05-13,,2014-05-14T13:33,,,705,60,YEARS,F,BLACK OR AFRICAN AMERICAN,NOT HISPANIC OR LATINO,Xan_Lo,Xanomeline Low Dose,Xan_Lo,Xanomeline Low Dose,USA,2013-10-11,-3,2013-10-14T00:00:00Z,H,2014-05-13T23:59:59Z,H,212,,2014-05-14,COMPLETED,,2013-10-14,,,,,,,,2014-05-14,Y,Non-white,18-64,NA,,,,
254,CDISCPILOT01,LB,01-705-1292,258,AST,Aspartate Aminotransferase,CHEMISTRY,68,U/L,9,34,68,68,U/L,9,34,HIGH,,12,WEEK 24,168,2014-04-28T16:08,197,2013-10-14,2014-05-13,Xanomeline Low Dose,Xanomeline Low Dose,2014-04-28,197,AST,Aspartate Aminotransferase (U/L),5,CHEMISTRY,68,,9,34,LOV,POST-BASELINE LAST,9999,Y,HIGH,LAST,,43,,HIGH,25,58.139534883720934,,Aspartate aminotransferase increased,,1,1,,1,1,1.5813953488372092,7.555555555555555,2,HIGH to HIGH,1 to 1,Y,Y,Xanomeline Low Dose,Xanomeline Low Dose,53,1292,2013-10-14,2014-05-14,2013-10-14,2014-05-13,,2014-05-14T13:33,,,705,60,YEARS,F,BLACK OR AFRICAN AMERICAN,NOT HISPANIC OR LATINO,Xan_Lo,Xanomeline Low Dose,Xan_Lo,Xanomeline Low Dose,USA,2013-10-11,-3,2013-10-14T00:00:00Z,H,2014-05-13T23:59:59Z,H,212,,2014-05-14,COMPLETED,,2013-10-14,,,,,,,,2014-05-14,Y,Non-white,18-64,NA,,,,
255,CDISCPILOT01,LB,01-705-1292,293,AST,Aspartate Aminotransferase,CHEMISTRY,75,U/L,9,34,75,75,U/L,9,34,HIGH,,13,WEEK 26,182,2014-05-14T13:33,213,2013-10-14,2014-05-13,Xanomeline Low Dose,Xanomeline Low Dose,2014-05-14,213,AST,Aspartate Aminotransferase (U/L),5,CHEMISTRY,75,,9,34,,Week 26,13,,HIGH,LAST,,43,,HIGH,32,74.4186046511628,,Aspartate aminotransferase increased,,1,1,,1,1,1.744186046511628,8.333333333333334,2.2058823529411766,HIGH to HIGH,1 to 1,,,Xanomeline Low Dose,Xanomeline Low Dose,54,1292,2013-10-14,2014-05-14,2013-10-14,2014-05-13,,2014-05-14T13:33,,,705,60,YEARS,F,BLACK OR AFRICAN AMERICAN,NOT HISPANIC OR LATINO,Xan_Lo,Xanomeline Low Dose,Xan_Lo,Xanomeline Low Dose,USA,2013-10-11,-3,2013-10-14T00:00:00Z,H,2014-05-13T23:59:59Z,H,212,,2014-05-14,COMPLETED,,2013-10-14,,,,,,,,2014-05-14,Y,Non-white,18-64,NA,,,,
256,CDISCPILOT01,LB,01-705-1292,6,BILI,Bilirubin,CHEMISTRY,0.5,mg/dL,0.2,1.2,8.55,8.549999999999999,umol/L,3,21,NORMAL,Y,1,SCREENING 1,-7,2013-10-10T15:35,-4,2013-10-14,2014-05-13,Xanomeline Low Dose,Xanomeline Low Dose,2013-10-10,-4,BILI,Bilirubin (umol/L),8,CHEMISTRY,8.549999999999999,,3,21,,Baseline,0,,NORMAL,LAST,Y,8.549999999999999,,NORMAL,,,,Blood bilirubin increased,,0,0,,0,0,1,2.8499999999999996,0.4071428571428571,NORMAL to NORMAL,0 to 0,,,Xanomeline Low Dose,Xanomeline Low Dose,68,1292,2013-10-14,2014-05-14,2013-10-14,2014-05-13,,2014-05-14T13:33,,,705,60,YEARS,F,BLACK OR AFRICAN AMERICAN,NOT HISPANIC OR LATINO,Xan_Lo,Xanomeline Low Dose,Xan_Lo,Xanomeline Low Dose,USA,2013-10-11,-3,2013-10-14T00:00:00Z,H,2014-05-13T23:59:59Z,H,212,,2014-05-14,COMPLETED,,2013-10-14,,,,,,,,2014-05-14,Y,Non-white,18-64,NA,,,,
257,CDISCPILOT01,LB,01-705-1292,43,BILI,Bilirubin,CHEMISTRY,0.4,mg/dL,0.2,1.2,6.84,6.84,umol/L,3,21,NORMAL,,4,WEEK 2,14,2013-10-29T12:15,16,2013-10-14,2014-05-13,Xanomeline Low Dose,Xanomeline Low Dose,2013-10-29,16,BILI,Bilirubin (umol/L),8,CHEMISTRY,6.84,,3,21,,Week 2,4,Y,NORMAL,LAST,,8.549999999999999,,NORMAL,-1.709999999999999,-19.999999999999993,,Blood bilirubin increased,,0,0,,0,0,0.8,2.28,0.32571428571428573,NORMAL to NORMAL,0 to 0,Y,,Xanomeline Low Dose,Xanomeline Low Dose,69,1292,2013-10-14,2014-05-14,2013-10-14,2014-05-13,,2014-05-14T13:33,,,705,60,YEARS,F,BLACK OR AFRICAN AMERICAN,NOT HISPANIC OR LATINO,Xan_Lo,Xanomeline Low Dose,Xan_Lo,Xanomeline Low Dose,USA,2013-10-11,-3,2013-10-14T00:00:00Z,H,2014-05-13T23:59:59Z,H,212,,2014-05-14,COMPLETED,,2013-10-14,,,,,,,,2014-05-14,Y,Non-white,18-64,NA,,,,
