rownames,STUDYID,USUBJID,QSSEQ,QSTESTCD,QSTEST,VISIT,VISITNUM,QSDTC,QSORRES,QSCAT,QSSTRESN
1,STUDYX,P0001,1,GAD0201,GAD02-Feeling Nervous Anxious or On Edge,VISIT 1,1,2012-11-16,More than half the days,GAD-7 V2,2
2,STUDYX,P0001,2,GAD0202,GAD02-Not Able to Stop/Control Worrying,VISIT 1,1,2012-11-16,More than half the days,GAD-7 V2,2
3,STUDYX,P0001,3,GAD0203,GAD02-Worrying Too Much About Things,VISIT 1,1,2012-11-16,More than half the days,GAD-7 V2,2
4,STUDYX,P0001,4,GAD0204,GAD02-Trouble Relaxing,VISIT 1,1,2012-11-16,More than half the days,GAD-7 V2,2
5,STUDYX,P0001,5,GAD0205,GAD02-Being Restless Hard to Sit Still,VISIT 1,1,2012-11-16,Nearly every day,GAD-7 V2,3
6,STUDYX,P0001,6,GAD0206,GAD02-Becoming Easily Annoyed/Irritable,VISIT 1,1,2012-11-16,Nearly every day,GAD-7 V2,3
7,STUDYX,P0001,7,GAD0207,GAD02-Feel Afraid/Something Awful Happen,VISIT 1,1,2012-11-16,Several days,GAD-7 V2,1
8,STUDYX,P0001,8,GAD0208,GAD02-Total Score,VISIT 1,1,2012-11-16,15,GAD-7 V2,15
9,STUDYX,P0001,9,GAD0201,GAD02-Feeling Nervous Anxious or On Edge,UNSCHEDULED VISIT 5.01,501,2013-04-15,More than half the days,GAD-7 V2,2
10,STUDYX,P0001,10,GAD0202,GAD02-Not Able to Stop/Control Worrying,UNSCHEDULED VISIT 5.01,501,2013-04-15,More than half the days,GAD-7 V2,2
11,STUDYX,P0001,11,GAD0203,GAD02-Worrying Too Much About Things,UNSCHEDULED VISIT 5.01,501,2013-04-15,More than half the days,GAD-7 V2,2
12,STUDYX,P0001,12,GAD0204,GAD02-Trouble Relaxing,UNSCHEDULED VISIT 5.01,501,2013-04-15,More than half the days,GAD-7 V2,2
13,STUDYX,P0001,13,GAD0205,GAD02-Being Restless Hard to Sit Still,UNSCHEDULED VISIT 5.01,501,2013-04-15,Several days,GAD-7 V2,1
14,STUDYX,P0001,14,GAD0206,GAD02-Becoming Easily Annoyed/Irritable,UNSCHEDULED VISIT 5.01,501,2013-04-15,Nearly every day,GAD-7 V2,3
15,STUDYX,P0001,15,GAD0207,GAD02-Feel Afraid/Something Awful Happen,UNSCHEDULED VISIT 5.01,501,2013-04-15,More than half the days,GAD-7 V2,2
16,STUDYX,P0001,16,GAD0208,GAD02-Total Score,UNSCHEDULED VISIT 5.01,501,2013-04-15,14,GAD-7 V2,14
17,STUDYX,P0001,17,GAD0201,GAD02-Feeling Nervous Anxious or On Edge,VISIT 6,6,2013-05-15,More than half the days,GAD-7 V2,2
18,STUDYX,P0001,18,GAD0202,GAD02-Not Able to Stop/Control Worrying,VISIT 6,6,2013-05-15,More than half the days,GAD-7 V2,2
19,STUDYX,P0001,19,GAD0203,GAD02-Worrying Too Much About Things,VISIT 6,6,2013-05-15,More than half the days,GAD-7 V2,2
20,STUDYX,P0001,20,GAD0204,GAD02-Trouble Relaxing,VISIT 6,6,2013-05-15,More than half the days,GAD-7 V2,2
21,STUDYX,P0001,21,GAD0205,GAD02-Being Restless Hard to Sit Still,VISIT 6,6,2013-05-15,Several days,GAD-7 V2,1
22,STUDYX,P0001,22,GAD0206,GAD02-Becoming Easily Annoyed/Irritable,VISIT 6,6,2013-05-15,Nearly every day,GAD-7 V2,3
23,STUDYX,P0001,23,GAD0207,GAD02-Feel Afraid/Something Awful Happen,VISIT 6,6,2013-05-15,Several days,GAD-7 V2,1
24,STUDYX,P0001,24,GAD0208,GAD02-Total Score,VISIT 6,6,2013-05-15,13,GAD-7 V2,13
25,STUDYX,P0001,25,GAD0201,GAD02-Feeling Nervous Anxious or On Edge,VISIT 12,12,2013-11-14,Several days,GAD-7 V2,1
26,STUDYX,P0001,26,GAD0202,GAD02-Not Able to Stop/Control Worrying,VISIT 12,12,2013-11-14,Several days,GAD-7 V2,1
27,STUDYX,P0001,27,GAD0203,GAD02-Worrying Too Much About Things,VISIT 12,12,2013-11-14,Several days,GAD-7 V2,1
28,STUDYX,P0001,28,GAD0204,GAD02-Trouble Relaxing,VISIT 12,12,2013-11-14,Several days,GAD-7 V2,1
29,STUDYX,P0001,29,GAD0205,GAD02-Being Restless Hard to Sit Still,VISIT 12,12,2013-11-14,Several days,GAD-7 V2,1
30,STUDYX,P0001,30,GAD0206,GAD02-Becoming Easily Annoyed/Irritable,VISIT 12,12,2013-11-14,Several days,GAD-7 V2,1
31,STUDYX,P0001,31,GAD0207,GAD02-Feel Afraid/Something Awful Happen,VISIT 12,12,2013-11-14,Several days,GAD-7 V2,1
32,STUDYX,P0001,32,GAD0208,GAD02-Total Score,VISIT 12,12,2013-11-14,7,GAD-7 V2,7
33,STUDYX,P0001,1,GDS0201,GDS02-Satisfied With Life,VISIT 1,1,2012-11-16,YES,GDS SHORT FORM,0
34,STUDYX,P0001,2,GDS0202,GDS02-Dropped Activities and Interests,VISIT 1,1,2012-11-16,YES,GDS SHORT FORM,1
35,STUDYX,P0001,3,GDS0203,GDS02-Life Is Empty,VISIT 1,1,2012-11-16,NO,GDS SHORT FORM,0
36,STUDYX,P0001,4,GDS0204,GDS02-Bored Often,VISIT 1,1,2012-11-16,YES,GDS SHORT FORM,1
37,STUDYX,P0001,5,GDS0205,GDS02-Good Spirits Most of Time,VISIT 1,1,2012-11-16,NO,GDS SHORT FORM,1
38,STUDYX,P0001,6,GDS0206,GDS02-Afraid of Something Bad Happening,VISIT 1,1,2012-11-16,YES,GDS SHORT FORM,1
39,STUDYX,P0001,7,GDS0207,GDS02-Feel Happy Most of Time,VISIT 1,1,2012-11-16,NO,GDS SHORT FORM,1
40,STUDYX,P0001,8,GDS0208,GDS02-Often Feel Helpless,VISIT 1,1,2012-11-16,YES,GDS SHORT FORM,1
41,STUDYX,P0001,9,GDS0209,GDS02-Prefer to Stay Home,VISIT 1,1,2012-11-16,NO,GDS SHORT FORM,0
42,STUDYX,P0001,10,GDS0210,GDS02-Memory Problems,VISIT 1,1,2012-11-16,YES,GDS SHORT FORM,1
43,STUDYX,P0001,11,GDS0211,GDS02-Wonderful to Be Alive,VISIT 1,1,2012-11-16,NO,GDS SHORT FORM,1
44,STUDYX,P0001,12,GDS0212,GDS02-Feel Worthless,VISIT 1,1,2012-11-16,YES,GDS SHORT FORM,1
45,STUDYX,P0001,13,GDS0213,GDS02-Feel Full of Energy,VISIT 1,1,2012-11-16,YES,GDS SHORT FORM,0
46,STUDYX,P0001,14,GDS0214,GDS02-Feel Hopeless,VISIT 1,1,2012-11-16,YES,GDS SHORT FORM,1
47,STUDYX,P0001,15,GDS0215,GDS02-Most People Better Off Than You,VISIT 1,1,2012-11-16,NO,GDS SHORT FORM,0
48,STUDYX,P0001,16,GDS0201,GDS02-Satisfied With Life,VISIT 2,2,2012-12-15,YES,GDS SHORT FORM,0
49,STUDYX,P0001,17,GDS0202,GDS02-Dropped Activities and Interests,VISIT 2,2,2012-12-15,NO,GDS SHORT FORM,0
50,STUDYX,P0001,18,GDS0203,GDS02-Life Is Empty,VISIT 2,2,2012-12-15,NO,GDS SHORT FORM,0
51,STUDYX,P0001,19,GDS0204,GDS02-Bored Often,VISIT 2,2,2012-12-15,YES,GDS SHORT FORM,1
52,STUDYX,P0001,20,GDS0205,GDS02-Good Spirits Most of Time,VISIT 2,2,2012-12-15,NO,GDS SHORT FORM,1
53,STUDYX,P0001,21,GDS0206,GDS02-Afraid of Something Bad Happening,VISIT 2,2,2012-12-15,YES,GDS SHORT FORM,1
54,STUDYX,P0001,22,GDS0207,GDS02-Feel Happy Most of Time,VISIT 2,2,2012-12-15,NO,GDS SHORT FORM,1
55,STUDYX,P0001,23,GDS0208,GDS02-Often Feel Helpless,VISIT 2,2,2012-12-15,YES,GDS SHORT FORM,1
56,STUDYX,P0001,24,GDS0209,GDS02-Prefer to Stay Home,VISIT 2,2,2012-12-15,NO,GDS SHORT FORM,0
57,STUDYX,P0001,25,GDS0210,GDS02-Memory Problems,VISIT 2,2,2012-12-15,NO,GDS SHORT FORM,0
58,STUDYX,P0001,26,GDS0211,GDS02-Wonderful to Be Alive,VISIT 2,2,2012-12-15,NO,GDS SHORT FORM,1
59,STUDYX,P0001,27,GDS0212,GDS02-Feel Worthless,VISIT 2,2,2012-12-15,YES,GDS SHORT FORM,1
60,STUDYX,P0001,28,GDS0213,GDS02-Feel Full of Energy,VISIT 2,2,2012-12-15,YES,GDS SHORT FORM,0
61,STUDYX,P0001,29,GDS0214,GDS02-Feel Hopeless,VISIT 2,2,2012-12-15,YES,GDS SHORT FORM,1
62,STUDYX,P0001,30,GDS0215,GDS02-Most People Better Off Than You,VISIT 2,2,2012-12-15,NO,GDS SHORT FORM,0
63,STUDYX,P0001,31,GDS0201,GDS02-Satisfied With Life,UNSCHEDULED 2.01,201,2012-12-28,YES,GDS SHORT FORM,0
64,STUDYX,P0001,32,GDS0202,GDS02-Dropped Activities and Interests,UNSCHEDULED 2.01,201,2012-12-28,NO,GDS SHORT FORM,0
65,STUDYX,P0001,33,GDS0203,GDS02-Life Is Empty,UNSCHEDULED 2.01,201,2012-12-28,YES,GDS SHORT FORM,1
66,STUDYX,P0001,34,GDS0204,GDS02-Bored Often,UNSCHEDULED 2.01,201,2012-12-28,YES,GDS SHORT FORM,1
67,STUDYX,P0001,35,GDS0205,GDS02-Good Spirits Most of Time,UNSCHEDULED 2.01,201,2012-12-28,NO,GDS SHORT FORM,1
68,STUDYX,P0001,36,GDS0206,GDS02-Afraid of Something Bad Happening,UNSCHEDULED 2.01,201,2012-12-28,YES,GDS SHORT FORM,1
69,STUDYX,P0001,37,GDS0207,GDS02-Feel Happy Most of Time,UNSCHEDULED 2.01,201,2012-12-28,NO,GDS SHORT FORM,0
70,STUDYX,P0001,38,GDS0208,GDS02-Often Feel Helpless,UNSCHEDULED 2.01,201,2012-12-28,YES,GDS SHORT FORM,1
71,STUDYX,P0001,39,GDS0209,GDS02-Prefer to Stay Home,UNSCHEDULED 2.01,201,2012-12-28,NO,GDS SHORT FORM,0
72,STUDYX,P0001,40,GDS0210,GDS02-Memory Problems,UNSCHEDULED 2.01,201,2012-12-28,NO,GDS SHORT FORM,0
73,STUDYX,P0001,41,GDS0211,GDS02-Wonderful to Be Alive,UNSCHEDULED 2.01,201,2012-12-28,NO,GDS SHORT FORM,1
74,STUDYX,P0001,42,GDS0212,GDS02-Feel Worthless,UNSCHEDULED 2.01,201,2012-12-28,YES,GDS SHORT FORM,1
75,STUDYX,P0001,43,GDS0213,GDS02-Feel Full of Energy,UNSCHEDULED 2.01,201,2012-12-28,YES,GDS SHORT FORM,0
76,STUDYX,P0001,44,GDS0214,GDS02-Feel Hopeless,UNSCHEDULED 2.01,201,2012-12-28,YES,GDS SHORT FORM,1
77,STUDYX,P0001,45,GDS0215,GDS02-Most People Better Off Than You,UNSCHEDULED 2.01,201,2012-12-28,NO,GDS SHORT FORM,0
78,STUDYX,P0001,46,GDS0201,GDS02-Satisfied With Life,VISIT 3,3,2013-01-12,,GDS SHORT FORM,
79,STUDYX,P0001,47,GDS0202,GDS02-Dropped Activities and Interests,VISIT 3,3,2013-01-12,,GDS SHORT FORM,
80,STUDYX,P0001,48,GDS0203,GDS02-Life Is Empty,VISIT 3,3,2013-01-12,NO,GDS SHORT FORM,0
81,STUDYX,P0001,49,GDS0204,GDS02-Bored Often,VISIT 3,3,2013-01-12,NO,GDS SHORT FORM,0
82,STUDYX,P0001,50,GDS0205,GDS02-Good Spirits Most of Time,VISIT 3,3,2013-01-12,YES,GDS SHORT FORM,0
83,STUDYX,P0001,51,GDS0206,GDS02-Afraid of Something Bad Happening,VISIT 3,3,2013-01-12,YES,GDS SHORT FORM,1
84,STUDYX,P0001,52,GDS0207,GDS02-Feel Happy Most of Time,VISIT 3,3,2013-01-12,NO,GDS SHORT FORM,1
85,STUDYX,P0001,53,GDS0208,GDS02-Often Feel Helpless,VISIT 3,3,2013-01-12,YES,GDS SHORT FORM,1
86,STUDYX,P0001,54,GDS0209,GDS02-Prefer to Stay Home,VISIT 3,3,2013-01-12,NO,GDS SHORT FORM,0
87,STUDYX,P0001,55,GDS0210,GDS02-Memory Problems,VISIT 3,3,2013-01-12,NO,GDS SHORT FORM,0
88,STUDYX,P0001,56,GDS0211,GDS02-Wonderful to Be Alive,VISIT 3,3,2013-01-12,NO,GDS SHORT FORM,1
89,STUDYX,P0001,57,GDS0212,GDS02-Feel Worthless,VISIT 3,3,2013-01-12,YES,GDS SHORT FORM,1
90,STUDYX,P0001,58,GDS0213,GDS02-Feel Full of Energy,VISIT 3,3,2013-01-12,YES,GDS SHORT FORM,0
91,STUDYX,P0001,59,GDS0214,GDS02-Feel Hopeless,VISIT 3,3,2013-01-12,YES,GDS SHORT FORM,1
92,STUDYX,P0001,60,GDS0215,GDS02-Most People Better Off Than You,VISIT 3,3,2013-01-12,NO,GDS SHORT FORM,0
93,STUDYX,P0001,61,GDS0201,GDS02-Satisfied With Life,VISIT 4,4,2013-02-13,YES,GDS SHORT FORM,0
94,STUDYX,P0001,62,GDS0202,GDS02-Dropped Activities and Interests,VISIT 4,4,2013-02-13,NO,GDS SHORT FORM,0
95,STUDYX,P0001,63,GDS0203,GDS02-Life Is Empty,VISIT 4,4,2013-02-13,NO,GDS SHORT FORM,0
96,STUDYX,P0001,64,GDS0204,GDS02-Bored Often,VISIT 4,4,2013-02-13,NO,GDS SHORT FORM,0
97,STUDYX,P0001,65,GDS0205,GDS02-Good Spirits Most of Time,VISIT 4,4,2013-02-13,YES,GDS SHORT FORM,0
98,STUDYX,P0001,66,GDS0206,GDS02-Afraid of Something Bad Happening,VISIT 4,4,2013-02-13,YES,GDS SHORT FORM,1
99,STUDYX,P0001,67,GDS0207,GDS02-Feel Happy Most of Time,VISIT 4,4,2013-02-13,NO,GDS SHORT FORM,1
100,STUDYX,P0001,68,GDS0208,GDS02-Often Feel Helpless,VISIT 4,4,2013-02-13,NO,GDS SHORT FORM,0
101,STUDYX,P0001,69,GDS0209,GDS02-Prefer to Stay Home,VISIT 4,4,2013-02-13,NO,GDS SHORT FORM,0
102,STUDYX,P0001,70,GDS0210,GDS02-Memory Problems,VISIT 4,4,2013-02-13,NO,GDS SHORT FORM,0
103,STUDYX,P0001,71,GDS0211,GDS02-Wonderful to Be Alive,VISIT 4,4,2013-02-13,NO,GDS SHORT FORM,1
104,STUDYX,P0001,72,GDS0212,GDS02-Feel Worthless,VISIT 4,4,2013-02-13,NO,GDS SHORT FORM,0
105,STUDYX,P0001,73,GDS0213,GDS02-Feel Full of Energy,VISIT 4,4,2013-02-13,YES,GDS SHORT FORM,0
106,STUDYX,P0001,74,GDS0214,GDS02-Feel Hopeless,VISIT 4,4,2013-02-13,NO,GDS SHORT FORM,0
107,STUDYX,P0001,75,GDS0215,GDS02-Most People Better Off Than You,VISIT 4,4,2013-02-13,NO,GDS SHORT FORM,0
108,STUDYX,P0002,1,GDS0201,GDS02-Satisfied With Life,VISIT 1,1,2012-11-16,YES,GDS SHORT FORM,0
109,STUDYX,P0002,2,GDS0202,GDS02-Dropped Activities and Interests,VISIT 1,1,2012-11-16,YES,GDS SHORT FORM,1
110,STUDYX,P0002,3,GDS0203,GDS02-Life Is Empty,VISIT 1,1,2012-11-16,NO,GDS SHORT FORM,0
111,STUDYX,P0002,4,GDS0204,GDS02-Bored Often,VISIT 1,1,2012-11-16,YES,GDS SHORT FORM,1
112,STUDYX,P0002,5,GDS0205,GDS02-Good Spirits Most of Time,VISIT 1,1,2012-11-16,NO,GDS SHORT FORM,1
113,STUDYX,P0002,6,GDS0206,GDS02-Afraid of Something Bad Happening,VISIT 1,1,2012-11-16,NO,GDS SHORT FORM,0
114,STUDYX,P0002,7,GDS0207,GDS02-Feel Happy Most of Time,VISIT 1,1,2012-11-16,NO,GDS SHORT FORM,1
115,STUDYX,P0002,8,GDS0208,GDS02-Often Feel Helpless,VISIT 1,1,2012-11-16,NO,GDS SHORT FORM,0
116,STUDYX,P0002,9,GDS0209,GDS02-Prefer to Stay Home,VISIT 1,1,2012-11-16,NO,GDS SHORT FORM,0
117,STUDYX,P0002,10,GDS0210,GDS02-Memory Problems,VISIT 1,1,2012-11-16,NO,GDS SHORT FORM,0
118,STUDYX,P0002,11,GDS0211,GDS02-Wonderful to Be Alive,VISIT 1,1,2012-11-16,YES,GDS SHORT FORM,0
119,STUDYX,P0002,12,GDS0212,GDS02-Feel Worthless,VISIT 1,1,2012-11-16,NO,GDS SHORT FORM,0
120,STUDYX,P0002,13,GDS0213,GDS02-Feel Full of Energy,VISIT 1,1,2012-11-16,YES,GDS SHORT FORM,0
121,STUDYX,P0002,14,GDS0214,GDS02-Feel Hopeless,VISIT 1,1,2012-11-16,NO,GDS SHORT FORM,0
122,STUDYX,P0002,15,GDS0215,GDS02-Most People Better Off Than You,VISIT 1,1,2012-11-16,NO,GDS SHORT FORM,0
123,STUDYX,P0002,16,GDS0201,GDS02-Satisfied With Life,VISIT 2,2,2012-12-15,YES,GDS SHORT FORM,0
124,STUDYX,P0002,17,GDS0202,GDS02-Dropped Activities and Interests,VISIT 2,2,2012-12-15,YES,GDS SHORT FORM,1
125,STUDYX,P0002,18,GDS0203,GDS02-Life Is Empty,VISIT 2,2,2012-12-15,NO,GDS SHORT FORM,0
126,STUDYX,P0002,19,GDS0204,GDS02-Bored Often,VISIT 2,2,2012-12-15,YES,GDS SHORT FORM,1
127,STUDYX,P0002,20,GDS0205,GDS02-Good Spirits Most of Time,VISIT 2,2,2012-12-15,NO,GDS SHORT FORM,1
128,STUDYX,P0002,21,GDS0206,GDS02-Afraid of Something Bad Happening,VISIT 2,2,2012-12-15,YES,GDS SHORT FORM,1
129,STUDYX,P0002,22,GDS0207,GDS02-Feel Happy Most of Time,VISIT 2,2,2012-12-15,NO,GDS SHORT FORM,1
130,STUDYX,P0002,23,GDS0208,GDS02-Often Feel Helpless,VISIT 2,2,2012-12-15,NO,GDS SHORT FORM,0
131,STUDYX,P0002,24,GDS0209,GDS02-Prefer to Stay Home,VISIT 2,2,2012-12-15,YES,GDS SHORT FORM,1
132,STUDYX,P0002,25,GDS0210,GDS02-Memory Problems,VISIT 2,2,2012-12-15,NO,GDS SHORT FORM,0
133,STUDYX,P0002,26,GDS0211,GDS02-Wonderful to Be Alive,VISIT 2,2,2012-12-15,YES,GDS SHORT FORM,0
134,STUDYX,P0002,27,GDS0212,GDS02-Feel Worthless,VISIT 2,2,2012-12-15,NO,GDS SHORT FORM,0
135,STUDYX,P0002,28,GDS0213,GDS02-Feel Full of Energy,VISIT 2,2,2012-12-15,YES,GDS SHORT FORM,0
136,STUDYX,P0002,29,GDS0214,GDS02-Feel Hopeless,VISIT 2,2,2012-12-15,NO,GDS SHORT FORM,0
137,STUDYX,P0002,30,GDS0215,GDS02-Most People Better Off Than You,VISIT 2,2,2012-12-15,NO,GDS SHORT FORM,0
138,STUDYX,P0002,46,GDS0201,GDS02-Satisfied With Life,VISIT 4,4,2013-02-13,NO,GDS SHORT FORM,1
139,STUDYX,P0002,47,GDS0202,GDS02-Dropped Activities and Interests,VISIT 4,4,2013-02-13,YES,GDS SHORT FORM,1
140,STUDYX,P0002,48,GDS0203,GDS02-Life Is Empty,VISIT 4,4,2013-02-13,NO,GDS SHORT FORM,0
141,STUDYX,P0002,49,GDS0204,GDS02-Bored Often,VISIT 4,4,2013-02-13,YES,GDS SHORT FORM,1
142,STUDYX,P0002,50,GDS0205,GDS02-Good Spirits Most of Time,VISIT 4,4,2013-02-13,NO,GDS SHORT FORM,1
143,STUDYX,P0002,51,GDS0206,GDS02-Afraid of Something Bad Happening,VISIT 4,4,2013-02-13,YES,GDS SHORT FORM,1
144,STUDYX,P0002,52,GDS0207,GDS02-Feel Happy Most of Time,VISIT 4,4,2013-02-13,NO,GDS SHORT FORM,1
145,STUDYX,P0002,53,GDS0208,GDS02-Often Feel Helpless,VISIT 4,4,2013-02-13,YES,GDS SHORT FORM,1
146,STUDYX,P0002,54,GDS0209,GDS02-Prefer to Stay Home,VISIT 4,4,2013-02-13,YES,GDS SHORT FORM,1
147,STUDYX,P0002,55,GDS0210,GDS02-Memory Problems,VISIT 4,4,2013-02-13,YES,GDS SHORT FORM,1
148,STUDYX,P0002,56,GDS0211,GDS02-Wonderful to Be Alive,VISIT 4,4,2013-02-13,NO,GDS SHORT FORM,1
149,STUDYX,P0002,57,GDS0212,GDS02-Feel Worthless,VISIT 4,4,2013-02-13,YES,GDS SHORT FORM,1
150,STUDYX,P0002,58,GDS0213,GDS02-Feel Full of Energy,VISIT 4,4,2013-02-13,NO,GDS SHORT FORM,1
151,STUDYX,P0002,59,GDS0214,GDS02-Feel Hopeless,VISIT 4,4,2013-02-13,YES,GDS SHORT FORM,1
152,STUDYX,P0002,60,GDS0215,GDS02-Most People Better Off Than You,VISIT 4,4,2013-02-13,NO,GDS SHORT FORM,0
153,STUDYX,P0001,1,SP0101,SP01-No sleep at all,VISIT 1,1,2012-11-16,NO,SLEEPING PROBLEMS,0
154,STUDYX,P0001,2,SP0102,SP01-Waking up more than three times,VISIT 1,1,2012-11-16,NO,SLEEPING PROBLEMS,0
155,STUDYX,P0001,3,SP0103,SP01-More than 30 mins to fall asleep,VISIT 1,1,2012-11-16,YES,SLEEPING PROBLEMS,1
156,STUDYX,P0001,4,SP0101,SP01-No sleep at all,VISIT 2,2,2012-12-15,NO,SLEEPING PROBLEMS,0
157,STUDYX,P0001,5,SP0102,SP01-Waking up more than three times,VISIT 2,2,2012-12-15,NO,SLEEPING PROBLEMS,0
158,STUDYX,P0001,6,SP0103,SP01-More than 30 mins to fall asleep,VISIT 2,2,2012-12-15,NO,SLEEPING PROBLEMS,0
159,STUDYX,P0001,7,SP0101,SP01-No sleep at all,VISIT 4,4,2013-02-13,NO,SLEEPING PROBLEMS,0
160,STUDYX,P0001,8,SP0102,SP01-Waking up more than three times,VISIT 4,4,2013-02-13,YES,SLEEPING PROBLEMS,1
161,STUDYX,P0001,9,SP0103,SP01-More than 30 mins to fall asleep,VISIT 4,4,2013-02-13,YES,SLEEPING PROBLEMS,1
